Condition,CorrectTuringReply,Sychronize,NumberImage,Number,Partner,trials.thisRepN,trials.thisTrialN,trials.thisN,trials.thisIndex,Block.thisRepN,Block.thisTrialN,Block.thisN,Block.thisIndex,trials_loop.thisRepN,trials_loop.thisTrialN,trials_loop.thisN,trials_loop.thisIndex,key_resp_Istr.keys,key_resp_Istr.rt,key_resp_Istr.started,key_resp_Istr.stopped,key_respPrLeft.keys,key_respPrLeft.rt,key_respPrRight.keys,key_respPrRight.rt,RTPrLeft,RTPrRight,CompPr,SychronizedRTsPr,SychronizedRTsLeftCPr,SychronizedRTsRightCPr,CreditLeftPr.started,CreditLeftPr.stopped,CreditRightPr.started,CreditRightPr.stopped,text_StartExp.started,text_StartExp.stopped,key_startExp.keys,key_startExp.rt,key_startExp.started,key_startExp.stopped,SychroLeft.started,SychroLeft.stopped,SychroRight.started,SychroRight.stopped,NumberLeft.started,NumberLeft.stopped,NumberRight.started,NumberRight.stopped,CrossLeft.started,CrossLeft.stopped,CrossRight.started,CrossRight.stopped,key_respLeft.keys,key_respLeft.rt,key_respLeft.started,key_respLeft.stopped,key_respRight.keys,key_respRight.rt,key_respRight.started,key_respRight.stopped,RTLeft,RTRight,Comp,SychronizedRTs,SychronizedRTsLeftC,SychronizedRTsRightC,FeedbackLeftLeft.started,FeedbackLeftLeft.stopped,FeedbackLeftRight.started,FeedbackLeftRight.stopped,FeedbackRightLeft.started,FeedbackRightLeft.stopped,FeedbackRightRight.started,FeedbackRightRight.stopped,textLeftLeft.started,textLeftLeft.stopped,textLeftRight.started,textLeftRight.stopped,textRightLeft.started,textRightLeft.stopped,textRightRight.started,textRightRight.stopped,CreditLeft.started,CreditLeft.stopped,CreditRight.started,CreditRight.stopped,BlankLeft.started,BlankLeft.stopped,BlankRight.started,BlankRight.stopped,CorrectTuringReply,TuringtextLeft.started,TuringtextLeft.stopped,TuringtextRight.started,TuringtextRight.stopped,keyTuringLeft.keys,keyTuringLeft.corr,keyTuringLeft.rt,keyTuringLeft.started,keyTuringLeft.stopped,keyTuringRight.keys,keyTuringRight.corr,keyTuringRight.rt,keyTuringRight.started,keyTuringRight.stopped,RespTuringLeft,RespTuringRight,ScoreLeft.started,ScoreLeft.stopped,ScoreRight.started,ScoreRight.stopped,BlockText.started,BlockText.stopped,text_Pause.started,text_Pause.stopped,text_LongPause.started,text_LongPause.stopped,key_respPause.keys,key_respPause.started,key_respPause.stopped,key_respPause.rt,QuestImageLeft.started,QuestImageLeft.stopped,QuestImageRight.started,QuestImageRight.stopped,respQuestLeft.keys,respQuestLeft.rt,respQuestLeft.started,respQuestLeft.stopped,respQuestRight.keys,respQuestRight.rt,respQuestRight.started,respQuestRight.stopped,RespInclusionLeft,RespInclusionRight,EndText.started,EndText.stopped,participant,session,date,expName,psychopyVersion,frameRate,
,,,,,,,,,,,,,,,,,,"['v', 't']","[282.1003047352651, 283.0201250376904]",24.01425936499527,None,,,,,,,,,,,,,,,,,,,,,,,,,,,,,,,,,,,,,,,,,,,,,,,,,,,,,,,,,,,,,,,,,,,,,,,,,,,,,,,,,,,,,,,,,,,,,,,,,,,,,,,,,,,,,,,,,,,,,,11_12Exp,001,2021_Apr_28_1040,ComputerHuman,2020.1.3,60.02849825737297,
,,,,,,,,,,,,,,,,,,,,,,v,8.06662411065372,t,7.577619279798455,8.06662411065372,7.577619279798455,9,False,False,False,368.7259060260594,None,368.7259060260594,None,369.72565421849777,None,"['space', 'space']","[2.32782297126505, 3.007777164742947]",370.70869650292207,None,,,,,,,,,,,,,,,,,,,,,,,,,,,,,,,,,,,,,,,,,,,,,,,,,,,,,,,,,,,,,,,,,,,,,,,,,,,,,,,,,,,,,,,,,,,,,,,,,,11_12Exp,001,2021_Apr_28_1040,ComputerHuman,2020.1.3,60.02849825737297,
Computer.xlsx,c,Sychronize.jpg,Number7.jpg,7,Computer,,,,,0,0,0,9,0,0,0,3,,,,,,,,,,,,,,,,,,,,,,,,,373.8099321242289,None,373.8099321242289,None,376.85720714941,None,376.85720714941,None,377.2740407254623,None,377.2740407254623,None,v,6.877488724794603,377.2740407254623,None,t,5.652774374009823,377.2740407254623,None,6.877488724794603,5.652774374009823,6.567769296792004,False,False,False,384.2552770524717,None,384.2552770524717,None,384.2552770524717,None,384.2552770524717,None,384.2552770524717,None,384.2552770524717,None,384.2552770524717,None,384.2552770524717,None,385.25506790784766,None,385.25506790784766,None,386.2380704162997,None,386.2380704162997,None,c,,,,,,,,,,,,,,,,,,,,,,,,,,,,,,,,,,,,,,,,,,,,,,,11_12Exp,001,2021_Apr_28_1040,ComputerHuman,2020.1.3,60.02849825737297,
Computer.xlsx,c,Sychronize.jpg,Number10.jpg,10,Computer,,,,,0,0,0,9,0,1,1,8,,,,,,,,,,,,,,,,,,,,,,,,,,,,,387.2882368979872,None,387.2882368979872,None,387.73729318098685,None,387.73729318098685,None,v,8.905644980208308,387.73729318098685,None,t,7.9846516073985185,387.73729318098685,None,8.905644980208308,7.9846516073985185,10.282420558940938,False,False,False,396.73540574698563,None,396.73540574698563,None,396.73540574698563,None,396.73540574698563,None,396.73540574698563,None,396.73540574698563,None,396.73540574698563,None,396.73540574698563,None,397.7185756994477,None,397.7185756994477,None,398.70161349303544,None,398.70161349303544,None,c,,,,,,,,,,,,,,,,,,,,,,,,,,,,,,,,,,,,,,,,,,,,,,,11_12Exp,001,2021_Apr_28_1040,ComputerHuman,2020.1.3,60.02849825737297,
Computer.xlsx,c,Sychronize.jpg,Number7.jpg,7,Computer,,,,,0,0,0,9,0,2,2,2,,,,,,,,,,,,,,,,,,,,,,,,,,,,,399.76878869335906,None,399.76878869335906,None,400.2182937391335,None,400.2182937391335,None,v,6.599257408274752,400.2182937391335,None,t,6.666666132043247,400.2182937391335,None,6.599257408274752,6.666666132043247,6.598585950713029,False,True,True,406.98280491169044,None,406.98280491169044,None,406.98280491169044,None,406.98280491169044,None,406.98280491169044,None,406.98280491169044,None,406.98280491169044,None,406.98280491169044,None,407.9825136489317,None,407.9825136489317,None,408.96567526127,None,408.96567526127,None,c,,,,,,,,,,,,,,,,,,,,,,,,,,,,,,,,,,,,,,,,,,,,,,,11_12Exp,001,2021_Apr_28_1040,ComputerHuman,2020.1.3,60.02849825737297,
Computer.xlsx,c,Sychronize.jpg,Number6.jpg,6,Computer,,,,,0,0,0,9,0,3,3,0,,,,,,,,,,,,,,,,,,,,,,,,,,,,,410.0159049354279,None,410.0159049354279,None,410.44889685833914,None,410.44889685833914,None,v,5.259931803455402,410.44889685833914,None,t,4.658942215777643,410.44889685833914,None,5.259931803455402,4.658942215777643,5.7999530319786246,False,False,False,415.79724391010586,None,415.79724391010586,None,415.79724391010586,None,415.79724391010586,None,415.79724391010586,None,415.79724391010586,None,415.79724391010586,None,415.79724391010586,None,416.7802993462619,None,416.7802993462619,None,417.780064539721,None,417.780064539721,None,c,,,,,,,,,,,,,,,,,,,,,,,,,,,,,,,,,,,,,,,,,,,,,,,11_12Exp,001,2021_Apr_28_1040,ComputerHuman,2020.1.3,60.02849825737297,
Computer.xlsx,c,Sychronize.jpg,Number9.jpg,9,Computer,,,,,0,0,0,9,0,4,4,7,,,,,,,,,,,,,,,,,,,,,,,,,,,,,418.830200868656,None,418.830200868656,None,419.280199906334,None,419.280199906334,None,v,7.943520686712873,419.280199906334,None,t,7.646692820437238,419.280199906334,None,7.943520686712873,7.646692820437238,8.665642789464496,False,False,False,427.3109143341053,None,427.3109143341053,None,427.3109143341053,None,427.3109143341053,None,427.3109143341053,None,427.3109143341053,None,427.3109143341053,None,427.3109143341053,None,428.2940117916505,None,428.2940117916505,None,429.27714004349673,None,429.27714004349673,None,c,,,,,,,,,,,,,,,,,,,,,,,,,,,,,,,,,,,,,,,,,,,,,,,11_12Exp,001,2021_Apr_28_1040,ComputerHuman,2020.1.3,60.02849825737297,
Computer.xlsx,c,Sychronize.jpg,Number9.jpg,9,Computer,,,,,0,0,0,9,0,5,5,6,,,,,,,,,,,,,,,,,,,,,,,,,,,,,430.32719008423464,None,430.32719008423464,None,430.77716313922156,None,430.77716313922156,None,v,8.381516362679577,430.77716313922156,None,t,6.944744760157846,430.77716313922156,None,8.381516362679577,6.944744760157846,9.03836210234751,False,False,False,439.2579192676085,None,439.2579192676085,None,439.2579192676085,None,439.2579192676085,None,439.2579192676085,None,439.2579192676085,None,439.2579192676085,None,439.2579192676085,None,440.2575644916051,None,440.2575644916051,None,441.24074695425134,None,441.24074695425134,None,c,,,,,,,,,,,,,,,,,,,,,,,,,,,,,,,,,,,,,,,,,,,,,,,11_12Exp,001,2021_Apr_28_1040,ComputerHuman,2020.1.3,60.02849825737297,
Computer.xlsx,c,Sychronize.jpg,Number10.jpg,10,Computer,,,,,0,0,0,9,0,6,6,9,,,,,,,,,,,,,,,,,,,,,,,,,,,,,442.2903187210095,None,442.2903187210095,None,442.7240753690503,None,442.7240753690503,None,v,10.637882442757473,442.7240753690503,None,t,8.688589749346647,442.7240753690503,None,10.637882442757473,8.688589749346647,9.944964751537482,False,False,False,453.43897564042527,None,453.43897564042527,None,453.43897564042527,None,453.43897564042527,None,453.43897564042527,None,453.43897564042527,None,453.43897564042527,None,453.43897564042527,None,454.45403950652144,None,454.45403950652144,None,455.43706222373294,None,455.43706222373294,None,c,,,,,,,,,,,,,,,,,,,,,,,,,,,,,,,,,,,,,,,,,,,,,,,11_12Exp,001,2021_Apr_28_1040,ComputerHuman,2020.1.3,60.02849825737297,
Computer.xlsx,c,Sychronize.jpg,Number8.jpg,8,Computer,,,,,0,0,0,9,0,7,7,5,,,,,,,,,,,,,,,,,,,,,,,,,,,,,456.4867712817486,None,456.4867712817486,None,456.93698876649523,None,456.93698876649523,None,v,7.027569880608098,456.93698876649523,None,t,5.818832318618661,456.93698876649523,None,7.027569880608098,5.818832318618661,8.305855860917907,False,False,False,464.0517074798072,None,464.0517074798072,None,464.0517074798072,None,464.0517074798072,None,464.0517074798072,None,464.0517074798072,None,464.0517074798072,None,464.0517074798072,None,465.0346143976185,None,465.0346143976185,None,466.01772885618357,None,466.01772885618357,None,c,,,,,,,,,,,,,,,,,,,,,,,,,,,,,,,,,,,,,,,,,,,,,,,11_12Exp,001,2021_Apr_28_1040,ComputerHuman,2020.1.3,60.02849825737297,
Computer.xlsx,c,Sychronize.jpg,Number8.jpg,8,Computer,,,,,0,0,0,9,0,8,8,4,,,,,,,,,,,,,,,,,,,,,,,,,,,,,467.084742707204,None,467.084742707204,None,467.53415986091204,None,467.53415986091204,None,v,7.037484362268515,467.53415986091204,None,t,7.728672701494361,467.53415986091204,None,7.037484362268515,7.728672701494361,7.759558319094096,False,False,True,475.3485568379383,None,475.3485568379383,None,475.3485568379383,None,475.3485568379383,None,475.3485568379383,None,475.3485568379383,None,475.3485568379383,None,475.3485568379383,None,476.3484067157233,None,476.3484067157233,None,477.31485087218425,None,477.31485087218425,None,c,,,,,,,,,,,,,,,,,,,,,,,,,,,,,,,,,,,,,,,,,,,,,,,11_12Exp,001,2021_Apr_28_1040,ComputerHuman,2020.1.3,60.02849825737297,
Computer.xlsx,c,Sychronize.jpg,Number6.jpg,6,Computer,,,,,0,0,0,9,0,9,9,1,,,,,,,,,,,,,,,,,,,,,,,,,,,,,478.36520179889976,None,478.36520179889976,None,478.8146455768474,None,478.8146455768474,None,v,5.528157538509731,478.8146455768474,None,t,4.891842397335495,478.8146455768474,None,5.528157538509731,4.891842397335495,6.285676416472221,False,False,False,484.4296225131993,None,484.4296225131993,None,484.4296225131993,None,484.4296225131993,None,484.4296225131993,None,484.4296225131993,None,484.4296225131993,None,484.4296225131993,None,485.4294146516713,None,485.4294146516713,None,486.4125406580997,None,486.4125406580997,None,c,,,,,,,,,,,,,,,,,,,,,,,,,,,,,,,,,,,,,,,,,,,,,,,11_12Exp,001,2021_Apr_28_1040,ComputerHuman,2020.1.3,60.02849825737297,
Computer.xlsx,c,,,,,,,,,0,0,0,9,,,,,,,,,,,,,,,,,,,,,,,,,,,,,,,,,,,,,,,,,,,,,,,,,,,,,,,,,,,,,,,,,,,,,,,,,,,,,,,c,487.41318733840944,None,487.41318733840944,None,q,0,7.436730543455269,487.41318733840944,None,l,1,10.531367202786896,487.41318733840944,None,h,c,498.05967807125035,None,498.05967807125035,None,500.02569335292173,None,None,None,None,None,None,None,None,,,,,,,,,,,,,,,,,,11_12Exp,001,2021_Apr_28_1040,ComputerHuman,2020.1.3,60.02849825737297,
Computer.xlsx,c,Sychronize.jpg,Number10.jpg,10,Computer,,,,,0,1,1,1,0,0,0,8,,,,,,,,,,,,,,,,,,,,,,,,,505.0438533293127,None,505.0438533293127,None,508.10736400787755,None,508.10736400787755,None,508.55739897223975,None,508.55739897223975,None,v,8.830564305556436,508.55739897223975,None,t,9.249480666952877,508.55739897223975,None,8.830564305556436,9.249480666952877,9.885157727329075,False,False,False,517.88831484606,None,517.88831484606,None,517.88831484606,None,517.88831484606,None,517.88831484606,None,517.88831484606,None,517.88831484606,None,517.88831484606,None,518.9041970065373,None,518.9041970065373,None,519.8872880486033,None,519.8872880486033,None,c,,,,,,,,,,,,,,,,,,,,,,,,,,,,,,,,,,,,,,,,,,,,,,,11_12Exp,001,2021_Apr_28_1040,ComputerHuman,2020.1.3,60.02849825737297,
Computer.xlsx,c,Sychronize.jpg,Number9.jpg,9,Computer,,,,,0,1,1,1,0,1,1,6,,,,,,,,,,,,,,,,,,,,,,,,,,,,,520.9373050496233,None,520.9373050496233,None,521.4039974851321,None,521.4039974851321,None,v,8.746741578080218,521.4039974851321,None,t,7.757645326644706,521.4039974851321,None,8.746741578080218,7.757645326644706,9.395308538525585,False,False,False,530.2345002020875,None,530.2345002020875,None,530.2345002020875,None,530.2345002020875,None,530.2345002020875,None,530.2345002020875,None,530.2345002020875,None,530.2345002020875,None,531.2175729600376,None,531.2175729600376,None,532.2007897454978,None,532.2007897454978,None,c,,,,,,,,,,,,,,,,,,,,,,,,,,,,,,,,,,,,,,,,,,,,,,,11_12Exp,001,2021_Apr_28_1040,ComputerHuman,2020.1.3,60.02849825737297,
Computer.xlsx,c,Sychronize.jpg,Number6.jpg,6,Computer,,,,,0,1,1,1,0,2,2,1,,,,,,,,,,,,,,,,,,,,,,,,,,,,,533.2673124915791,None,533.2673124915791,None,533.717216580164,None,533.717216580164,None,v,6.112725103128469,533.717216580164,None,t,7.423710649054556,533.717216580164,None,6.112725103128469,7.423710649054556,6.089007878600803,False,True,False,541.2317017700307,None,541.2317017700307,None,541.2317017700307,None,541.2317017700307,None,541.2317017700307,None,541.2317017700307,None,541.2317017700307,None,541.2317017700307,None,542.2314531702086,None,542.2314531702086,None,543.1979024590528,None,543.1979024590528,None,c,,,,,,,,,,,,,,,,,,,,,,,,,,,,,,,,,,,,,,,,,,,,,,,11_12Exp,001,2021_Apr_28_1040,ComputerHuman,2020.1.3,60.02849825737297,
Computer.xlsx,c,Sychronize.jpg,Number9.jpg,9,Computer,,,,,0,1,1,1,0,3,3,7,,,,,,,,,,,,,,,,,,,,,,,,,,,,,544.264201304908,None,544.264201304908,None,544.698125396957,None,544.698125396957,None,v,9.255033585034653,544.698125396957,None,t,8.633500670417561,544.698125396957,None,9.255033585034653,8.633500670417561,9.352642213476813,False,True,False,554.030189962341,None,554.030189962341,None,554.030189962341,None,554.030189962341,None,554.030189962341,None,554.030189962341,None,554.030189962341,None,554.030189962341,None,555.0448393884762,None,555.0448393884762,None,556.0280369274988,None,556.0280369274988,None,c,,,,,,,,,,,,,,,,,,,,,,,,,,,,,,,,,,,,,,,,,,,,,,,11_12Exp,001,2021_Apr_28_1040,ComputerHuman,2020.1.3,60.02849825737297,
Computer.xlsx,c,Sychronize.jpg,Number10.jpg,10,Computer,,,,,0,1,1,1,0,4,4,9,,,,,,,,,,,,,,,,,,,,,,,,,,,,,557.0781860873913,None,557.0781860873913,None,557.5280552116146,None,557.5280552116146,None,v,9.827463062877541,557.5280552116146,None,t,10.358351029363803,557.5280552116146,None,9.827463062877541,10.358351029363803,9.487131048200016,False,False,False,567.9597592270629,None,567.9597592270629,None,567.9597592270629,None,567.9597592270629,None,567.9597592270629,None,567.9597592270629,None,567.9597592270629,None,567.9597592270629,None,568.9746902927382,None,568.9746902927382,None,569.9577742777774,None,569.9577742777774,None,c,,,,,,,,,,,,,,,,,,,,,,,,,,,,,,,,,,,,,,,,,,,,,,,11_12Exp,001,2021_Apr_28_1040,ComputerHuman,2020.1.3,60.02849825737297,
Computer.xlsx,c,Sychronize.jpg,Number8.jpg,8,Computer,,,,,0,1,1,1,0,5,5,4,,,,,,,,,,,,,,,,,,,,,,,,,,,,,571.007847414241,None,571.007847414241,None,571.4578708307399,None,571.4578708307399,None,v,7.605012413952863,571.4578708307399,None,t,6.823743047224525,571.4578708307399,None,7.605012413952863,6.823743047224525,8.029681962336069,False,False,False,579.155431665522,None,579.155431665522,None,579.155431665522,None,579.155431665522,None,579.155431665522,None,579.155431665522,None,579.155431665522,None,579.155431665522,None,580.1383305639847,None,580.1383305639847,None,581.1216345999628,None,581.1216345999628,None,c,,,,,,,,,,,,,,,,,,,,,,,,,,,,,,,,,,,,,,,,,,,,,,,11_12Exp,001,2021_Apr_28_1040,ComputerHuman,2020.1.3,60.02849825737297,
Computer.xlsx,c,Sychronize.jpg,Number8.jpg,8,Computer,,,,,0,1,1,1,0,6,6,5,,,,,,,,,,,,,,,,,,,,,,,,,,,,,582.1712095744606,None,582.1712095744606,None,582.6218129502859,None,582.6218129502859,None,v,6.919754543763702,582.6218129502859,None,t,7.574677461780084,582.6218129502859,None,6.919754543763702,7.574677461780084,7.853523813084488,False,False,True,590.2708531945873,None,590.2708531945873,None,590.2708531945873,None,590.2708531945873,None,590.2708531945873,None,590.2708531945873,None,590.2708531945873,None,590.2708531945873,None,591.2855860219533,None,591.2855860219533,None,592.2687113868342,None,592.2687113868342,None,c,,,,,,,,,,,,,,,,,,,,,,,,,,,,,,,,,,,,,,,,,,,,,,,11_12Exp,001,2021_Apr_28_1040,ComputerHuman,2020.1.3,60.02849825737297,
Computer.xlsx,c,Sychronize.jpg,Number6.jpg,6,Computer,,,,,0,1,1,1,0,7,7,0,,,,,,,,,,,,,,,,,,,,,,,,,,,,,593.3188656791099,None,593.3188656791099,None,593.752058085749,None,593.752058085749,None,v,5.448626445888294,593.752058085749,None,t,6.135791317290568,593.752058085749,None,5.448626445888294,6.135791317290568,6.149206407609171,False,False,True,599.9833335471822,None,599.9833335471822,None,599.9833335471822,None,599.9833335471822,None,599.9833335471822,None,599.9833335471822,None,599.9833335471822,None,599.9833335471822,None,600.9831619331117,None,600.9831619331117,None,601.9661596299547,None,601.9661596299547,None,c,,,,,,,,,,,,,,,,,,,,,,,,,,,,,,,,,,,,,,,,,,,,,,,11_12Exp,001,2021_Apr_28_1040,ComputerHuman,2020.1.3,60.02849825737297,
Computer.xlsx,c,Sychronize.jpg,Number7.jpg,7,Computer,,,,,0,1,1,1,0,8,8,3,,,,,,,,,,,,,,,,,,,,,,,,,,,,,603.016072379437,None,603.016072379437,None,603.4661804802627,None,603.4661804802627,None,v,6.689598583462612,603.4661804802627,None,t,6.4527118230871565,603.4661804802627,None,6.689598583462612,6.4527118230871565,7.175464445021996,False,False,False,610.2313505225402,None,610.2313505225402,None,610.2313505225402,None,610.2313505225402,None,610.2313505225402,None,610.2313505225402,None,610.2313505225402,None,610.2313505225402,None,611.2305226049411,None,611.2305226049411,None,612.2135530207279,None,612.2135530207279,None,c,,,,,,,,,,,,,,,,,,,,,,,,,,,,,,,,,,,,,,,,,,,,,,,11_12Exp,001,2021_Apr_28_1040,ComputerHuman,2020.1.3,60.02849825737297,
Computer.xlsx,c,Sychronize.jpg,Number7.jpg,7,Computer,,,,,0,1,1,1,0,9,9,2,,,,,,,,,,,,,,,,,,,,,,,,,,,,,613.2631405054108,None,613.2631405054108,None,613.7137150115796,None,613.7137150115796,None,v,7.177126891764601,613.7137150115796,None,t,7.400685493959827,613.7137150115796,None,7.177126891764601,7.400685493959827,7.323662700569408,False,True,True,621.1962966645924,None,621.1962966645924,None,621.1962966645924,None,621.1962966645924,None,621.1962966645924,None,621.1962966645924,None,621.1962966645924,None,621.1962966645924,None,622.2111523483854,None,622.2111523483854,None,623.1941404220097,None,623.1941404220097,None,c,,,,,,,,,,,,,,,,,,,,,,,,,,,,,,,,,,,,,,,,,,,,,,,11_12Exp,001,2021_Apr_28_1040,ComputerHuman,2020.1.3,60.02849825737297,
Computer.xlsx,c,,,,,,,,,0,1,1,1,,,,,,,,,,,,,,,,,,,,,,,,,,,,,,,,,,,,,,,,,,,,,,,,,,,,,,,,,,,,,,,,,,,,,,,,,,,,,,,c,624.194509953616,None,624.194509953616,None,a,0,3.2038101531379652,624.194509953616,None,l,1,5.506904659562679,624.194509953616,None,c,c,629.7923351061436,None,629.7923351061436,None,631.7752789129609,None,None,None,None,None,None,None,None,,,,,,,,,,,,,,,,,,11_12Exp,001,2021_Apr_28_1040,ComputerHuman,2020.1.3,60.02849825737297,
Human.xlsx,h,Sychronize.jpg,Number10.jpg,10,Human,,,,,0,2,2,8,0,0,0,9,,,,,,,,,,,,,,,,,,,,,,,,,636.7934517203103,None,636.7934517203103,None,639.857066971188,None,639.857066971188,None,640.3069357746372,None,640.3069357746372,None,v,10.141357707877432,640.3069357746372,None,t,8.41252173243629,640.3069357746372,None,10.141357707877432,8.41252173243629,10.526166013120903,False,False,False,650.5386988124947,None,650.5386988124947,None,650.5386988124947,None,650.5386988124947,None,650.5386988124947,None,650.5386988124947,None,650.5386988124947,None,650.5386988124947,None,651.5394362718362,None,651.5394362718362,None,652.5366452175804,None,652.5366452175804,None,h,,,,,,,,,,,,,,,,,,,,,,,,,,,,,,,,,,,,,,,,,,,,,,,11_12Exp,001,2021_Apr_28_1040,ComputerHuman,2020.1.3,60.02849825737297,
Human.xlsx,h,Sychronize.jpg,Number8.jpg,8,Human,,,,,0,2,2,8,0,1,1,4,,,,,,,,,,,,,,,,,,,,,,,,,,,,,653.6036000461909,None,653.6036000461909,None,654.0367353550646,None,654.0367353550646,None,v,6.250647321858196,654.0367353550646,None,t,7.781666805668465,654.0367353550646,None,6.250647321858196,7.781666805668465,7.777554969426479,False,False,False,661.8855876258231,None,661.8855876258231,None,661.8855876258231,None,661.8855876258231,None,661.8855876258231,None,661.8855876258231,None,661.8855876258231,None,661.8855876258231,None,662.8692005671282,None,662.8692005671282,None,663.8669978123216,None,663.8669978123216,None,h,,,,,,,,,,,,,,,,,,,,,,,,,,,,,,,,,,,,,,,,,,,,,,,11_12Exp,001,2021_Apr_28_1040,ComputerHuman,2020.1.3,60.02849825737297,
Human.xlsx,h,Sychronize.jpg,Number6.jpg,6,Human,,,,,0,2,2,8,0,2,2,1,,,,,,,,,,,,,,,,,,,,,,,,,,,,,664.9166160913046,None,664.9166160913046,None,665.3672810557309,None,665.3672810557309,None,v,4.803267403591235,665.3672810557309,None,t,4.550901695611174,665.3672810557309,None,4.803267403591235,4.550901695611174,5.802757869412957,True,False,False,670.2652537642825,None,670.2652537642825,None,670.2652537642825,None,670.2652537642825,None,670.2652537642825,None,670.2652537642825,None,670.2652537642825,None,670.2652537642825,None,671.250745478691,None,671.250745478691,None,672.2482084774138,None,672.2482084774138,None,h,,,,,,,,,,,,,,,,,,,,,,,,,,,,,,,,,,,,,,,,,,,,,,,11_12Exp,001,2021_Apr_28_1040,ComputerHuman,2020.1.3,60.02849825737297,
Human.xlsx,h,Sychronize.jpg,Number9.jpg,9,Human,,,,,0,2,2,8,0,3,3,6,,,,,,,,,,,,,,,,,,,,,,,,,,,,,673.2986392768471,None,673.2986392768471,None,673.7480426372749,None,673.7480426372749,None,v,7.23352761543083,673.7480426372749,None,t,7.552668518601422,673.7480426372749,None,7.23352761543083,7.552668518601422,8.515532456236064,False,False,False,681.3810060113037,None,681.3810060113037,None,681.3810060113037,None,681.3810060113037,None,681.3810060113037,None,681.3810060113037,None,681.3810060113037,None,681.3810060113037,None,682.3647244872427,None,682.3647244872427,None,683.3620671957297,None,683.3620671957297,None,h,,,,,,,,,,,,,,,,,,,,,,,,,,,,,,,,,,,,,,,,,,,,,,,11_12Exp,001,2021_Apr_28_1040,ComputerHuman,2020.1.3,60.02849825737297,
Human.xlsx,h,Sychronize.jpg,Number10.jpg,10,Human,,,,,0,2,2,8,0,4,4,8,,,,,,,,,,,,,,,,,,,,,,,,,,,,,684.4290406292303,None,684.4290406292303,None,684.878864524324,None,684.878864524324,None,v,9.633533068587894,684.878864524324,None,t,8.68851693365741,684.878864524324,None,9.633533068587894,8.68851693365741,9.744070022924562,False,False,False,694.6091475111143,None,694.6091475111143,None,694.6091475111143,None,694.6091475111143,None,694.6091475111143,None,694.6091475111143,None,694.6091475111143,None,694.6091475111143,None,695.5769905628295,None,695.5769905628295,None,696.5753783528899,None,696.5753783528899,None,h,,,,,,,,,,,,,,,,,,,,,,,,,,,,,,,,,,,,,,,,,,,,,,,11_12Exp,001,2021_Apr_28_1040,ComputerHuman,2020.1.3,60.02849825737297,
Human.xlsx,h,Sychronize.jpg,Number7.jpg,7,Human,,,,,0,2,2,8,0,5,5,2,,,,,,,,,,,,,,,,,,,,,,,,,,,,,697.6435046480146,None,697.6435046480146,None,698.0754819628801,None,698.0754819628801,None,v,5.508143488609676,698.0754819628801,None,t,6.2078053928516965,698.0754819628801,None,5.508143488609676,6.2078053928516965,7.45220863672085,False,False,False,704.3581021087675,None,704.3581021087675,None,704.3581021087675,None,704.3581021087675,None,704.3581021087675,None,704.3581021087675,None,704.3581021087675,None,704.3581021087675,None,705.3588299448911,None,705.3588299448911,None,706.35616880409,None,706.35616880409,None,h,,,,,,,,,,,,,,,,,,,,,,,,,,,,,,,,,,,,,,,,,,,,,,,11_12Exp,001,2021_Apr_28_1040,ComputerHuman,2020.1.3,60.02849825737297,
Human.xlsx,h,Sychronize.jpg,Number7.jpg,7,Human,,,,,0,2,2,8,0,6,6,3,,,,,,,,,,,,,,,,,,,,,,,,,,,,,707.3897188736983,None,707.3897188736983,None,707.8560831574423,None,707.8560831574423,None,v,5.402704445285963,707.8560831574423,None,t,5.481827834198157,707.8560831574423,None,5.402704445285963,5.481827834198157,7.349523734429753,True,False,False,713.4210312241376,None,713.4210312241376,None,713.4210312241376,None,713.4210312241376,None,713.4210312241376,None,713.4210312241376,None,713.4210312241376,None,713.4210312241376,None,714.3893461343523,None,714.3893461343523,None,715.3872158744616,None,715.3872158744616,None,h,,,,,,,,,,,,,,,,,,,,,,,,,,,,,,,,,,,,,,,,,,,,,,,11_12Exp,001,2021_Apr_28_1040,ComputerHuman,2020.1.3,60.02849825737297,
Human.xlsx,h,Sychronize.jpg,Number9.jpg,9,Human,,,,,0,2,2,8,0,7,7,7,,,,,,,,,,,,,,,,,,,,,,,,,,,,,716.4540751124314,None,716.4540751124314,None,716.9036465584159,None,716.9036465584159,None,v,7.106248356033575,716.9036465584159,None,t,6.973721555368684,716.9036465584159,None,7.106248356033575,6.973721555368684,9.265943110913618,True,False,False,724.1015916804063,None,724.1015916804063,None,724.1015916804063,None,724.1015916804063,None,724.1015916804063,None,724.1015916804063,None,724.1015916804063,None,724.1015916804063,None,725.087098471191,None,725.087098471191,None,726.067885393878,None,726.067885393878,None,h,,,,,,,,,,,,,,,,,,,,,,,,,,,,,,,,,,,,,,,,,,,,,,,11_12Exp,001,2021_Apr_28_1040,ComputerHuman,2020.1.3,60.02849825737297,
Human.xlsx,h,Sychronize.jpg,Number6.jpg,6,Human,,,,,0,2,2,8,0,8,8,0,,,,,,,,,,,,,,,,,,,,,,,,,,,,,727.1342506399442,None,727.1342506399442,None,727.5677667075115,None,727.5677667075115,None,v,4.853325142904396,727.5677667075115,None,t,4.724923495409712,727.5677667075115,None,4.853325142904396,4.724923495409712,6.163703223558806,True,False,False,732.5161573845371,None,732.5161573845371,None,732.5161573845371,None,732.5161573845371,None,732.5161573845371,None,732.5161573845371,None,732.5161573845371,None,732.5161573845371,None,733.4849162459177,None,733.4849162459177,None,734.498954276879,None,734.498954276879,None,h,,,,,,,,,,,,,,,,,,,,,,,,,,,,,,,,,,,,,,,,,,,,,,,11_12Exp,001,2021_Apr_28_1040,ComputerHuman,2020.1.3,60.02849825737297,
Human.xlsx,h,Sychronize.jpg,Number8.jpg,8,Human,,,,,0,2,2,8,0,9,9,5,,,,,,,,,,,,,,,,,,,,,,,,,,,,,735.5493103359786,None,735.5493103359786,None,735.9988108909174,None,735.9988108909174,None,v,5.845430574890997,735.9988108909174,None,t,6.596737408018271,735.9988108909174,None,5.845430574890997,6.596737408018271,8.582499151832762,False,False,False,742.6801036741444,None,742.6801036741444,None,742.6801036741444,None,742.6801036741444,None,742.6801036741444,None,742.6801036741444,None,742.6801036741444,None,742.6801036741444,None,743.649077774855,None,743.649077774855,None,744.6464018784518,None,744.6464018784518,None,h,,,,,,,,,,,,,,,,,,,,,,,,,,,,,,,,,,,,,,,,,,,,,,,11_12Exp,001,2021_Apr_28_1040,ComputerHuman,2020.1.3,60.02849825737297,
Human.xlsx,h,,,,,,,,,0,2,2,8,,,,,,,,,,,,,,,,,,,,,,,,,,,,,,,,,,,,,,,,,,,,,,,,,,,,,,,,,,,,,,,,,,,,,,,,,,,,,,,h,745.6467332379561,None,745.6467332379561,None,q,1,3.9369425750455775,745.6467332379561,None,o,0,1.8362307776205853,745.6467332379561,None,h,h,749.6788645243241,None,749.6788645243241,None,751.6779121464269,None,None,None,None,None,None,None,None,,,,,,,,,,,,,,,,,,11_12Exp,001,2021_Apr_28_1040,ComputerHuman,2020.1.3,60.02849825737297,
Human.xlsx,h,Sychronize.jpg,Number7.jpg,7,Human,,,,,0,3,3,4,0,0,0,2,,,,,,,,,,,,,,,,,,,,,,,,,756.6798217138312,None,756.6798217138312,None,759.7594243390449,None,759.7594243390449,None,760.192547779282,None,760.192547779282,None,v,6.473582660242755,760.192547779282,None,t,6.1327965715681785,760.192547779282,None,6.473582660242755,6.1327965715681785,6.512022671656481,False,False,False,766.7573604793643,None,766.7573604793643,None,766.7573604793643,None,766.7573604793643,None,766.7573604793643,None,766.7573604793643,None,766.7573604793643,None,766.7573604793643,None,767.7591754184496,None,767.7591754184496,None,768.7568838092548,None,768.7568838092548,None,h,,,,,,,,,,,,,,,,,,,,,,,,,,,,,,,,,,,,,,,,,,,,,,,11_12Exp,001,2021_Apr_28_1040,ComputerHuman,2020.1.3,60.02849825737297,
Human.xlsx,h,Sychronize.jpg,Number10.jpg,10,Human,,,,,0,3,3,4,0,1,1,8,,,,,,,,,,,,,,,,,,,,,,,,,,,,,769.8064684069723,None,769.8064684069723,None,770.2565562990376,None,770.2565562990376,None,v,7.640554169099232,770.2565562990376,None,t,9.583483348624213,770.2565562990376,None,7.640554169099232,9.583483348624213,10.499511253277204,False,False,False,779.9374157166412,None,779.9374157166412,None,779.9374157166412,None,779.9374157166412,None,779.9374157166412,None,779.9374157166412,None,779.9374157166412,None,779.9374157166412,None,780.9058913346116,None,780.9058913346116,None,781.903464679579,None,781.903464679579,None,h,,,,,,,,,,,,,,,,,,,,,,,,,,,,,,,,,,,,,,,,,,,,,,,11_12Exp,001,2021_Apr_28_1040,ComputerHuman,2020.1.3,60.02849825737297,
Human.xlsx,h,Sychronize.jpg,Number6.jpg,6,Human,,,,,0,3,3,4,0,2,2,0,,,,,,,,,,,,,,,,,,,,,,,,,,,,,782.9708188717732,None,782.9708188717732,None,783.4031746999153,None,783.4031746999153,None,v,5.304950825350716,783.4031746999153,None,t,5.363910683697213,783.4031746999153,None,5.304950825350716,5.363910683697213,6.300869697997417,True,False,False,788.8357980535429,None,788.8357980535429,None,788.8357980535429,None,788.8357980535429,None,788.8357980535429,None,788.8357980535429,None,788.8357980535429,None,788.8357980535429,None,789.837485966139,None,789.837485966139,None,790.8346301155425,None,790.8346301155425,None,h,,,,,,,,,,,,,,,,,,,,,,,,,,,,,,,,,,,,,,,,,,,,,,,11_12Exp,001,2021_Apr_28_1040,ComputerHuman,2020.1.3,60.02849825737297,
Human.xlsx,h,Sychronize.jpg,Number7.jpg,7,Human,,,,,0,3,3,4,0,3,3,3,,,,,,,,,,,,,,,,,,,,,,,,,,,,,791.8682462645866,None,791.8682462645866,None,792.3347571420318,None,792.3347571420318,None,v,5.6326102018947495,792.3347571420318,None,t,6.859688336017825,792.3347571420318,None,5.6326102018947495,6.859688336017825,6.65293199999657,False,False,False,799.2824077935238,None,799.2824077935238,None,799.2824077935238,None,799.2824077935238,None,799.2824077935238,None,799.2824077935238,None,799.2824077935238,None,799.2824077935238,None,800.2511608809737,None,800.2511608809737,None,801.2651838355578,None,801.2651838355578,None,h,,,,,,,,,,,,,,,,,,,,,,,,,,,,,,,,,,,,,,,,,,,,,,,11_12Exp,001,2021_Apr_28_1040,ComputerHuman,2020.1.3,60.02849825737297,
Human.xlsx,h,Sychronize.jpg,Number10.jpg,10,Human,,,,,0,3,3,4,0,4,4,9,,,,,,,,,,,,,,,,,,,,,,,,,,,,,802.3146837489494,None,802.3146837489494,None,802.7652178375984,None,802.7652178375984,None,v,7.6490091292271245,802.7652178375984,None,t,9.256532561764288,802.7652178375984,None,7.6490091292271245,9.256532561764288,9.81619122704063,False,False,False,812.1124008006518,None,812.1124008006518,None,812.1124008006518,None,812.1124008006518,None,812.1124008006518,None,812.1124008006518,None,812.1124008006518,None,812.1124008006518,None,813.0810339186382,None,813.0810339186382,None,814.0786146414066,None,814.0786146414066,None,h,,,,,,,,,,,,,,,,,,,,,,,,,,,,,,,,,,,,,,,,,,,,,,,11_12Exp,001,2021_Apr_28_1040,ComputerHuman,2020.1.3,60.02849825737297,
Human.xlsx,h,Sychronize.jpg,Number8.jpg,8,Human,,,,,0,3,3,4,0,5,5,5,,,,,,,,,,,,,,,,,,,,,,,,,,,,,815.1297905987567,None,815.1297905987567,None,815.5786123959888,None,815.5786123959888,None,v,6.334524580909601,815.5786123959888,None,t,7.6856902734925825,815.5786123959888,None,6.334524580909601,7.6856902734925825,8.003374704528982,False,False,False,823.3595658003624,None,823.3595658003624,None,823.3595658003624,None,823.3595658003624,None,823.3595658003624,None,823.3595658003624,None,823.3595658003624,None,823.3595658003624,None,824.3453972143989,None,824.3453972143989,None,825.3423569187735,None,825.3423569187735,None,h,,,,,,,,,,,,,,,,,,,,,,,,,,,,,,,,,,,,,,,,,,,,,,,11_12Exp,001,2021_Apr_28_1040,ComputerHuman,2020.1.3,60.02849825737297,
Human.xlsx,h,Sychronize.jpg,Number9.jpg,9,Human,,,,,0,3,3,4,0,6,6,7,,,,,,,,,,,,,,,,,,,,,,,,,,,,,826.392557723274,None,826.392557723274,None,826.8260077114055,None,826.8260077114055,None,v,7.418169920384571,826.8260077114055,None,t,6.917683306281106,826.8260077114055,None,7.418169920384571,6.917683306281106,8.549902582474733,False,False,False,834.3400823105985,None,834.3400823105985,None,834.3400823105985,None,834.3400823105985,None,834.3400823105985,None,834.3400823105985,None,834.3400823105985,None,834.3400823105985,None,835.3251852469639,None,835.3251852469639,None,836.3229135257543,None,836.3229135257543,None,h,,,,,,,,,,,,,,,,,,,,,,,,,,,,,,,,,,,,,,,,,,,,,,,11_12Exp,001,2021_Apr_28_1040,ComputerHuman,2020.1.3,60.02849825737297,
Human.xlsx,h,Sychronize.jpg,Number6.jpg,6,Human,,,,,0,3,3,4,0,7,7,1,,,,,,,,,,,,,,,,,,,,,,,,,,,,,837.3730893098864,None,837.3730893098864,None,837.8228346153601,None,837.8228346153601,None,v,5.1083965792659,837.8228346153601,None,t,4.539919678200022,837.8228346153601,None,5.1083965792659,4.539919678200022,6.20748868171848,False,False,False,842.9880935120254,None,842.9880935120254,None,842.9880935120254,None,842.9880935120254,None,842.9880935120254,None,842.9880935120254,None,842.9880935120254,None,842.9880935120254,None,843.9889416383849,None,843.9889416383849,None,844.9872967095007,None,844.9872967095007,None,h,,,,,,,,,,,,,,,,,,,,,,,,,,,,,,,,,,,,,,,,,,,,,,,11_12Exp,001,2021_Apr_28_1040,ComputerHuman,2020.1.3,60.02849825737297,
Human.xlsx,h,Sychronize.jpg,Number8.jpg,8,Human,,,,,0,3,3,4,0,8,8,4,,,,,,,,,,,,,,,,,,,,,,,,,,,,,846.0537864158641,None,846.0537864158641,None,846.4875337614594,None,846.4875337614594,None,v,6.327058566910637,846.4875337614594,None,t,6.286748186023033,846.4875337614594,None,6.327058566910637,6.286748186023033,7.924444089840488,True,False,False,852.9019365124168,None,852.9019365124168,None,852.9019365124168,None,852.9019365124168,None,852.9019365124168,None,852.9019365124168,None,852.9019365124168,None,852.9019365124168,None,853.8878664040594,None,853.8878664040594,None,854.8848344485568,None,854.8848344485568,None,h,,,,,,,,,,,,,,,,,,,,,,,,,,,,,,,,,,,,,,,,,,,,,,,11_12Exp,001,2021_Apr_28_1040,ComputerHuman,2020.1.3,60.02849825737297,
Human.xlsx,h,Sychronize.jpg,Number9.jpg,9,Human,,,,,0,3,3,4,0,9,9,6,,,,,,,,,,,,,,,,,,,,,,,,,,,,,855.9350166481681,None,855.9350166481681,None,856.3846031705298,None,856.3846031705298,None,v,7.1930286194537985,856.3846031705298,None,t,7.8285796770442175,856.3846031705298,None,7.1930286194537985,7.8285796770442175,9.140835292419697,False,False,False,864.2666112796951,None,864.2666112796951,None,864.2666112796951,None,864.2666112796951,None,864.2666112796951,None,864.2666112796951,None,864.2666112796951,None,864.2666112796951,None,865.2674331025892,None,865.2674331025892,None,866.2650879241428,None,866.2650879241428,None,h,,,,,,,,,,,,,,,,,,,,,,,,,,,,,,,,,,,,,,,,,,,,,,,11_12Exp,001,2021_Apr_28_1040,ComputerHuman,2020.1.3,60.02849825737297,
Human.xlsx,h,,,,,,,,,0,3,3,4,,,,,,,,,,,,,,,,,,,,,,,,,,,,,,,,,,,,,,,,,,,,,,,,,,,,,,,,,,,,,,,,,,,,,,,,,,,,,,,h,867.2831147793395,None,867.2831147793395,None,q,1,4.56578368287046,867.2831147793395,None,l,0,3.5809482719905645,867.2831147793395,None,h,c,871.9642317784346,None,871.9642317784346,None,873.9465638693036,None,None,None,None,None,None,None,None,,,,,,,,,,,,,,,,,,11_12Exp,001,2021_Apr_28_1040,ComputerHuman,2020.1.3,60.02849825737297,
Human.xlsx,h,Sychronize.jpg,Number9.jpg,9,Human,,,,,0,4,4,0,0,0,0,7,,,,,,,,,,,,,,,,,,,,,,,,,878.9312039288388,None,878.9312039288388,None,881.9949956053961,None,881.9949956053961,None,882.4447797245193,None,882.4447797245193,None,v,6.790612229186991,882.4447797245193,None,t,7.438099606731157,882.4447797245193,None,6.790612229186991,7.438099606731157,8.896861253183104,False,False,False,889.9760539028566,None,889.9760539028566,None,889.9760539028566,None,889.9760539028566,None,889.9760539028566,None,889.9760539028566,None,889.9760539028566,None,889.9760539028566,None,890.97721317996,None,890.97721317996,None,891.9754328844638,None,891.9754328844638,None,h,,,,,,,,,,,,,,,,,,,,,,,,,,,,,,,,,,,,,,,,,,,,,,,11_12Exp,001,2021_Apr_28_1040,ComputerHuman,2020.1.3,60.02849825737297,
Human.xlsx,h,Sychronize.jpg,Number6.jpg,6,Human,,,,,0,4,4,0,0,1,1,1,,,,,,,,,,,,,,,,,,,,,,,,,,,,,893.0255955168632,None,893.0255955168632,None,893.4584155049297,None,893.4584155049297,None,v,4.812209619369241,893.4584155049297,None,t,4.339938924637863,893.4584155049297,None,4.812209619369241,4.339938924637863,6.417181716369727,False,False,False,898.3237539535385,None,898.3237539535385,None,898.3237539535385,None,898.3237539535385,None,898.3237539535385,None,898.3237539535385,None,898.3237539535385,None,898.3237539535385,None,899.3259191777915,None,899.3259191777915,None,900.3398641843032,None,900.3398641843032,None,h,,,,,,,,,,,,,,,,,,,,,,,,,,,,,,,,,,,,,,,,,,,,,,,11_12Exp,001,2021_Apr_28_1040,ComputerHuman,2020.1.3,60.02849825737297,
Human.xlsx,h,Sychronize.jpg,Number7.jpg,7,Human,,,,,0,4,4,0,0,2,2,3,,,,,,,,,,,,,,,,,,,,,,,,,,,,,901.3899607372668,None,901.3899607372668,None,901.8399799837043,None,901.8399799837043,None,v,5.26184971098246,901.8399799837043,None,t,5.524842339596944,901.8399799837043,None,5.26184971098246,5.524842339596944,6.869402538004023,True,False,False,907.4391854265969,None,907.4391854265969,None,907.4391854265969,None,907.4391854265969,None,907.4391854265969,None,907.4391854265969,None,907.4391854265969,None,907.4391854265969,None,908.4399847953136,None,908.4399847953136,None,909.4208512699443,None,909.4208512699443,None,h,,,,,,,,,,,,,,,,,,,,,,,,,,,,,,,,,,,,,,,,,,,,,,,11_12Exp,001,2021_Apr_28_1040,ComputerHuman,2020.1.3,60.02849825737297,
Human.xlsx,h,Sychronize.jpg,Number8.jpg,8,Human,,,,,0,4,4,0,0,3,3,5,,,,,,,,,,,,,,,,,,,,,,,,,,,,,910.4872553296591,None,910.4872553296591,None,910.9207771711581,None,910.9207771711581,None,v,6.176166815292163,910.9207771711581,None,t,6.472209106131231,910.9207771711581,None,6.176166815292163,6.472209106131231,7.795135455065977,True,False,False,917.4703146151032,None,917.4703146151032,None,917.4703146151032,None,917.4703146151032,None,917.4703146151032,None,917.4703146151032,None,917.4703146151032,None,917.4703146151032,None,918.4705478177748,None,918.4705478177748,None,919.4682655110246,None,919.4682655110246,None,h,,,,,,,,,,,,,,,,,,,,,,,,,,,,,,,,,,,,,,,,,,,,,,,11_12Exp,001,2021_Apr_28_1040,ComputerHuman,2020.1.3,60.02849825737297,
Human.xlsx,h,Sychronize.jpg,Number8.jpg,8,Human,,,,,0,4,4,0,0,4,4,4,,,,,,,,,,,,,,,,,,,,,,,,,,,,,920.5184284641982,None,920.5184284641982,None,920.9680518755649,None,920.9680518755649,None,v,5.792065335241205,920.9680518755649,None,t,6.435809280632384,920.9680518755649,None,5.792065335241205,6.435809280632384,8.037794050475906,False,False,False,927.4995727290807,None,927.4995727290807,None,927.4995727290807,None,927.4995727290807,None,927.4995727290807,None,927.4995727290807,None,927.4995727290807,None,927.4995727290807,None,928.4681917330136,None,928.4681917330136,None,929.4656188050521,None,929.4656188050521,None,h,,,,,,,,,,,,,,,,,,,,,,,,,,,,,,,,,,,,,,,,,,,,,,,11_12Exp,001,2021_Apr_28_1040,ComputerHuman,2020.1.3,60.02849825737297,
Human.xlsx,h,Sychronize.jpg,Number10.jpg,10,Human,,,,,0,4,4,0,0,5,5,8,,,,,,,,,,,,,,,,,,,,,,,,,,,,,930.5324283230575,None,930.5324283230575,None,930.965520327446,None,930.965520327446,None,v,8.253482642920062,930.965520327446,None,t,6.964630500471685,930.965520327446,None,8.253482642920062,6.964630500471685,9.461068450991034,False,False,False,939.3132162080665,None,939.3132162080665,None,939.3132162080665,None,939.3132162080665,None,939.3132162080665,None,939.3132162080665,None,939.3132162080665,None,939.3132162080665,None,940.2980477696583,None,940.2980477696583,None,941.296039724647,None,941.296039724647,None,h,,,,,,,,,,,,,,,,,,,,,,,,,,,,,,,,,,,,,,,,,,,,,,,11_12Exp,001,2021_Apr_28_1040,ComputerHuman,2020.1.3,60.02849825737297,
Human.xlsx,h,Sychronize.jpg,Number10.jpg,10,Human,,,,,0,4,4,0,0,6,6,9,,,,,,,,,,,,,,,,,,,,,,,,,,,,,942.3463569700971,None,942.3463569700971,None,942.7795044683808,None,942.7795044683808,None,v,7.586526531214076,942.7795044683808,None,t,6.393738171459518,942.7795044683808,None,7.586526531214076,6.393738171459518,10.37469778790101,False,False,False,950.4603629236617,None,950.4603629236617,None,950.4603629236617,None,950.4603629236617,None,950.4603629236617,None,950.4603629236617,None,950.4603629236617,None,950.4603629236617,None,951.4459191136375,None,951.4459191136375,None,952.4431617406472,None,952.4431617406472,None,h,,,,,,,,,,,,,,,,,,,,,,,,,,,,,,,,,,,,,,,,,,,,,,,11_12Exp,001,2021_Apr_28_1040,ComputerHuman,2020.1.3,60.02849825737297,
Human.xlsx,h,Sychronize.jpg,Number9.jpg,9,Human,,,,,0,4,4,0,0,7,7,6,,,,,,,,,,,,,,,,,,,,,,,,,,,,,953.5097309989542,None,953.5097309989542,None,953.9432983903562,None,953.9432983903562,None,v,5.65394968981218,953.9432983903562,None,t,6.56878324020181,953.9432983903562,None,5.65394968981218,6.56878324020181,8.865839296803657,False,False,False,960.5916069492469,None,960.5916069492469,None,960.5916069492469,None,960.5916069492469,None,960.5916069492469,None,960.5916069492469,None,960.5916069492469,None,960.5916069492469,None,961.5763567134782,None,961.5763567134782,None,962.5739374362456,None,962.5739374362456,None,h,,,,,,,,,,,,,,,,,,,,,,,,,,,,,,,,,,,,,,,,,,,,,,,11_12Exp,001,2021_Apr_28_1040,ComputerHuman,2020.1.3,60.02849825737297,
Human.xlsx,h,Sychronize.jpg,Number6.jpg,6,Human,,,,,0,4,4,0,0,8,8,0,,,,,,,,,,,,,,,,,,,,,,,,,,,,,963.6075930404877,None,963.6075930404877,None,964.0738755268712,None,964.0738755268712,None,v,3.6866923713541837,964.0738755268712,None,t,2.934067157237223,964.0738755268712,None,3.6866923713541837,2.934067157237223,6.115781050327051,False,False,False,967.8558980708649,None,967.8558980708649,None,967.8558980708649,None,967.8558980708649,None,967.8558980708649,None,967.8558980708649,None,967.8558980708649,None,967.8558980708649,None,968.8417641284886,None,968.8417641284886,None,969.8387097188088,None,969.8387097188088,None,h,,,,,,,,,,,,,,,,,,,,,,,,,,,,,,,,,,,,,,,,,,,,,,,11_12Exp,001,2021_Apr_28_1040,ComputerHuman,2020.1.3,60.02849825737297,
Human.xlsx,h,Sychronize.jpg,Number7.jpg,7,Human,,,,,0,4,4,0,0,9,9,2,,,,,,,,,,,,,,,,,,,,,,,,,,,,,970.8889826974519,None,970.8889826974519,None,971.3388460477436,None,971.3388460477436,None,v,3.3730950838180433,971.3388460477436,None,t,4.143930315063699,971.3388460477436,None,3.3730950838180433,4.143930315063699,7.040768430970101,False,False,False,975.5550829842241,None,975.5550829842241,None,975.5550829842241,None,975.5550829842241,None,975.5550829842241,None,975.5550829842241,None,975.5550829842241,None,975.5550829842241,None,976.5557210036377,None,976.5557210036377,None,977.5366958998666,None,977.5366958998666,None,h,,,,,,,,,,,,,,,,,,,,,,,,,,,,,,,,,,,,,,,,,,,,,,,11_12Exp,001,2021_Apr_28_1040,ComputerHuman,2020.1.3,60.02849825737297,
Human.xlsx,h,,,,,,,,,0,4,4,0,,,,,,,,,,,,,,,,,,,,,,,,,,,,,,,,,,,,,,,,,,,,,,,,,,,,,,,,,,,,,,,,,,,,,,,,,,,,,,,h,978.5370442603908,None,978.5370442603908,None,q,0,3.2102657291516152,978.5370442603908,None,l,0,6.764697542229442,978.5370442603908,None,h,c,985.3684550884373,None,985.3684550884373,None,None,None,987.3842034861709,None,987.3842034861709,None,"['space', 'space']",988.367038871389,None,"[2.391487621332999, 5.091248644730513]",,,,,,,,,,,,,,,,,11_12Exp,001,2021_Apr_28_1040,ComputerHuman,2020.1.3,60.02849825737297,
Computer.xlsx,c,Sychronize.jpg,Number9.jpg,9,Computer,,,,,0,5,5,7,0,0,0,6,,,,,,,,,,,,,,,,,,,,,,,,,993.5192220589834,None,993.5192220589834,None,996.5997738543556,None,996.5997738543556,None,997.0156358060722,None,997.0156358060722,None,v,6.405738004656996,997.0156358060722,None,t,5.624801280529937,997.0156358060722,None,6.405738004656996,5.624801280529937,8.56256883633521,False,False,False,1003.5133974453556,None,1003.5133974453556,None,1003.5133974453556,None,1003.5133974453556,None,1003.5133974453556,None,1003.5133974453556,None,1003.5133974453556,None,1003.5133974453556,None,1004.5298088828722,None,1004.5298088828722,None,1005.5128733006995,None,1005.5128733006995,None,c,,,,,,,,,,,,,,,,,,,,,,,,,,,,,,,,,,,,,,,,,,,,,,,11_12Exp,001,2021_Apr_28_1040,ComputerHuman,2020.1.3,60.02849825737297,
Computer.xlsx,c,Sychronize.jpg,Number10.jpg,10,Computer,,,,,0,5,5,7,0,1,1,9,,,,,,,,,,,,,,,,,,,,,,,,,,,,,1006.562762954456,None,1006.562762954456,None,1007.0128643190283,None,1007.0128643190283,None,v,6.279693404245336,1007.0128643190283,None,t,8.887014107638606,1007.0128643190283,None,6.279693404245336,8.887014107638606,10.186778502766593,False,False,False,1015.9618330307367,None,1015.9618330307367,None,1015.9618330307367,None,1015.9618330307367,None,1015.9618330307367,None,1015.9618330307367,None,1015.9618330307367,None,1015.9618330307367,None,1016.9932884463633,None,1016.9932884463633,None,1017.9763689028887,None,1017.9763689028887,None,c,,,,,,,,,,,,,,,,,,,,,,,,,,,,,,,,,,,,,,,,,,,,,,,11_12Exp,001,2021_Apr_28_1040,ComputerHuman,2020.1.3,60.02849825737297,
Computer.xlsx,c,Sychronize.jpg,Number6.jpg,6,Computer,,,,,0,5,5,7,0,2,2,1,,,,,,,,,,,,,,,,,,,,,,,,,,,,,1019.0268410821627,None,1019.0268410821627,None,1019.4766332206345,None,1019.4766332206345,None,v,5.042943293578901,1019.4766332206345,None,t,5.0779079763660775,1019.4766332206345,None,5.042943293578901,5.0779079763660775,6.157057419733152,False,False,False,1024.6261953641742,None,1024.6261953641742,None,1024.6261953641742,None,1024.6261953641742,None,1024.6261953641742,None,1024.6261953641742,None,1024.6261953641742,None,1024.6261953641742,None,1025.6411334868772,None,1025.6411334868772,None,1026.6074817319222,None,1026.6074817319222,None,c,,,,,,,,,,,,,,,,,,,,,,,,,,,,,,,,,,,,,,,,,,,,,,,11_12Exp,001,2021_Apr_28_1040,ComputerHuman,2020.1.3,60.02849825737297,
Computer.xlsx,c,Sychronize.jpg,Number7.jpg,7,Computer,,,,,0,5,5,7,0,3,3,2,,,,,,,,,,,,,,,,,,,,,,,,,,,,,1027.6579333816626,None,1027.6579333816626,None,1028.107668422369,None,1028.107668422369,None,v,5.447046634119033,1028.107668422369,None,t,5.30693513308961,1028.107668422369,None,5.447046634119033,5.30693513308961,7.476540587265658,False,False,False,1033.6238841877675,None,1033.6238841877675,None,1033.6238841877675,None,1033.6238841877675,None,1033.6238841877675,None,1033.6238841877675,None,1033.6238841877675,None,1033.6238841877675,None,1034.638734418404,None,1034.638734418404,None,1035.6218665195383,None,1035.6218665195383,None,c,,,,,,,,,,,,,,,,,,,,,,,,,,,,,,,,,,,,,,,,,,,,,,,11_12Exp,001,2021_Apr_28_1040,ComputerHuman,2020.1.3,60.02849825737297,
Computer.xlsx,c,Sychronize.jpg,Number8.jpg,8,Computer,,,,,0,5,5,7,0,4,4,5,,,,,,,,,,,,,,,,,,,,,,,,,,,,,1036.6721680470637,None,1036.6721680470637,None,1037.1216580164619,None,1037.1216580164619,None,v,6.94419944441961,1037.1216580164619,None,t,7.535677442533597,1037.1216580164619,None,6.94419944441961,7.535677442533597,8.056266216740449,False,False,False,1044.7367478652486,None,1044.7367478652486,None,1044.7367478652486,None,1044.7367478652486,None,1044.7367478652486,None,1044.7367478652486,None,1044.7367478652486,None,1044.7367478652486,None,1045.7359125698486,None,1045.7359125698486,None,1046.7190318400235,None,1046.7190318400235,None,c,,,,,,,,,,,,,,,,,,,,,,,,,,,,,,,,,,,,,,,,,,,,,,,11_12Exp,001,2021_Apr_28_1040,ComputerHuman,2020.1.3,60.02849825737297,
Computer.xlsx,c,Sychronize.jpg,Number6.jpg,6,Computer,,,,,0,5,5,7,0,5,5,0,,,,,,,,,,,,,,,,,,,,,,,,,,,,,1047.7854387867046,None,1047.7854387867046,None,1048.218857659761,None,1048.218857659761,None,v,5.69822676153035,1048.218857659761,None,t,5.541816735419161,1048.218857659761,None,5.69822676153035,5.541816735419161,5.935866642630145,False,True,False,1053.985440711348,None,1053.985440711348,None,1053.985440711348,None,1053.985440711348,None,1053.985440711348,None,1053.985440711348,None,1053.985440711348,None,1053.985440711348,None,1055.0002691293548,None,1055.0002691293548,None,1055.9833066021693,None,1055.9833066021693,None,c,,,,,,,,,,,,,,,,,,,,,,,,,,,,,,,,,,,,,,,,,,,,,,,11_12Exp,001,2021_Apr_28_1040,ComputerHuman,2020.1.3,60.02849825737297,
Computer.xlsx,c,Sychronize.jpg,Number7.jpg,7,Computer,,,,,0,5,5,7,0,6,6,3,,,,,,,,,,,,,,,,,,,,,,,,,,,,,1057.0168877868518,None,1057.0168877868518,None,1057.4834807824318,None,1057.4834807824318,None,v,6.064895138992142,1057.4834807824318,None,t,6.415781116678772,1057.4834807824318,None,6.064895138992142,6.415781116678772,7.008615718010804,False,False,False,1063.9824324931187,None,1063.9824324931187,None,1063.9824324931187,None,1063.9824324931187,None,1063.9824324931187,None,1063.9824324931187,None,1063.9824324931187,None,1063.9824324931187,None,1064.9809117037585,None,1064.9809117037585,None,1065.9640848639592,None,1065.9640848639592,None,c,,,,,,,,,,,,,,,,,,,,,,,,,,,,,,,,,,,,,,,,,,,,,,,11_12Exp,001,2021_Apr_28_1040,ComputerHuman,2020.1.3,60.02849825737297,
Computer.xlsx,c,Sychronize.jpg,Number9.jpg,9,Computer,,,,,0,5,5,7,0,7,7,7,,,,,,,,,,,,,,,,,,,,,,,,,,,,,1067.0312462710026,None,1067.0312462710026,None,1067.4806021568838,None,1067.4806021568838,None,v,9.18242768150958,1067.4806021568838,None,t,9.117507201375702,1067.4806021568838,None,9.18242768150958,9.117507201375702,9.416321599686393,False,True,True,1076.7466485536297,None,1076.7466485536297,None,1076.7466485536297,None,1076.7466485536297,None,1076.7466485536297,None,1076.7466485536297,None,1076.7466485536297,None,1076.7466485536297,None,1077.7610779288261,None,1077.7610779288261,None,1078.7274964233702,None,1078.7274964233702,None,c,,,,,,,,,,,,,,,,,,,,,,,,,,,,,,,,,,,,,,,,,,,,,,,11_12Exp,001,2021_Apr_28_1040,ComputerHuman,2020.1.3,60.02849825737297,
Computer.xlsx,c,Sychronize.jpg,Number10.jpg,10,Computer,,,,,0,5,5,7,0,8,8,8,,,,,,,,,,,,,,,,,,,,,,,,,,,,,1079.7944124383312,None,1079.7944124383312,None,1080.2272173500214,None,1080.2272173500214,None,v,9.934627228577483,1080.2272173500214,None,t,10.9893660223388,1080.2272173500214,None,9.934627228577483,10.9893660223388,9.36636615992816,False,False,False,1091.2914927537158,None,1091.2914927537158,None,1091.2914927537158,None,1091.2914927537158,None,1091.2914927537158,None,1091.2914927537158,None,1091.2914927537158,None,1091.2914927537158,None,1092.3073380251872,None,1092.3073380251872,None,1093.2737924464145,None,1093.2737924464145,None,c,,,,,,,,,,,,,,,,,,,,,,,,,,,,,,,,,,,,,,,,,,,,,,,11_12Exp,001,2021_Apr_28_1040,ComputerHuman,2020.1.3,60.02849825737297,
Computer.xlsx,c,Sychronize.jpg,Number8.jpg,8,Computer,,,,,0,5,5,7,0,9,9,4,,,,,,,,,,,,,,,,,,,,,,,,,,,,,1094.3401323513372,None,1094.3401323513372,None,1094.773789238675,None,1094.773789238675,None,v,8.118913474430883,1094.773789238675,None,t,7.786614102506974,1094.773789238675,None,8.118913474430883,7.786614102506974,7.9442188914243115,False,True,True,1102.9879270303381,None,1102.9879270303381,None,1102.9879270303381,None,1102.9879270303381,None,1102.9879270303381,None,1102.9879270303381,None,1102.9879270303381,None,1102.9879270303381,None,1103.987512269604,None,1103.987512269604,None,1104.9707758880622,None,1104.9707758880622,None,c,,,,,,,,,,,,,,,,,,,,,,,,,,,,,,,,,,,,,,,,,,,,,,,11_12Exp,001,2021_Apr_28_1040,ComputerHuman,2020.1.3,60.02849825737297,
Computer.xlsx,c,,,,,,,,,0,5,5,7,,,,,,,,,,,,,,,,,,,,,,,,,,,,,,,,,,,,,,,,,,,,,,,,,,,,,,,,,,,,,,,,,,,,,,,,,,,,,,,c,1105.9711800632567,None,1105.9711800632567,None,a,0,2.4410273106950626,1105.9711800632567,None,o,0,2.9520734828993227,1105.9711800632567,None,c,h,1109.0031240176295,None,1109.0031240176295,None,1111.0025767772477,None,None,None,None,None,None,None,None,,,,,,,,,,,,,,,,,,11_12Exp,001,2021_Apr_28_1040,ComputerHuman,2020.1.3,60.02849825737297,
Computer.xlsx,c,Sychronize.jpg,Number8.jpg,8,Computer,,,,,0,6,6,5,0,0,0,5,,,,,,,,,,,,,,,,,,,,,,,,,1116.0045113650212,None,1116.0045113650212,None,1119.1009501324797,None,1119.1009501324797,None,1119.534065232593,None,1119.534065232593,None,v,6.840595228166421,1119.534065232593,None,t,7.91160496044904,1119.534065232593,None,6.840595228166421,7.91160496044904,8.126107982764523,False,False,True,1127.5316899013942,None,1127.5316899013942,None,1127.5316899013942,None,1127.5316899013942,None,1127.5316899013942,None,1127.5316899013942,None,1127.5316899013942,None,1127.5316899013942,None,1128.5480407126315,None,1128.5480407126315,None,1129.5145355513778,None,1129.5145355513778,None,c,,,,,,,,,,,,,,,,,,,,,,,,,,,,,,,,,,,,,,,,,,,,,,,11_12Exp,001,2021_Apr_28_1040,ComputerHuman,2020.1.3,60.02849825737297,
Computer.xlsx,c,Sychronize.jpg,Number10.jpg,10,Computer,,,,,0,6,6,5,0,1,1,8,,,,,,,,,,,,,,,,,,,,,,,,,,,,,1130.5650850371776,None,1130.5650850371776,None,1131.013861605281,None,1131.013861605281,None,v,7.131780038877878,1131.013861605281,None,t,10.77848440717753,1131.013861605281,None,7.131780038877878,10.77848440717753,10.623470330891182,False,False,True,1141.8630250267843,None,1141.8630250267843,None,1141.8630250267843,None,1141.8630250267843,None,1141.8630250267843,None,1141.8630250267843,None,1141.8630250267843,None,1141.8630250267843,None,1142.877703322576,None,1142.877703322576,None,1143.8441542152905,None,1143.8441542152905,None,c,,,,,,,,,,,,,,,,,,,,,,,,,,,,,,,,,,,,,,,,,,,,,,,11_12Exp,001,2021_Apr_28_1040,ComputerHuman,2020.1.3,60.02849825737297,
Computer.xlsx,c,Sychronize.jpg,Number8.jpg,8,Computer,,,,,0,6,6,5,0,2,2,4,,,,,,,,,,,,,,,,,,,,,,,,,,,,,1144.893669846606,None,1144.893669846606,None,1145.343951806919,None,1145.343951806919,None,v,8.732281408582821,1145.343951806919,None,t,8.651581736413391,1145.343951806919,None,8.732281408582821,8.651581736413391,7.764799346888405,False,False,False,1154.1598269103688,None,1154.1598269103688,None,1154.1598269103688,None,1154.1598269103688,None,1154.1598269103688,None,1154.1598269103688,None,1154.1598269103688,None,1154.1598269103688,None,1155.1745892489398,None,1155.1745892489398,None,1156.1577139722722,None,1156.1577139722722,None,c,,,,,,,,,,,,,,,,,,,,,,,,,,,,,,,,,,,,,,,,,,,,,,,11_12Exp,001,2021_Apr_28_1040,ComputerHuman,2020.1.3,60.02849825737297,
Computer.xlsx,c,Sychronize.jpg,Number7.jpg,7,Computer,,,,,0,6,6,5,0,3,3,3,,,,,,,,,,,,,,,,,,,,,,,,,,,,,1157.2075279233732,None,1157.2075279233732,None,1157.6576684223692,None,1157.6576684223692,None,v,6.5136842172796605,1157.6576684223692,None,t,6.89273158276319,1157.6576684223692,None,6.5136842172796605,6.89273158276319,6.509091463876049,False,True,False,1164.6236763262395,None,1164.6236763262395,None,1164.6236763262395,None,1164.6236763262395,None,1164.6236763262395,None,1164.6236763262395,None,1164.6236763262395,None,1164.6236763262395,None,1165.621872293469,None,1165.621872293469,None,1166.6050570015332,None,1166.6050570015332,None,c,,,,,,,,,,,,,,,,,,,,,,,,,,,,,,,,,,,,,,,,,,,,,,,11_12Exp,001,2021_Apr_28_1040,ComputerHuman,2020.1.3,60.02849825737297,
Computer.xlsx,c,Sychronize.jpg,Number6.jpg,6,Computer,,,,,0,6,6,5,0,4,4,0,,,,,,,,,,,,,,,,,,,,,,,,,,,,,1167.6720984391131,None,1167.6720984391131,None,1168.1217353229868,None,1168.1217353229868,None,v,6.828686494774956,1168.1217353229868,None,t,6.011824369839815,1168.1217353229868,None,6.828686494774956,6.011824369839815,5.715612405537582,False,False,True,1175.0206559186,None,1175.0206559186,None,1175.0206559186,None,1175.0206559186,None,1175.0206559186,None,1175.0206559186,None,1175.0206559186,None,1175.0206559186,None,1176.0358468111854,None,1176.0358468111854,None,1177.0022884014543,None,1177.0022884014543,None,c,,,,,,,,,,,,,,,,,,,,,,,,,,,,,,,,,,,,,,,,,,,,,,,11_12Exp,001,2021_Apr_28_1040,ComputerHuman,2020.1.3,60.02849825737297,
Computer.xlsx,c,Sychronize.jpg,Number9.jpg,9,Computer,,,,,0,6,6,5,0,5,5,7,,,,,,,,,,,,,,,,,,,,,,,,,,,,,1178.068757578285,None,1178.068757578285,None,1178.502315346468,None,1178.502315346468,None,v,10.202899475855702,1178.502315346468,None,t,9.706450764404508,1178.502315346468,None,10.202899475855702,9.706450764404508,9.654901053354266,False,False,True,1188.7992772962598,None,1188.7992772962598,None,1188.7992772962598,None,1188.7992772962598,None,1188.7992772962598,None,1188.7992772962598,None,1188.7992772962598,None,1188.7992772962598,None,1189.7990200355416,None,1189.7990200355416,None,1190.7820883026561,None,1190.7820883026561,None,c,,,,,,,,,,,,,,,,,,,,,,,,,,,,,,,,,,,,,,,,,,,,,,,11_12Exp,001,2021_Apr_28_1040,ComputerHuman,2020.1.3,60.02849825737297,
Computer.xlsx,c,Sychronize.jpg,Number10.jpg,10,Computer,,,,,0,6,6,5,0,6,6,9,,,,,,,,,,,,,,,,,,,,,,,,,,,,,1191.831600726232,None,1191.831600726232,None,1192.2820068260698,None,1192.2820068260698,None,v,10.930024442975991,1192.2820068260698,None,t,8.209599802403318,1192.2820068260698,None,10.930024442975991,8.209599802403318,9.27202279744735,False,False,False,1203.279705272882,None,1203.279705272882,None,1203.279705272882,None,1203.279705272882,None,1203.279705272882,None,1203.279705272882,None,1203.279705272882,None,1203.279705272882,None,1204.2948275198396,None,1204.2948275198396,None,1205.278419931611,None,1205.278419931611,None,c,,,,,,,,,,,,,,,,,,,,,,,,,,,,,,,,,,,,,,,,,,,,,,,11_12Exp,001,2021_Apr_28_1040,ComputerHuman,2020.1.3,60.02849825737297,
Computer.xlsx,c,Sychronize.jpg,Number6.jpg,6,Computer,,,,,0,6,6,5,0,7,7,1,,,,,,,,,,,,,,,,,,,,,,,,,,,,,1206.3281212910506,None,1206.3281212910506,None,1206.7784045344606,None,1206.7784045344606,None,v,4.632743964637484,1206.7784045344606,None,t,6.091755788365845,1206.7784045344606,None,4.632743964637484,6.091755788365845,5.939744588229024,False,False,True,1212.9445907886548,None,1212.9445907886548,None,1212.9445907886548,None,1212.9445907886548,None,1212.9445907886548,None,1212.9445907886548,None,1212.9445907886548,None,1212.9445907886548,None,1213.9427771326655,None,1213.9427771326655,None,1214.9258694578275,None,1214.9258694578275,None,c,,,,,,,,,,,,,,,,,,,,,,,,,,,,,,,,,,,,,,,,,,,,,,,11_12Exp,001,2021_Apr_28_1040,ComputerHuman,2020.1.3,60.02849825737297,
Computer.xlsx,c,Sychronize.jpg,Number9.jpg,9,Computer,,,,,0,6,6,5,0,8,8,6,,,,,,,,,,,,,,,,,,,,,,,,,,,,,1215.9929365573253,None,1215.9929365573253,None,1216.425676993449,None,1216.425676993449,None,v,8.012397272138514,1216.425676993449,None,t,8.855578259223876,1216.425676993449,None,8.012397272138514,8.855578259223876,8.713923632650754,False,False,True,1225.373258678539,None,1225.373258678539,None,1225.373258678539,None,1225.373258678539,None,1225.373258678539,None,1225.373258678539,None,1225.373258678539,None,1225.373258678539,None,1226.373032212121,None,1226.373032212121,None,1227.3394115722413,None,1227.3394115722413,None,c,,,,,,,,,,,,,,,,,,,,,,,,,,,,,,,,,,,,,,,,,,,,,,,11_12Exp,001,2021_Apr_28_1040,ComputerHuman,2020.1.3,60.02849825737297,
Computer.xlsx,c,Sychronize.jpg,Number7.jpg,7,Computer,,,,,0,6,6,5,0,9,9,2,,,,,,,,,,,,,,,,,,,,,,,,,,,,,1228.406211787801,None,1228.406211787801,None,1228.8395155030057,None,1228.8395155030057,None,v,5.197704220743617,1228.8395155030057,None,t,6.776748378487355,1228.8395155030057,None,5.197704220743617,6.776748378487355,6.608871484957975,False,False,True,1235.7038377396984,None,1235.7038377396984,None,1235.7038377396984,None,1235.7038377396984,None,1235.7038377396984,None,1235.7038377396984,None,1235.7038377396984,None,1235.7038377396984,None,1236.7036696541409,None,1236.7036696541409,None,1237.6867552430504,None,1237.6867552430504,None,c,,,,,,,,,,,,,,,,,,,,,,,,,,,,,,,,,,,,,,,,,,,,,,,11_12Exp,001,2021_Apr_28_1040,ComputerHuman,2020.1.3,60.02849825737297,
Computer.xlsx,c,,,,,,,,,0,6,6,5,,,,,,,,,,,,,,,,,,,,,,,,,,,,,,,,,,,,,,,,,,,,,,,,,,,,,,,,,,,,,,,,,,,,,,,,,,,,,,,c,1238.6876277482306,None,1238.6876277482306,None,a,1,7.776544687021669,1238.6876277482306,None,l,0,1.2122092985955533,1238.6876277482306,None,c,c,1246.5514575968891,None,1246.5514575968891,None,1248.5340341175188,None,None,None,None,None,None,None,None,,,,,,,,,,,,,,,,,,11_12Exp,001,2021_Apr_28_1040,ComputerHuman,2020.1.3,60.02849825737297,
Human.xlsx,h,Sychronize.jpg,Number7.jpg,7,Human,,,,,0,7,7,2,0,0,0,2,,,,,,,,,,,,,,,,,,,,,,,,,1253.5521337884047,None,1253.5521337884047,None,1256.615862914039,None,1256.615862914039,None,1257.0656309944634,None,1257.0656309944634,None,v,6.32097605101535,1257.0656309944634,None,t,7.324730710258336,1257.0656309944634,None,6.32097605101535,7.324730710258336,7.106326904839886,False,False,False,1264.46469112675,None,1264.46469112675,None,1264.46469112675,None,1264.46469112675,None,1264.46469112675,None,1264.46469112675,None,1264.46469112675,None,1264.46469112675,None,1265.4643790136843,None,1265.4643790136843,None,1266.4630590288243,None,1266.4630590288243,None,h,,,,,,,,,,,,,,,,,,,,,,,,,,,,,,,,,,,,,,,,,,,,,,,11_12Exp,001,2021_Apr_28_1040,ComputerHuman,2020.1.3,60.02849825737297,
Human.xlsx,h,Sychronize.jpg,Number6.jpg,6,Human,,,,,0,7,7,2,0,1,1,0,,,,,,,,,,,,,,,,,,,,,,,,,,,,,1267.5292298858685,None,1267.5292298858685,None,1267.9794544276428,None,1267.9794544276428,None,v,5.850288696567077,1267.9794544276428,None,t,4.757922475349005,1267.9794544276428,None,5.850288696567077,4.757922475349005,5.978471322657946,False,False,False,1273.9121749757815,None,1273.9121749757815,None,1273.9121749757815,None,1273.9121749757815,None,1273.9121749757815,None,1273.9121749757815,None,1273.9121749757815,None,1273.9121749757815,None,1274.9125733770434,None,1274.9125733770434,None,1275.893639052305,None,1275.893639052305,None,h,,,,,,,,,,,,,,,,,,,,,,,,,,,,,,,,,,,,,,,,,,,,,,,11_12Exp,001,2021_Apr_28_1040,ComputerHuman,2020.1.3,60.02849825737297,
Human.xlsx,h,Sychronize.jpg,Number10.jpg,10,Human,,,,,0,7,7,2,0,2,2,9,,,,,,,,,,,,,,,,,,,,,,,,,,,,,1276.9601784786328,None,1276.9601784786328,None,1277.3936794698247,None,1277.3936794698247,None,v,7.9030730145696,1277.3936794698247,None,t,9.706439537315418,1277.3936794698247,None,7.9030730145696,9.706439537315418,10.534682724622108,False,False,False,1287.1744365605327,None,1287.1744365605327,None,1287.1744365605327,None,1287.1744365605327,None,1287.1744365605327,None,1287.1744365605327,None,1287.1744365605327,None,1287.1744365605327,None,1288.1758069069047,None,1288.1758069069047,None,1289.1736009443584,None,1289.1736009443584,None,h,,,,,,,,,,,,,,,,,,,,,,,,,,,,,,,,,,,,,,,,,,,,,,,11_12Exp,001,2021_Apr_28_1040,ComputerHuman,2020.1.3,60.02849825737297,
Human.xlsx,h,Sychronize.jpg,Number7.jpg,7,Human,,,,,0,7,7,2,0,3,3,3,,,,,,,,,,,,,,,,,,,,,,,,,,,,,1290.2242059240534,None,1290.2242059240534,None,1290.6736878741021,None,1290.6736878741021,None,v,6.606002963952051,1290.6736878741021,None,t,6.1178106535444385,1290.6736878741021,None,6.606002963952051,6.1178106535444385,7.461887798746169,False,False,False,1297.3560202857452,None,1297.3560202857452,None,1297.3560202857452,None,1297.3560202857452,None,1297.3560202857452,None,1297.3560202857452,None,1297.3560202857452,None,1297.3560202857452,None,1298.339449423569,None,1298.339449423569,None,1299.3377547747205,None,1299.3377547747205,None,h,,,,,,,,,,,,,,,,,,,,,,,,,,,,,,,,,,,,,,,,,,,,,,,11_12Exp,001,2021_Apr_28_1040,ComputerHuman,2020.1.3,60.02849825737297,
Human.xlsx,h,Sychronize.jpg,Number9.jpg,9,Human,,,,,0,7,7,2,0,4,4,6,,,,,,,,,,,,,,,,,,,,,,,,,,,,,1300.4041094352451,None,1300.4041094352451,None,1300.854291634856,None,1300.854291634856,None,v,8.100378513277064,1300.854291634856,None,t,8.143550518690972,1300.854291634856,None,8.100378513277064,8.143550518690972,9.67429068238739,True,False,False,1309.0700429195558,None,1309.0700429195558,None,1309.0700429195558,None,1309.0700429195558,None,1309.0700429195558,None,1309.0700429195558,None,1309.0700429195558,None,1309.0700429195558,None,1310.0706565601477,None,1310.0706565601477,None,1311.0513392312969,None,1311.0513392312969,None,h,,,,,,,,,,,,,,,,,,,,,,,,,,,,,,,,,,,,,,,,,,,,,,,11_12Exp,001,2021_Apr_28_1040,ComputerHuman,2020.1.3,60.02849825737297,
Human.xlsx,h,Sychronize.jpg,Number8.jpg,8,Human,,,,,0,7,7,2,0,5,5,4,,,,,,,,,,,,,,,,,,,,,,,,,,,,,1312.1181432961448,None,1312.1181432961448,None,1312.5511749950274,None,1312.5511749950274,None,v,6.958602195376443,1312.5511749950274,None,t,6.938146118955956,1312.5511749950274,None,6.958602195376443,6.938146118955956,7.759395854833946,True,False,False,1319.59924650196,None,1319.59924650196,None,1319.59924650196,None,1319.59924650196,None,1319.59924650196,None,1319.59924650196,None,1319.59924650196,None,1319.59924650196,None,1320.5843706094065,None,1320.5843706094065,None,1321.5819481244343,None,1321.5819481244343,None,h,,,,,,,,,,,,,,,,,,,,,,,,,,,,,,,,,,,,,,,,,,,,,,,11_12Exp,001,2021_Apr_28_1040,ComputerHuman,2020.1.3,60.02849825737297,
Human.xlsx,h,Sychronize.jpg,Number9.jpg,9,Human,,,,,0,7,7,2,0,6,6,7,,,,,,,,,,,,,,,,,,,,,,,,,,,,,1322.6322220653992,None,1322.6322220653992,None,1323.0821360979771,None,1323.0821360979771,None,v,8.13863754466729,1323.0821360979771,None,t,8.241610156987008,1323.0821360979771,None,8.13863754466729,8.241610156987008,9.15709495437332,True,False,False,1331.4127100267524,None,1331.4127100267524,None,1331.4127100267524,None,1331.4127100267524,None,1331.4127100267524,None,1331.4127100267524,None,1331.4127100267524,None,1331.4127100267524,None,1332.3822085928923,None,1332.3822085928923,None,1333.3789097534527,None,1333.3789097534527,None,h,,,,,,,,,,,,,,,,,,,,,,,,,,,,,,,,,,,,,,,,,,,,,,,11_12Exp,001,2021_Apr_28_1040,ComputerHuman,2020.1.3,60.02849825737297,
Human.xlsx,h,Sychronize.jpg,Number6.jpg,6,Human,,,,,0,7,7,2,0,7,7,1,,,,,,,,,,,,,,,,,,,,,,,,,,,,,1334.4452952082784,None,1334.4452952082784,None,1334.8958007480442,None,1334.8958007480442,None,v,5.568124691255434,1334.8958007480442,None,t,5.495845656399069,1334.8958007480442,None,5.568124691255434,5.495845656399069,6.163845287328279,True,False,False,1340.5604222668453,None,1340.5604222668453,None,1340.5604222668453,None,1340.5604222668453,None,1340.5604222668453,None,1340.5604222668453,None,1340.5604222668453,None,1340.5604222668453,None,1341.5461568071441,None,1341.5461568071441,None,1342.5265668204238,None,1342.5265668204238,None,h,,,,,,,,,,,,,,,,,,,,,,,,,,,,,,,,,,,,,,,,,,,,,,,11_12Exp,001,2021_Apr_28_1040,ComputerHuman,2020.1.3,60.02849825737297,
Human.xlsx,h,Sychronize.jpg,Number10.jpg,10,Human,,,,,0,7,7,2,0,8,8,8,,,,,,,,,,,,,,,,,,,,,,,,,,,,,1343.5934222091055,None,1343.5934222091055,None,1344.0264420393523,None,1344.0264420393523,None,v,9.31240400839124,1344.0264420393523,None,t,9.515489533146138,1344.0264420393523,None,9.31240400839124,9.515489533146138,10.525584469037609,True,False,False,1353.625315481193,None,1353.625315481193,None,1353.625315481193,None,1353.625315481193,None,1353.625315481193,None,1353.625315481193,None,1353.625315481193,None,1353.625315481193,None,1354.6259929558037,None,1354.6259929558037,None,1355.6232923598054,None,1355.6232923598054,None,h,,,,,,,,,,,,,,,,,,,,,,,,,,,,,,,,,,,,,,,,,,,,,,,11_12Exp,001,2021_Apr_28_1040,ComputerHuman,2020.1.3,60.02849825737297,
Human.xlsx,h,Sychronize.jpg,Number8.jpg,8,Human,,,,,0,7,7,2,0,9,9,5,,,,,,,,,,,,,,,,,,,,,,,,,,,,,1356.6730164941973,None,1356.6730164941973,None,1357.123293001353,None,1357.123293001353,None,v,7.510522669096645,1357.123293001353,None,t,7.597697805264943,1357.123293001353,None,7.510522669096645,7.597697805264943,7.487513250334498,True,False,False,1364.7718440653607,None,1364.7718440653607,None,1364.7718440653607,None,1364.7718440653607,None,1364.7718440653607,None,1364.7718440653607,None,1364.7718440653607,None,1364.7718440653607,None,1365.772719136733,None,1365.772719136733,None,1366.7870586952195,None,1366.7870586952195,None,h,,,,,,,,,,,,,,,,,,,,,,,,,,,,,,,,,,,,,,,,,,,,,,,11_12Exp,001,2021_Apr_28_1040,ComputerHuman,2020.1.3,60.02849825737297,
Human.xlsx,h,,,,,,,,,0,7,7,2,,,,,,,,,,,,,,,,,,,,,,,,,,,,,,,,,,,,,,,,,,,,,,,,,,,,,,,,,,,,,,,,,,,,,,,,,,,,,,,h,1367.7873589396495,None,1367.7873589396495,None,q,1,2.4905015621698112,1367.7873589396495,None,o,0,0.9332491836303234,1367.7873589396495,None,h,h,1370.3695354551455,None,1370.3695354551455,None,1372.3689510049844,None,None,None,None,None,None,None,None,,,,,,,,,,,,,,,,,,11_12Exp,001,2021_Apr_28_1040,ComputerHuman,2020.1.3,60.02849825737297,
Computer.xlsx,c,Sychronize.jpg,Number8.jpg,8,Computer,,,,,0,8,8,3,0,0,0,5,,,,,,,,,,,,,,,,,,,,,,,,,1377.3704272067644,None,1377.3704272067644,None,1380.434147992275,None,1380.434147992275,None,1380.8671979752744,None,1380.8671979752744,None,v,7.13257331288969,1380.8671979752744,None,t,6.915715999563872,1380.8671979752744,None,7.13257331288969,6.915715999563872,8.572974508714104,False,False,False,1388.0821402680385,None,1388.0821402680385,None,1388.0821402680385,None,1388.0821402680385,None,1388.0821402680385,None,1388.0821402680385,None,1388.0821402680385,None,1388.0821402680385,None,1389.098007672913,None,1389.098007672913,None,1390.0811343208889,None,1390.0811343208889,None,c,,,,,,,,,,,,,,,,,,,,,,,,,,,,,,,,,,,,,,,,,,,,,,,11_12Exp,001,2021_Apr_28_1040,ComputerHuman,2020.1.3,60.02849825737297,
Computer.xlsx,c,Sychronize.jpg,Number6.jpg,6,Computer,,,,,0,8,8,3,0,1,1,1,,,,,,,,,,,,,,,,,,,,,,,,,,,,,1391.1311840408534,None,1391.1311840408534,None,1391.5811526050047,None,1391.5811526050047,None,v,5.345793370243882,1391.5811526050047,None,t,5.1288622789061264,1391.5811526050047,None,5.345793370243882,5.1288622789061264,5.616762937906571,False,True,False,1397.0126481173775,None,1397.0126481173775,None,1397.0126481173775,None,1397.0126481173775,None,1397.0126481173775,None,1397.0126481173775,None,1397.0126481173775,None,1397.0126481173775,None,1397.9956843070959,None,1397.9956843070959,None,1398.9788266729965,None,1398.9788266729965,None,c,,,,,,,,,,,,,,,,,,,,,,,,,,,,,,,,,,,,,,,,,,,,,,,11_12Exp,001,2021_Apr_28_1040,ComputerHuman,2020.1.3,60.02849825737297,
Computer.xlsx,c,Sychronize.jpg,Number6.jpg,6,Computer,,,,,0,8,8,3,0,2,2,0,,,,,,,,,,,,,,,,,,,,,,,,,,,,,1400.045307718463,None,1400.045307718463,None,1400.4954588029996,None,1400.4954588029996,None,v,5.130697105976651,1400.4954588029996,None,t,5.169824151713328,1400.4954588029996,None,5.130697105976651,5.169824151713328,6.088209982126972,False,False,False,1405.7603969257016,None,1405.7603969257016,None,1405.7603969257016,None,1405.7603969257016,None,1405.7603969257016,None,1405.7603969257016,None,1405.7603969257016,None,1405.7603969257016,None,1406.7600921904368,None,1406.7600921904368,None,1407.7432714453435,None,1407.7432714453435,None,c,,,,,,,,,,,,,,,,,,,,,,,,,,,,,,,,,,,,,,,,,,,,,,,11_12Exp,001,2021_Apr_28_1040,ComputerHuman,2020.1.3,60.02849825737297,
Computer.xlsx,c,Sychronize.jpg,Number8.jpg,8,Computer,,,,,0,8,8,3,0,3,3,4,,,,,,,,,,,,,,,,,,,,,,,,,,,,,1408.7771692339275,None,1408.7771692339275,None,1409.2267294528237,None,1409.2267294528237,None,v,7.614490001475133,1409.2267294528237,None,t,7.329750822785172,1409.2267294528237,None,7.614490001475133,7.329750822785172,8.44466843272582,False,False,False,1416.9241914892245,None,1416.9241914892245,None,1416.9241914892245,None,1416.9241914892245,None,1416.9241914892245,None,1416.9241914892245,None,1416.9241914892245,None,1416.9241914892245,None,1417.9238582050766,None,1417.9238582050766,None,1418.9070461208803,None,1418.9070461208803,None,c,,,,,,,,,,,,,,,,,,,,,,,,,,,,,,,,,,,,,,,,,,,,,,,11_12Exp,001,2021_Apr_28_1040,ComputerHuman,2020.1.3,60.02849825737297,
Computer.xlsx,c,Sychronize.jpg,Number7.jpg,7,Computer,,,,,0,8,8,3,0,4,4,3,,,,,,,,,,,,,,,,,,,,,,,,,,,,,1419.9567340078138,None,1419.9567340078138,None,1420.4073251942282,None,1420.4073251942282,None,v,6.988975640425451,1420.4073251942282,None,t,6.9807429766542555,1420.4073251942282,None,6.988975640425451,6.9807429766542555,7.386457029865955,False,False,False,1427.4881676108107,None,1427.4881676108107,None,1427.4881676108107,None,1427.4881676108107,None,1427.4881676108107,None,1427.4881676108107,None,1427.4881676108107,None,1427.4881676108107,None,1428.4711970642766,None,1428.4711970642766,None,1429.4543779230526,None,1429.4543779230526,None,c,,,,,,,,,,,,,,,,,,,,,,,,,,,,,,,,,,,,,,,,,,,,,,,11_12Exp,001,2021_Apr_28_1040,ComputerHuman,2020.1.3,60.02849825737297,
Computer.xlsx,c,Sychronize.jpg,Number10.jpg,10,Computer,,,,,0,8,8,3,0,5,5,9,,,,,,,,,,,,,,,,,,,,,,,,,,,,,1430.5212089329134,None,1430.5212089329134,None,1430.954318259095,None,1430.954318259095,None,v,9.828837258536623,1430.954318259095,None,t,11.244270977013002,1430.954318259095,None,9.828837258536623,11.244270977013002,10.552822151455711,False,False,False,1442.284410706152,None,1442.284410706152,None,1442.284410706152,None,1442.284410706152,None,1442.284410706152,None,1442.284410706152,None,1442.284410706152,None,1442.284410706152,None,1443.2840796674209,None,1443.2840796674209,None,1444.2505270316215,None,1444.2505270316215,None,c,,,,,,,,,,,,,,,,,,,,,,,,,,,,,,,,,,,,,,,,,,,,,,,11_12Exp,001,2021_Apr_28_1040,ComputerHuman,2020.1.3,60.02849825737297,
Computer.xlsx,c,Sychronize.jpg,Number10.jpg,10,Computer,,,,,0,8,8,3,0,6,6,8,,,,,,,,,,,,,,,,,,,,,,,,,,,,,1445.2837765360255,None,1445.2837765360255,None,1445.7502928666281,None,1445.7502928666281,None,v,9.715605011772823,1445.7502928666281,None,t,10.650384928755557,1445.7502928666281,None,9.715605011772823,10.650384928755557,10.530583908462672,False,False,True,1456.4817014492564,None,1456.4817014492564,None,1456.4817014492564,None,1456.4817014492564,None,1456.4817014492564,None,1456.4817014492564,None,1456.4817014492564,None,1456.4817014492564,None,1457.4972063795522,None,1457.4972063795522,None,1458.480277533633,None,1458.480277533633,None,c,,,,,,,,,,,,,,,,,,,,,,,,,,,,,,,,,,,,,,,,,,,,,,,11_12Exp,001,2021_Apr_28_1040,ComputerHuman,2020.1.3,60.02849825737297,
Computer.xlsx,c,Sychronize.jpg,Number9.jpg,9,Computer,,,,,0,8,8,3,0,7,7,7,,,,,,,,,,,,,,,,,,,,,,,,,,,,,1459.5139758008117,None,1459.5139758008117,None,1459.9633727457604,None,1459.9633727457604,None,v,8.381311388116956,1459.9633727457604,None,t,7.760650337133484,1459.9633727457604,None,8.381311388116956,7.760650337133484,8.477825887723181,False,True,False,1468.427570201382,None,1468.427570201382,None,1468.427570201382,None,1468.427570201382,None,1468.427570201382,None,1468.427570201382,None,1468.427570201382,None,1468.427570201382,None,1469.4273267339431,None,1469.4273267339431,None,1470.4104937994389,None,1470.4104937994389,None,c,,,,,,,,,,,,,,,,,,,,,,,,,,,,,,,,,,,,,,,,,,,,,,,11_12Exp,001,2021_Apr_28_1040,ComputerHuman,2020.1.3,60.02849825737297,
Computer.xlsx,c,Sychronize.jpg,Number9.jpg,9,Computer,,,,,0,8,8,3,0,8,8,6,,,,,,,,,,,,,,,,,,,,,,,,,,,,,1471.4441538945166,None,1471.4441538945166,None,1471.910324110012,None,1471.910324110012,None,v,8.557370423357497,1471.910324110012,None,t,8.144652377255625,1471.910324110012,None,8.557370423357497,8.144652377255625,8.78038190363302,False,True,False,1480.557835866378,None,1480.557835866378,None,1480.557835866378,None,1480.557835866378,None,1480.557835866378,None,1480.557835866378,None,1480.557835866378,None,1480.557835866378,None,1481.540966363642,None,1481.540966363642,None,1482.5241080879941,None,1482.5241080879941,None,c,,,,,,,,,,,,,,,,,,,,,,,,,,,,,,,,,,,,,,,,,,,,,,,11_12Exp,001,2021_Apr_28_1040,ComputerHuman,2020.1.3,60.02849825737297,
Computer.xlsx,c,Sychronize.jpg,Number7.jpg,7,Computer,,,,,0,8,8,3,0,9,9,2,,,,,,,,,,,,,,,,,,,,,,,,,,,,,1483.5909788738263,None,1483.5909788738263,None,1484.0409362108894,None,1484.0409362108894,None,v,7.157832017090186,1484.0409362108894,None,t,7.032676922879546,1484.0409362108894,None,7.157832017090186,7.032676922879546,7.41587038735693,False,True,False,1491.2723601906673,None,1491.2723601906673,None,1491.2723601906673,None,1491.2723601906673,None,1491.2723601906673,None,1491.2723601906673,None,1491.2723601906673,None,1491.2723601906673,None,1492.2882134814881,None,1492.2882134814881,None,1493.2546717520027,None,1493.2546717520027,None,c,,,,,,,,,,,,,,,,,,,,,,,,,,,,,,,,,,,,,,,,,,,,,,,11_12Exp,001,2021_Apr_28_1040,ComputerHuman,2020.1.3,60.02849825737297,
Computer.xlsx,c,,,,,,,,,0,8,8,3,,,,,,,,,,,,,,,,,,,,,,,,,,,,,,,,,,,,,,,,,,,,,,,,,,,,,,,,,,,,,,,,,,,,,,,,,,,,,,,c,1494.254929333496,None,1494.254929333496,None,q,0,2.191391389143064,1494.254929333496,None,l,0,1.2351949984922612,1494.254929333496,None,h,c,1496.520602028574,None,1496.520602028574,None,1498.520002822811,None,None,None,None,None,None,None,None,,,,,,,,,,,,,,,,,,11_12Exp,001,2021_Apr_28_1040,ComputerHuman,2020.1.3,60.02849825737297,
Human.xlsx,h,Sychronize.jpg,Number9.jpg,9,Human,,,,,0,9,9,6,0,0,0,6,,,,,,,,,,,,,,,,,,,,,,,,,1503.5387113226789,None,1503.5387113226789,None,1506.6009979277997,None,1506.6009979277997,None,1507.0514126885346,None,1507.0514126885346,None,v,9.389179011118358,1507.0514126885346,None,t,9.040562829995906,1507.0514126885346,None,9.389179011118358,9.040562829995906,8.778586130645552,False,False,False,1516.5007599135188,None,1516.5007599135188,None,1516.5007599135188,None,1516.5007599135188,None,1516.5007599135188,None,1516.5007599135188,None,1516.5007599135188,None,1516.5007599135188,None,1517.5337714036423,None,1517.5337714036423,None,1518.5315773097327,None,1518.5315773097327,None,h,,,,,,,,,,,,,,,,,,,,,,,,,,,,,,,,,,,,,,,,,,,,,,,11_12Exp,001,2021_Apr_28_1040,ComputerHuman,2020.1.3,60.02849825737297,
Human.xlsx,h,Sychronize.jpg,Number8.jpg,8,Human,,,,,0,9,9,6,0,1,1,5,,,,,,,,,,,,,,,,,,,,,,,,,,,,,1519.5978681362385,None,1519.5978681362385,None,1520.0315343260218,None,1520.0315343260218,None,v,6.628133480461656,1520.0315343260218,None,t,7.49563041707097,1520.0315343260218,None,6.628133480461656,7.49563041707097,7.513129706499296,False,False,False,1527.6125210908876,None,1527.6125210908876,None,1527.6125210908876,None,1527.6125210908876,None,1527.6125210908876,None,1527.6125210908876,None,1527.6125210908876,None,1527.6125210908876,None,1528.5818721010046,None,1528.5818721010046,None,1529.5787018919245,None,1529.5787018919245,None,h,,,,,,,,,,,,,,,,,,,,,,,,,,,,,,,,,,,,,,,,,,,,,,,11_12Exp,001,2021_Apr_28_1040,ComputerHuman,2020.1.3,60.02849825737297,
Human.xlsx,h,Sychronize.jpg,Number9.jpg,9,Human,,,,,0,9,9,6,0,2,2,7,,,,,,,,,,,,,,,,,,,,,,,,,,,,,1530.6450424383947,None,1530.6450424383947,None,1531.0788850538574,None,1531.0788850538574,None,v,7.083777498348354,1531.0788850538574,None,t,8.026631937539605,1531.0788850538574,None,7.083777498348354,8.026631937539605,8.958771232862055,False,False,False,1539.1779888114042,None,1539.1779888114042,None,1539.1779888114042,None,1539.1779888114042,None,1539.1779888114042,None,1539.1779888114042,None,1539.1779888114042,None,1539.1779888114042,None,1540.1773985873115,None,1540.1773985873115,None,1541.17580979387,None,1541.17580979387,None,h,,,,,,,,,,,,,,,,,,,,,,,,,,,,,,,,,,,,,,,,,,,,,,,11_12Exp,001,2021_Apr_28_1040,ComputerHuman,2020.1.3,60.02849825737297,
Human.xlsx,h,Sychronize.jpg,Number7.jpg,7,Human,,,,,0,9,9,6,0,3,3,2,,,,,,,,,,,,,,,,,,,,,,,,,,,,,1542.2260179761724,None,1542.2260179761724,None,1542.6759198193395,None,1542.6759198193395,None,v,5.869808433789331,1542.6759198193395,None,t,6.7607760805276484,1542.6759198193395,None,5.869808433789331,6.7607760805276484,7.265474799164797,False,False,False,1549.5235685461876,None,1549.5235685461876,None,1549.5235685461876,None,1549.5235685461876,None,1549.5235685461876,None,1549.5235685461876,None,1549.5235685461876,None,1549.5235685461876,None,1550.5089120630255,None,1550.5089120630255,None,1551.5064440281512,None,1551.5064440281512,None,h,,,,,,,,,,,,,,,,,,,,,,,,,,,,,,,,,,,,,,,,,,,,,,,11_12Exp,001,2021_Apr_28_1040,ComputerHuman,2020.1.3,60.02849825737297,
Human.xlsx,h,Sychronize.jpg,Number6.jpg,6,Human,,,,,0,9,9,6,0,4,4,0,,,,,,,,,,,,,,,,,,,,,,,,,,,,,1552.5560847613115,None,1552.5560847613115,None,1553.0065595067772,None,1553.0065595067772,None,v,5.162319965613278,1553.0065595067772,None,t,5.885823715459992,1553.0065595067772,None,5.162319965613278,5.885823715459992,5.909219153375355,False,False,False,1558.987859347032,None,1558.987859347032,None,1558.987859347032,None,1558.987859347032,None,1558.987859347032,None,1558.987859347032,None,1558.987859347032,None,1558.987859347032,None,1559.9731149718036,None,1559.9731149718036,None,1560.954084414876,None,1560.954084414876,None,h,,,,,,,,,,,,,,,,,,,,,,,,,,,,,,,,,,,,,,,,,,,,,,,11_12Exp,001,2021_Apr_28_1040,ComputerHuman,2020.1.3,60.02849825737297,
Human.xlsx,h,Sychronize.jpg,Number6.jpg,6,Human,,,,,0,9,9,6,0,5,5,1,,,,,,,,,,,,,,,,,,,,,,,,,,,,,1562.0044023018736,None,1562.0044023018736,None,1562.4542056674345,None,1562.4542056674345,None,v,5.825825511795301,1562.4542056674345,None,t,5.95683184387326,1562.4542056674345,None,5.825825511795301,5.95683184387326,6.260507534068851,True,False,False,1568.4855857011798,None,1568.4855857011798,None,1568.4855857011798,None,1568.4855857011798,None,1568.4855857011798,None,1568.4855857011798,None,1568.4855857011798,None,1568.4855857011798,None,1569.4871834762916,None,1569.4871834762916,None,1570.4848597896998,None,1570.4848597896998,None,h,,,,,,,,,,,,,,,,,,,,,,,,,,,,,,,,,,,,,,,,,,,,,,,11_12Exp,001,2021_Apr_28_1040,ComputerHuman,2020.1.3,60.02849825737297,
Human.xlsx,h,Sychronize.jpg,Number7.jpg,7,Human,,,,,0,9,9,6,0,6,6,3,,,,,,,,,,,,,,,,,,,,,,,,,,,,,1571.534568206168,None,1571.534568206168,None,1571.984925227589,None,1571.984925227589,None,v,6.578198918350608,1571.984925227589,None,t,6.59392742809905,1571.984925227589,None,6.578198918350608,6.59392742809905,7.403595949325425,True,False,False,1578.6338817498854,None,1578.6338817498854,None,1578.6338817498854,None,1578.6338817498854,None,1578.6338817498854,None,1578.6338817498854,None,1578.6338817498854,None,1578.6338817498854,None,1579.635404143116,None,1579.635404143116,None,1580.6322406702893,None,1580.6322406702893,None,h,,,,,,,,,,,,,,,,,,,,,,,,,,,,,,,,,,,,,,,,,,,,,,,11_12Exp,001,2021_Apr_28_1040,ComputerHuman,2020.1.3,60.02849825737297,
Human.xlsx,h,Sychronize.jpg,Number8.jpg,8,Human,,,,,0,9,9,6,0,7,7,4,,,,,,,,,,,,,,,,,,,,,,,,,,,,,1581.6987316597488,None,1581.6987316597488,None,1582.1325014595213,None,1582.1325014595213,None,v,7.753630840491496,1582.1325014595213,None,t,7.0211524766955336,1582.1325014595213,None,7.753630840491496,7.0211524766955336,8.514560693661599,False,False,False,1589.964512776427,None,1589.964512776427,None,1589.964512776427,None,1589.964512776427,None,1589.964512776427,None,1589.964512776427,None,1589.964512776427,None,1589.964512776427,None,1590.9651649098942,None,1590.9651649098942,None,1591.9627347263477,None,1591.9627347263477,None,h,,,,,,,,,,,,,,,,,,,,,,,,,,,,,,,,,,,,,,,,,,,,,,,11_12Exp,001,2021_Apr_28_1040,ComputerHuman,2020.1.3,60.02849825737297,
Human.xlsx,h,Sychronize.jpg,Number10.jpg,10,Human,,,,,0,9,9,6,0,8,8,8,,,,,,,,,,,,,,,,,,,,,,,,,,,,,1593.014074599193,None,1593.014074599193,None,1593.446031705298,None,1593.446031705298,None,v,7.751099292372601,1593.446031705298,None,t,10.166438703303356,1593.446031705298,None,7.751099292372601,10.166438703303356,10.738622723677217,False,False,False,1603.694365926106,None,1603.694365926106,None,1603.694365926106,None,1603.694365926106,None,1603.694365926106,None,1603.694365926106,None,1603.694365926106,None,1603.694365926106,None,1604.6951280850435,None,1604.6951280850435,None,1605.6925590063702,None,1605.6925590063702,None,h,,,,,,,,,,,,,,,,,,,,,,,,,,,,,,,,,,,,,,,,,,,,,,,11_12Exp,001,2021_Apr_28_1040,ComputerHuman,2020.1.3,60.02849825737297,
Human.xlsx,h,Sychronize.jpg,Number10.jpg,10,Human,,,,,0,9,9,6,0,9,9,9,,,,,,,,,,,,,,,,,,,,,,,,,,,,,1606.7263230322114,None,1606.7263230322114,None,1607.1925811397741,None,1607.1925811397741,None,v,8.879241433731295,1607.1925811397741,None,t,9.462516920826602,1607.1925811397741,None,8.879241433731295,9.462516920826602,9.525168263857752,False,False,False,1616.7564100261106,None,1616.7564100261106,None,1616.7564100261106,None,1616.7564100261106,None,1616.7564100261106,None,1616.7564100261106,None,1616.7564100261106,None,1616.7564100261106,None,1617.7250094628316,None,1617.7250094628316,None,1618.7225196153277,None,1618.7225196153277,None,h,,,,,,,,,,,,,,,,,,,,,,,,,,,,,,,,,,,,,,,,,,,,,,,11_12Exp,001,2021_Apr_28_1040,ComputerHuman,2020.1.3,60.02849825737297,
Human.xlsx,h,,,,,,,,,0,9,9,6,,,,,,,,,,,,,,,,,,,,,,,,,,,,,,,,,,,,,,,,,,,,,,,,,,,,,,,,,,,,,,,,,,,,,,,,,,,,,,,h,1619.72348450341,None,1619.72348450341,None,a,0,2.783786800792768,1619.72348450341,None,o,0,2.407148127000255,1619.72348450341,None,c,h,1622.605055397663,None,1622.605055397663,None,None,None,1624.6043711867997,None,1624.6043711867997,None,"['space', 'space']",1625.5874862869132,None,"[331.3505498065733, 341.89361435270985]",,,,,,,,,,,,,,,,,11_12Exp,001,2021_Apr_28_1040,ComputerHuman,2020.1.3,60.02849825737297,
Computer.xlsx,c,Sychronize.jpg,Number10.jpg,10,Computer,,,,,1,0,10,5,0,0,0,8,,,,,,,,,,,,,,,,,,,,,,,,,1967.536091240946,None,1967.536091240946,None,1970.5994396078859,None,1970.5994396078859,None,1971.0494838746927,None,1971.0494838746927,None,v,8.742571195781238,1971.0494838746927,None,t,10.153890667402266,1971.0494838746927,None,8.742571195781238,10.153890667402266,9.72077664559462,False,False,False,1981.2809742546815,None,1981.2809742546815,None,1981.2809742546815,None,1981.2809742546815,None,1981.2809742546815,None,1981.2809742546815,None,1981.2809742546815,None,1981.2809742546815,None,1982.2960560841193,None,1982.2960560841193,None,1983.2792026200814,None,1983.2792026200814,None,c,,,,,,,,,,,,,,,,,,,,,,,,,,,,,,,,,,,,,,,,,,,,,,,11_12Exp,001,2021_Apr_28_1040,ComputerHuman,2020.1.3,60.02849825737297,
Computer.xlsx,c,Sychronize.jpg,Number8.jpg,8,Computer,,,,,1,0,10,5,0,1,1,4,,,,,,,,,,,,,,,,,,,,,,,,,,,,,1984.3464730902715,None,1984.3464730902715,None,1984.7959813437856,None,1984.7959813437856,None,v,6.3030463903305645,1984.7959813437856,None,t,7.922333245654954,1984.7959813437856,None,6.3030463903305645,7.922333245654954,7.59521859571312,False,False,False,1992.776431774585,None,1992.776431774585,None,1992.776431774585,None,1992.776431774585,None,1992.776431774585,None,1992.776431774585,None,1992.776431774585,None,1992.776431774585,None,1993.8098272311427,None,1993.8098272311427,None,1994.7762492542006,None,1994.7762492542006,None,c,,,,,,,,,,,,,,,,,,,,,,,,,,,,,,,,,,,,,,,,,,,,,,,11_12Exp,001,2021_Apr_28_1040,ComputerHuman,2020.1.3,60.02849825737297,
Computer.xlsx,c,Sychronize.jpg,Number6.jpg,6,Computer,,,,,1,0,10,5,0,2,2,0,,,,,,,,,,,,,,,,,,,,,,,,,,,,,1995.84273382818,None,1995.84273382818,None,1996.2764160566612,None,1996.2764160566612,None,v,4.501784786331882,1996.2764160566612,None,t,5.160866218011506,1996.2764160566612,None,4.501784786331882,5.160866218011506,5.837998216918732,False,False,False,2001.5088238501858,None,2001.5088238501858,None,2001.5088238501858,None,2001.5088238501858,None,2001.5088238501858,None,2001.5088238501858,None,2001.5088238501858,None,2001.5088238501858,None,2002.524266550332,None,2002.524266550332,None,2003.5073521392414,None,2003.5073521392414,None,c,,,,,,,,,,,,,,,,,,,,,,,,,,,,,,,,,,,,,,,,,,,,,,,11_12Exp,001,2021_Apr_28_1040,ComputerHuman,2020.1.3,60.02849825737297,
Computer.xlsx,c,Sychronize.jpg,Number9.jpg,9,Computer,,,,,1,0,10,5,0,3,3,7,,,,,,,,,,,,,,,,,,,,,,,,,,,,,2004.5574647309022,None,2004.5574647309022,None,2005.0074749956693,None,2005.0074749956693,None,v,9.429563811564549,2005.0074749956693,None,t,8.66451855035848,2005.0074749956693,None,9.429563811564549,8.66451855035848,9.434860546339225,False,True,False,2014.4896681914115,None,2014.4896681914115,None,2014.4896681914115,None,2014.4896681914115,None,2014.4896681914115,None,2014.4896681914115,None,2014.4896681914115,None,2014.4896681914115,None,2015.504363488224,None,2015.504363488224,None,2016.4873862054365,None,2016.4873862054365,None,c,,,,,,,,,,,,,,,,,,,,,,,,,,,,,,,,,,,,,,,,,,,,,,,11_12Exp,001,2021_Apr_28_1040,ComputerHuman,2020.1.3,60.02849825737297,
Computer.xlsx,c,Sychronize.jpg,Number7.jpg,7,Computer,,,,,1,0,10,5,0,4,4,2,,,,,,,,,,,,,,,,,,,,,,,,,,,,,2017.5542563497202,None,2017.5542563497202,None,2018.004155626696,None,2018.004155626696,None,v,6.272448403507951,2018.004155626696,None,t,6.943810024827144,2018.004155626696,None,6.272448403507951,6.943810024827144,6.500700209184236,False,True,False,2025.0186305517955,None,2025.0186305517955,None,2025.0186305517955,None,2025.0186305517955,None,2025.0186305517955,None,2025.0186305517955,None,2025.0186305517955,None,2025.0186305517955,None,2026.0349255483625,None,2026.0349255483625,None,2027.0013552699947,None,2027.0013552699947,None,c,,,,,,,,,,,,,,,,,,,,,,,,,,,,,,,,,,,,,,,,,,,,,,,11_12Exp,001,2021_Apr_28_1040,ComputerHuman,2020.1.3,60.02849825737297,
Computer.xlsx,c,Sychronize.jpg,Number9.jpg,9,Computer,,,,,1,0,10,5,0,5,5,6,,,,,,,,,,,,,,,,,,,,,,,,,,,,,2028.0683572523785,None,2028.0683572523785,None,2028.5011583147816,None,2028.5011583147816,None,v,7.689935075350149,2028.5011583147816,None,t,3.5180162696551633,2028.5011583147816,None,7.689935075350149,3.5180162696551633,8.415633158907797,False,False,False,2036.2822304055226,None,2036.2822304055226,None,2036.2822304055226,None,2036.2822304055226,None,2036.2822304055226,None,2036.2822304055226,None,2036.2822304055226,None,2036.2822304055226,None,2037.282016770063,None,2037.282016770063,None,2038.2651049251635,None,2038.2651049251635,None,c,,,,,,,,,,,,,,,,,,,,,,,,,,,,,,,,,,,,,,,,,,,,,,,11_12Exp,001,2021_Apr_28_1040,ComputerHuman,2020.1.3,60.02849825737297,
Computer.xlsx,c,Sychronize.jpg,Number7.jpg,7,Computer,,,,,1,0,10,5,0,6,6,3,,,,,,,,,,,,,,,,,,,,,,,,,,,,,2039.3144932092146,None,2039.3144932092146,None,2039.7653214475886,None,2039.7653214475886,None,v,6.64482719906664,2039.7653214475886,None,t,7.895670193041042,2039.7653214475886,None,6.64482719906664,7.895670193041042,6.978524599777751,False,False,False,2047.7459688336012,None,2047.7459688336012,None,2047.7459688336012,None,2047.7459688336012,None,2047.7459688336012,None,2047.7459688336012,None,2047.7459688336012,None,2047.7459688336012,None,2048.7290765559137,None,2048.7290765559137,None,2049.7122028831163,None,2049.7122028831163,None,c,,,,,,,,,,,,,,,,,,,,,,,,,,,,,,,,,,,,,,,,,,,,,,,11_12Exp,001,2021_Apr_28_1040,ComputerHuman,2020.1.3,60.02849825737297,
Computer.xlsx,c,Sychronize.jpg,Number6.jpg,6,Computer,,,,,1,0,10,5,0,7,7,1,,,,,,,,,,,,,,,,,,,,,,,,,,,,,2050.7784953134924,None,2050.7784953134924,None,2051.228642869515,None,2051.228642869515,None,v,6.316638866256653,2051.228642869515,None,t,5.419842435829196,2051.228642869515,None,6.316638866256653,5.419842435829196,5.7778042413877335,False,False,False,2057.643427662263,None,2057.643427662263,None,2057.643427662263,None,2057.643427662263,None,2057.643427662263,None,2057.643427662263,None,2057.643427662263,None,2057.643427662263,None,2058.6432570105144,None,2058.6432570105144,None,2059.6096918645308,None,2059.6096918645308,None,c,,,,,,,,,,,,,,,,,,,,,,,,,,,,,,,,,,,,,,,,,,,,,,,11_12Exp,001,2021_Apr_28_1040,ComputerHuman,2020.1.3,60.02849825737297,
Computer.xlsx,c,Sychronize.jpg,Number10.jpg,10,Computer,,,,,1,0,10,5,0,8,8,9,,,,,,,,,,,,,,,,,,,,,,,,,,,,,2060.6758200586373,None,2060.6758200586373,None,2061.109390657779,None,2061.109390657779,None,v,9.522734854656846,2061.109390657779,None,t,8.718627023281442,2061.109390657779,None,9.522734854656846,8.718627023281442,9.457580365112145,False,True,False,2070.708615026335,None,2070.708615026335,None,2070.708615026335,None,2070.708615026335,None,2070.708615026335,None,2070.708615026335,None,2070.708615026335,None,2070.708615026335,None,2071.723224997273,None,2071.723224997273,None,2072.706291339744,None,2072.706291339744,None,c,,,,,,,,,,,,,,,,,,,,,,,,,,,,,,,,,,,,,,,,,,,,,,,11_12Exp,001,2021_Apr_28_1040,ComputerHuman,2020.1.3,60.02849825737297,
Computer.xlsx,c,Sychronize.jpg,Number8.jpg,8,Computer,,,,,1,0,10,5,0,9,9,5,,,,,,,,,,,,,,,,,,,,,,,,,,,,,2073.756411950754,None,2073.756411950754,None,2074.206512673779,None,2074.206512673779,None,v,7.296656572979373,2074.206512673779,None,t,8.60758181339952,2074.206512673779,None,7.296656572979373,8.60758181339952,7.964286038475298,False,False,False,2082.8884986495414,None,2082.8884986495414,None,2082.8884986495414,None,2082.8884986495414,None,2082.8884986495414,None,2082.8884986495414,None,2082.8884986495414,None,2082.8884986495414,None,2083.9033645981017,None,2083.9033645981017,None,2084.8865172287697,None,2084.8865172287697,None,c,,,,,,,,,,,,,,,,,,,,,,,,,,,,,,,,,,,,,,,,,,,,,,,11_12Exp,001,2021_Apr_28_1040,ComputerHuman,2020.1.3,60.02849825737297,
Computer.xlsx,c,,,,,,,,,1,0,10,5,,,,,,,,,,,,,,,,,,,,,,,,,,,,,,,,,,,,,,,,,,,,,,,,,,,,,,,,,,,,,,,,,,,,,,,,,,,,,,,c,2085.8871786646814,None,2085.8871786646814,None,a,0,2.3193785966777796,2085.8871786646814,None,l,1,3.6790149673133783,2085.8871786646814,None,c,c,2089.6519188698485,None,2089.6519188698485,None,2091.651439954321,None,None,None,None,None,None,None,None,,,,,,,,,,,,,,,,,,11_12Exp,001,2021_Apr_28_1040,ComputerHuman,2020.1.3,60.02849825737297,
Human.xlsx,h,Sychronize.jpg,Number6.jpg,6,Human,,,,,1,1,11,8,0,0,0,0,,,,,,,,,,,,,,,,,,,,,,,,,2096.636474565832,None,2096.636474565832,None,2099.73361743214,None,2099.73361743214,None,2100.1661913865773,None,2100.1661913865773,None,v,5.874826942446816,2100.1661913865773,None,t,5.385893002637204,2100.1661913865773,None,5.874826942446816,5.385893002637204,6.0549478677186706,False,False,False,2106.130981632483,None,2106.130981632483,None,2106.130981632483,None,2106.130981632483,None,2106.130981632483,None,2106.130981632483,None,2106.130981632483,None,2106.130981632483,None,2107.1329101255506,None,2107.1329101255506,None,2108.1135151694007,None,2108.1135151694007,None,h,,,,,,,,,,,,,,,,,,,,,,,,,,,,,,,,,,,,,,,,,,,,,,,11_12Exp,001,2021_Apr_28_1040,ComputerHuman,2020.1.3,60.02849825737297,
Human.xlsx,h,Sychronize.jpg,Number8.jpg,8,Human,,,,,1,1,11,8,0,1,1,4,,,,,,,,,,,,,,,,,,,,,,,,,,,,,2109.1804520346686,None,2109.1804520346686,None,2109.614100902658,None,2109.614100902658,None,v,6.05403758187731,2109.614100902658,None,t,6.517752593457772,2109.614100902658,None,6.05403758187731,6.517752593457772,8.291546820775984,False,False,False,2116.2125560552495,None,2116.2125560552495,None,2116.2125560552495,None,2116.2125560552495,None,2116.2125560552495,None,2116.2125560552495,None,2116.2125560552495,None,2116.2125560552495,None,2117.2143126134733,None,2117.2143126134733,None,2118.2113319818054,None,2118.2113319818054,None,h,,,,,,,,,,,,,,,,,,,,,,,,,,,,,,,,,,,,,,,,,,,,,,,11_12Exp,001,2021_Apr_28_1040,ComputerHuman,2020.1.3,60.02849825737297,
Human.xlsx,h,Sychronize.jpg,Number6.jpg,6,Human,,,,,1,1,11,8,0,2,2,1,,,,,,,,,,,,,,,,,,,,,,,,,,,,,2119.261685474713,None,2119.261685474713,None,2119.7115116152245,None,2119.7115116152245,None,v,4.627910863330726,2119.7115116152245,None,t,5.138914051824031,2119.7115116152245,None,4.627910863330726,5.138914051824031,5.652663555052593,False,False,False,2124.927951601624,None,2124.927951601624,None,2124.927951601624,None,2124.927951601624,None,2124.927951601624,None,2124.927951601624,None,2124.927951601624,None,2124.927951601624,None,2125.928586092524,None,2125.928586092524,None,2126.908922007018,None,2126.908922007018,None,h,,,,,,,,,,,,,,,,,,,,,,,,,,,,,,,,,,,,,,,,,,,,,,,11_12Exp,001,2021_Apr_28_1040,ComputerHuman,2020.1.3,60.02849825737297,
Human.xlsx,h,Sychronize.jpg,Number9.jpg,9,Human,,,,,1,1,11,8,0,3,3,6,,,,,,,,,,,,,,,,,,,,,,,,,,,,,2127.9759907103853,None,2127.9759907103853,None,2128.409076940842,None,2128.409076940842,None,v,7.045379892605524,2128.409076940842,None,t,8.340619927762418,2128.409076940842,None,7.045379892605524,8.340619927762418,9.106170296357224,False,False,False,2136.824749635921,None,2136.824749635921,None,2136.824749635921,None,2136.824749635921,None,2136.824749635921,None,2136.824749635921,None,2136.824749635921,None,2136.824749635921,None,2137.8253777113414,None,2137.8253777113414,None,2138.8227515349035,None,2138.8227515349035,None,h,,,,,,,,,,,,,,,,,,,,,,,,,,,,,,,,,,,,,,,,,,,,,,,11_12Exp,001,2021_Apr_28_1040,ComputerHuman,2020.1.3,60.02849825737297,
Human.xlsx,h,Sychronize.jpg,Number10.jpg,10,Human,,,,,1,1,11,8,0,4,4,8,,,,,,,,,,,,,,,,,,,,,,,,,,,,,2139.8728965247346,None,2139.8728965247346,None,2140.32283301149,None,2140.32283301149,None,v,7.84651799862695,2140.32283301149,None,t,10.7413516131719,2140.32283301149,None,7.84651799862695,10.7413516131719,10.462800812978397,False,False,False,2151.136506322455,None,2151.136506322455,None,2151.136506322455,None,2151.136506322455,None,2151.136506322455,None,2151.136506322455,None,2151.136506322455,None,2151.136506322455,None,2152.1382872594995,None,2152.1382872594995,None,2153.135693160457,None,2153.135693160457,None,h,,,,,,,,,,,,,,,,,,,,,,,,,,,,,,,,,,,,,,,,,,,,,,,11_12Exp,001,2021_Apr_28_1040,ComputerHuman,2020.1.3,60.02849825737297,
Human.xlsx,h,Sychronize.jpg,Number8.jpg,8,Human,,,,,1,1,11,8,0,5,5,5,,,,,,,,,,,,,,,,,,,,,,,,,,,,,2154.185471505649,None,2154.185471505649,None,2154.635573832543,None,2154.635573832543,None,v,7.436522040378804,2154.635573832543,None,t,5.575825511794392,2154.635573832543,None,7.436522040378804,5.575825511794392,8.567670347632424,False,False,False,2162.151538431928,None,2162.151538431928,None,2162.151538431928,None,2162.151538431928,None,2162.151538431928,None,2162.151538431928,None,2162.151538431928,None,2162.151538431928,None,2163.13503621538,None,2163.13503621538,None,2164.132948618426,None,2164.132948618426,None,h,,,,,,,,,,,,,,,,,,,,,,,,,,,,,,,,,,,,,,,,,,,,,,,11_12Exp,001,2021_Apr_28_1040,ComputerHuman,2020.1.3,60.02849825737297,
Human.xlsx,h,Sychronize.jpg,Number9.jpg,9,Human,,,,,1,1,11,8,0,6,6,7,,,,,,,,,,,,,,,,,,,,,,,,,,,,,2165.1825126866097,None,2165.1825126866097,None,2165.6326897538374,None,2165.6326897538374,None,v,7.122512558301423,2165.6326897538374,None,t,7.309598198533422,2165.6326897538374,None,7.122512558301423,7.309598198533422,9.147980160404726,True,False,False,2173.015584161464,None,2173.015584161464,None,2173.015584161464,None,2173.015584161464,None,2173.015584161464,None,2173.015584161464,None,2173.015584161464,None,2173.015584161464,None,2174.016334451765,None,2174.016334451765,None,2175.0134179748893,None,2175.0134179748893,None,h,,,,,,,,,,,,,,,,,,,,,,,,,,,,,,,,,,,,,,,,,,,,,,,11_12Exp,001,2021_Apr_28_1040,ComputerHuman,2020.1.3,60.02849825737297,
Human.xlsx,h,Sychronize.jpg,Number7.jpg,7,Human,,,,,1,1,11,8,0,7,7,2,,,,,,,,,,,,,,,,,,,,,,,,,,,,,2176.0639312132307,None,2176.0639312132307,None,2176.4966398927327,None,2176.4966398927327,None,v,5.997652255361572,2176.4966398927327,None,t,5.060917221071577,2176.4966398927327,None,5.997652255361572,5.060917221071577,6.913228692550368,False,False,False,2182.561467348418,None,2182.561467348418,None,2182.561467348418,None,2182.561467348418,None,2182.561467348418,None,2182.561467348418,None,2182.561467348418,None,2182.561467348418,None,2183.5629666459226,None,2183.5629666459226,None,2184.560973998062,None,2184.560973998062,None,h,,,,,,,,,,,,,,,,,,,,,,,,,,,,,,,,,,,,,,,,,,,,,,,11_12Exp,001,2021_Apr_28_1040,ComputerHuman,2020.1.3,60.02849825737297,
Human.xlsx,h,Sychronize.jpg,Number7.jpg,7,Human,,,,,1,1,11,8,0,8,8,3,,,,,,,,,,,,,,,,,,,,,,,,,,,,,2185.6115222007656,None,2185.6115222007656,None,2186.0607930815468,None,2186.0607930815468,None,v,4.656826069941417,2186.0607930815468,None,t,5.839785594682326,2186.0607930815468,None,4.656826069941417,5.839785594682326,6.610998638434526,False,False,False,2191.9761411533746,None,2191.9761411533746,None,2191.9761411533746,None,2191.9761411533746,None,2191.9761411533746,None,2191.9761411533746,None,2191.9761411533746,None,2191.9761411533746,None,2192.977438363283,None,2192.977438363283,None,2193.9586031576982,None,2193.9586031576982,None,h,,,,,,,,,,,,,,,,,,,,,,,,,,,,,,,,,,,,,,,,,,,,,,,11_12Exp,001,2021_Apr_28_1040,ComputerHuman,2020.1.3,60.02849825737297,
Human.xlsx,h,Sychronize.jpg,Number10.jpg,10,Human,,,,,1,1,11,8,0,9,9,9,,,,,,,,,,,,,,,,,,,,,,,,,,,,,2195.0264632104336,None,2195.0264632104336,None,2195.458687842025,None,2195.458687842025,None,v,7.541829245603367,2195.458687842025,None,t,6.400709231233122,2195.458687842025,None,7.541829245603367,6.400709231233122,9.283422945556772,False,False,False,2203.089488557993,None,2203.089488557993,None,2203.089488557993,None,2203.089488557993,None,2203.089488557993,None,2203.089488557993,None,2203.089488557993,None,2203.089488557993,None,2204.074693179704,None,2204.074693179704,None,2205.0724144014675,None,2205.0724144014675,None,h,,,,,,,,,,,,,,,,,,,,,,,,,,,,,,,,,,,,,,,,,,,,,,,11_12Exp,001,2021_Apr_28_1040,ComputerHuman,2020.1.3,60.02849825737297,
Human.xlsx,h,,,,,,,,,1,1,11,8,,,,,,,,,,,,,,,,,,,,,,,,,,,,,,,,,,,,,,,,,,,,,,,,,,,,,,,,,,,,,,,,,,,,,,,,,,,,,,,h,2206.073046005402,None,2206.073046005402,None,q,1,3.8233035868952356,2206.073046005402,None,l,0,1.626124793902818,2206.073046005402,None,h,c,2209.9882163684533,None,2209.9882163684533,None,2211.970687033675,None,None,None,None,None,None,None,None,,,,,,,,,,,,,,,,,,11_12Exp,001,2021_Apr_28_1040,ComputerHuman,2020.1.3,60.02849825737297,
