Condition,CorrectTuringReply,Sychronize,NumberImage,Number,Partner,trials.thisRepN,trials.thisTrialN,trials.thisN,trials.thisIndex,Block.thisRepN,Block.thisTrialN,Block.thisN,Block.thisIndex,trials_loop.thisRepN,trials_loop.thisTrialN,trials_loop.thisN,trials_loop.thisIndex,key_resp_Istr.keys,key_resp_Istr.rt,key_resp_Istr.started,key_resp_Istr.stopped,key_respPrLeft.keys,key_respPrLeft.rt,key_respPrRight.keys,key_respPrRight.rt,RTPrLeft,RTPrRight,CompPr,SychronizedRTsPr,SychronizedRTsLeftCPr,SychronizedRTsRightCPr,CreditLeftPr.started,CreditLeftPr.stopped,CreditRightPr.started,CreditRightPr.stopped,text_StartExp.started,text_StartExp.stopped,key_startExp.keys,key_startExp.rt,key_startExp.started,key_startExp.stopped,SychroLeft.started,SychroLeft.stopped,SychroRight.started,SychroRight.stopped,NumberLeft.started,NumberLeft.stopped,NumberRight.started,NumberRight.stopped,CrossLeft.started,CrossLeft.stopped,CrossRight.started,CrossRight.stopped,key_respLeft.keys,key_respLeft.rt,key_respLeft.started,key_respLeft.stopped,key_respRight.keys,key_respRight.rt,key_respRight.started,key_respRight.stopped,RTLeft,RTRight,Comp,SychronizedRTs,SychronizedRTsLeftC,SychronizedRTsRightC,FeedbackLeftLeft.started,FeedbackLeftLeft.stopped,FeedbackLeftRight.started,FeedbackLeftRight.stopped,FeedbackRightLeft.started,FeedbackRightLeft.stopped,FeedbackRightRight.started,FeedbackRightRight.stopped,textLeftLeft.started,textLeftLeft.stopped,textLeftRight.started,textLeftRight.stopped,textRightLeft.started,textRightLeft.stopped,textRightRight.started,textRightRight.stopped,CreditLeft.started,CreditLeft.stopped,CreditRight.started,CreditRight.stopped,BlankLeft.started,BlankLeft.stopped,BlankRight.started,BlankRight.stopped,CorrectTuringReply,TuringtextLeft.started,TuringtextLeft.stopped,TuringtextRight.started,TuringtextRight.stopped,keyTuringLeft.keys,keyTuringLeft.corr,keyTuringLeft.rt,keyTuringLeft.started,keyTuringLeft.stopped,keyTuringRight.keys,keyTuringRight.corr,keyTuringRight.rt,keyTuringRight.started,keyTuringRight.stopped,RespTuringLeft,RespTuringRight,ScoreLeft.started,ScoreLeft.stopped,ScoreRight.started,ScoreRight.stopped,BlockText.started,BlockText.stopped,text_Pause.started,text_Pause.stopped,text_LongPause.started,text_LongPause.stopped,key_respPause.keys,key_respPause.started,key_respPause.stopped,key_respPause.rt,QuestImageLeft.started,QuestImageLeft.stopped,QuestImageRight.started,QuestImageRight.stopped,respQuestLeft.keys,respQuestLeft.rt,respQuestLeft.started,respQuestLeft.stopped,respQuestRight.keys,respQuestRight.rt,respQuestRight.started,respQuestRight.stopped,RespInclusionLeft,RespInclusionRight,EndText.started,EndText.stopped,participant,session,date,expName,psychopyVersion,frameRate,
,,,,,,,,,,,,,,,,,,"['v', 'v', 'v', 't']","[201.42558749751333, 209.5370487512264, 215.72835705991383, 221.77577771647339]",38.65136874249947,None,,,,,,,,,,,,,,,,,,,,,,,,,,,,,,,,,,,,,,,,,,,,,,,,,,,,,,,,,,,,,,,,,,,,,,,,,,,,,,,,,,,,,,,,,,,,,,,,,,,,,,,,,,,,,,,,,,,,,,13_14Exp,001,2021_Apr_28_1440,ComputerHuman,2020.1.3,60.03196610918258,
,,,,,,,,,,,,,,,,,,,,,,v,5.41926504269577,t,4.730992218024767,5.41926504269577,4.730992218024767,6,False,False,False,320.429204865497,None,320.429204865497,None,321.42897037972944,None,"['space', 'space']","[4.3932396887212235, 5.349154760606325]",322.412083234427,None,,,,,,,,,,,,,,,,,,,,,,,,,,,,,,,,,,,,,,,,,,,,,,,,,,,,,,,,,,,,,,,,,,,,,,,,,,,,,,,,,,,,,,,,,,,,,,,,,,13_14Exp,001,2021_Apr_28_1440,ComputerHuman,2020.1.3,60.03196610918258,
Computer.xlsx,c,Sychronize.jpg,Number7.jpg,7,Computer,,,,,0,0,0,9,0,0,0,3,,,,,,,,,,,,,,,,,,,,,,,,,327.8299060773825,None,327.8299060773825,None,330.8772372380081,None,330.8772372380081,None,331.31002771486965,None,331.31002771486965,None,v,5.778421535480447,331.31002771486965,None,t,4.722400928960269,331.31002771486965,None,5.778421535480447,4.722400928960269,6.542490551976547,False,False,False,337.1749719322761,None,337.1749719322761,None,337.1749719322761,None,337.1749719322761,None,337.1749719322761,None,337.1749719322761,None,337.1749719322761,None,337.1749719322761,None,338.19142507041033,None,338.19142507041033,None,339.1742543609216,None,339.1742543609216,None,c,,,,,,,,,,,,,,,,,,,,,,,,,,,,,,,,,,,,,,,,,,,,,,,13_14Exp,001,2021_Apr_28_1440,ComputerHuman,2020.1.3,60.03196610918258,
Computer.xlsx,c,Sychronize.jpg,Number6.jpg,6,Computer,,,,,0,0,0,9,0,1,1,0,,,,,,,,,,,,,,,,,,,,,,,,,,,,,340.2246402519995,None,340.2246402519995,None,340.6745395289763,None,340.6745395289763,None,v,5.2730828944077075,340.6745395289763,None,t,4.331990466598654,340.6745395289763,None,5.2730828944077075,4.331990466598654,5.66597359665763,False,False,False,346.02250870901116,None,346.02250870901116,None,346.02250870901116,None,346.02250870901116,None,346.02250870901116,None,346.02250870901116,None,346.02250870901116,None,346.02250870901116,None,347.0222257863752,None,347.0222257863752,None,348.0054384017749,None,348.0054384017749,None,c,,,,,,,,,,,,,,,,,,,,,,,,,,,,,,,,,,,,,,,,,,,,,,,13_14Exp,001,2021_Apr_28_1440,ComputerHuman,2020.1.3,60.03196610918258,
Computer.xlsx,c,Sychronize.jpg,Number9.jpg,9,Computer,,,,,0,0,0,9,0,2,2,7,,,,,,,,,,,,,,,,,,,,,,,,,,,,,349.07221616315655,None,349.07221616315655,None,349.5220913820849,None,349.5220913820849,None,v,8.596492657481576,349.5220913820849,None,t,6.199829989796854,349.5220913820849,None,8.596492657481576,6.199829989796854,8.446592193967636,False,True,False,358.1880088276994,None,358.1880088276994,None,358.1880088276994,None,358.1880088276994,None,358.1880088276994,None,358.1880088276994,None,358.1880088276994,None,358.1880088276994,None,359.1858997388881,None,359.1858997388881,None,360.16901098971357,None,360.16901098971357,None,c,,,,,,,,,,,,,,,,,,,,,,,,,,,,,,,,,,,,,,,,,,,,,,,13_14Exp,001,2021_Apr_28_1440,ComputerHuman,2020.1.3,60.03196610918258,
Computer.xlsx,c,Sychronize.jpg,Number8.jpg,8,Computer,,,,,0,0,0,9,0,3,3,5,,,,,,,,,,,,,,,,,,,,,,,,,,,,,361.2363177073639,None,361.2363177073639,None,361.66902093370663,None,361.66902093370663,None,v,7.216599090283125,361.66902093370663,None,t,6.38377300751381,361.66902093370663,None,7.216599090283125,6.38377300751381,7.955687823092234,False,False,False,368.98335728445454,None,368.98335728445454,None,368.98335728445454,None,368.98335728445454,None,368.98335728445454,None,368.98335728445454,None,368.98335728445454,None,368.98335728445454,None,369.9831500644759,None,369.9831500644759,None,370.96622667171323,None,370.96622667171323,None,c,,,,,,,,,,,,,,,,,,,,,,,,,,,,,,,,,,,,,,,,,,,,,,,13_14Exp,001,2021_Apr_28_1440,ComputerHuman,2020.1.3,60.03196610918258,
Computer.xlsx,c,Sychronize.jpg,Number6.jpg,6,Computer,,,,,0,0,0,9,0,4,4,1,,,,,,,,,,,,,,,,,,,,,,,,,,,,,372.0170889121255,None,372.0170889121255,None,372.466065001634,None,372.466065001634,None,v,5.086797905987623,372.466065001634,None,t,5.42221552160845,372.466065001634,None,5.086797905987623,5.42221552160845,5.811323781657594,False,False,False,377.9660123947033,None,377.9660123947033,None,377.9660123947033,None,377.9660123947033,None,377.9660123947033,None,377.9660123947033,None,377.9660123947033,None,377.9660123947033,None,378.96418334156624,None,378.96418334156624,None,379.9472936300699,None,379.9472936300699,None,c,,,,,,,,,,,,,,,,,,,,,,,,,,,,,,,,,,,,,,,,,,,,,,,13_14Exp,001,2021_Apr_28_1440,ComputerHuman,2020.1.3,60.03196610918258,
Computer.xlsx,c,Sychronize.jpg,Number8.jpg,8,Computer,,,,,0,0,0,9,0,5,5,4,,,,,,,,,,,,,,,,,,,,,,,,,,,,,381.0142131735447,None,381.0142131735447,None,381.447009424337,None,381.447009424337,None,v,7.112905378096912,381.447009424337,None,t,6.039709892025712,381.447009424337,None,7.112905378096912,6.039709892025712,8.019464128400813,False,False,False,388.6285289947591,None,388.6285289947591,None,388.6285289947591,None,388.6285289947591,None,388.6285289947591,None,388.6285289947591,None,388.6285289947591,None,388.6285289947591,None,389.64482238745404,None,389.64482238745404,None,390.6279227319683,None,390.6279227319683,None,c,,,,,,,,,,,,,,,,,,,,,,,,,,,,,,,,,,,,,,,,,,,,,,,13_14Exp,001,2021_Apr_28_1440,ComputerHuman,2020.1.3,60.03196610918258,
Computer.xlsx,c,Sychronize.jpg,Number10.jpg,10,Computer,,,,,0,0,0,9,0,6,6,8,,,,,,,,,,,,,,,,,,,,,,,,,,,,,391.67820212608785,None,391.67820212608785,None,392.11101249093554,None,392.11101249093554,None,v,10.29967281055724,392.11101249093554,None,t,8.890646872776415,392.11101249093554,None,10.29967281055724,8.890646872776415,9.488413555367757,False,False,False,402.5082098888197,None,402.5082098888197,None,402.5082098888197,None,402.5082098888197,None,402.5082098888197,None,402.5082098888197,None,402.5082098888197,None,402.5082098888197,None,403.5079167014155,None,403.5079167014155,None,404.4910600296389,None,404.4910600296389,None,c,,,,,,,,,,,,,,,,,,,,,,,,,,,,,,,,,,,,,,,,,,,,,,,13_14Exp,001,2021_Apr_28_1440,ComputerHuman,2020.1.3,60.03196610918258,
Computer.xlsx,c,Sychronize.jpg,Number10.jpg,10,Computer,,,,,0,0,0,9,0,7,7,9,,,,,,,,,,,,,,,,,,,,,,,,,,,,,405.54114888402546,None,405.54114888402546,None,405.99119218851047,None,405.99119218851047,None,v,8.798413131204143,405.99119218851047,None,t,8.589503634368157,405.99119218851047,None,8.798413131204143,8.589503634368157,9.96948170989379,False,False,False,414.8725818454768,None,414.8725818454768,None,414.8725818454768,None,414.8725818454768,None,414.8725818454768,None,414.8725818454768,None,414.8725818454768,None,414.8725818454768,None,415.88813136335375,None,415.88813136335375,None,416.87124004798534,None,416.87124004798534,None,c,,,,,,,,,,,,,,,,,,,,,,,,,,,,,,,,,,,,,,,,,,,,,,,13_14Exp,001,2021_Apr_28_1440,ComputerHuman,2020.1.3,60.03196610918258,
Computer.xlsx,c,Sychronize.jpg,Number9.jpg,9,Computer,,,,,0,0,0,9,0,8,8,6,,,,,,,,,,,,,,,,,,,,,,,,,,,,,417.93798284500735,None,417.93798284500735,None,418.37124325572586,None,418.37124325572586,None,v,8.829266454100434,418.37124325572586,None,t,9.004599257088557,418.37124325572586,None,8.829266454100434,9.004599257088557,8.732380071504005,False,True,True,427.45299827423514,None,427.45299827423514,None,427.45299827423514,None,427.45299827423514,None,427.45299827423514,None,427.45299827423514,None,427.45299827423514,None,427.45299827423514,None,428.45153105412464,None,428.45153105412464,None,429.43458681105767,None,429.43458681105767,None,c,,,,,,,,,,,,,,,,,,,,,,,,,,,,,,,,,,,,,,,,,,,,,,,13_14Exp,001,2021_Apr_28_1440,ComputerHuman,2020.1.3,60.03196610918258,
Computer.xlsx,c,Sychronize.jpg,Number7.jpg,7,Computer,,,,,0,0,0,9,0,9,9,2,,,,,,,,,,,,,,,,,,,,,,,,,,,,,430.4847208945721,None,430.4847208945721,None,430.9343786287536,None,430.9343786287536,None,v,6.973245206034335,430.9343786287536,None,t,5.66884482880414,430.9343786287536,None,6.973245206034335,5.66884482880414,6.69336388673484,False,True,False,437.9837890462113,None,437.9837890462113,None,437.9837890462113,None,437.9837890462113,None,437.9837890462113,None,437.9837890462113,None,437.9837890462113,None,437.9837890462113,None,438.99883238277107,None,438.99883238277107,None,439.98195903074884,None,439.98195903074884,None,c,,,,,,,,,,,,,,,,,,,,,,,,,,,,,,,,,,,,,,,,,,,,,,,13_14Exp,001,2021_Apr_28_1440,ComputerHuman,2020.1.3,60.03196610918258,
Computer.xlsx,c,,,,,,,,,0,0,0,9,,,,,,,,,,,,,,,,,,,,,,,,,,,,,,,,,,,,,,,,,,,,,,,,,,,,,,,,,,,,,,,,,,,,,,,,,,,,,,,c,440.9830621724068,None,440.9830621724068,None,a,0,9.26741257305548,440.9830621724068,None,l,1,13.086620197213051,440.9830621724068,None,c,c,454.17906629114805,None,454.17906629114805,None,456.1611247618239,None,None,None,None,None,None,None,None,,,,,,,,,,,,,,,,,,13_14Exp,001,2021_Apr_28_1440,ComputerHuman,2020.1.3,60.03196610918258,
Human.xlsx,h,Sychronize.jpg,Number10.jpg,10,Human,,,,,0,1,1,0,0,0,0,8,,,,,,,,,,,,,,,,,,,,,,,,,461.1632036978808,None,461.1632036978808,None,464.22693218196946,None,464.22693218196946,None,464.65944518935066,None,464.65944518935066,None,v,9.684926510686637,464.65944518935066,None,t,8.284692345689109,464.65944518935066,None,9.684926510686637,8.284692345689109,10.65688288915592,False,False,False,474.42485003817274,None,474.42485003817274,None,474.42485003817274,None,474.42485003817274,None,474.42485003817274,None,474.42485003817274,None,474.42485003817274,None,474.42485003817274,None,475.441173583622,None,475.441173583622,None,476.42257350535147,None,476.42257350535147,None,h,,,,,,,,,,,,,,,,,,,,,,,,,,,,,,,,,,,,,,,,,,,,,,,13_14Exp,001,2021_Apr_28_1440,ComputerHuman,2020.1.3,60.03196610918258,
Human.xlsx,h,Sychronize.jpg,Number6.jpg,6,Human,,,,,0,1,1,0,0,1,1,1,,,,,,,,,,,,,,,,,,,,,,,,,,,,,477.47360254822706,None,477.47360254822706,None,477.9225302008672,None,477.9225302008672,None,v,6.061057078517479,477.9225302008672,None,t,5.655916675757908,477.9225302008672,None,6.061057078517479,5.655916675757908,5.590386250863986,False,False,False,484.07066874955854,None,484.07066874955854,None,484.07066874955854,None,484.07066874955854,None,484.07066874955854,None,484.07066874955854,None,484.07066874955854,None,484.07066874955854,None,485.055343452681,None,485.055343452681,None,486.0534781520837,None,486.0534781520837,None,h,,,,,,,,,,,,,,,,,,,,,,,,,,,,,,,,,,,,,,,,,,,,,,,13_14Exp,001,2021_Apr_28_1440,ComputerHuman,2020.1.3,60.03196610918258,
Human.xlsx,h,Sychronize.jpg,Number7.jpg,7,Human,,,,,0,1,1,0,0,2,2,3,,,,,,,,,,,,,,,,,,,,,,,,,,,,,487.10378609508916,None,487.10378609508916,None,487.5535666856995,None,487.5535666856995,None,v,7.644995284623292,487.5535666856995,None,t,5.0489398420540965,487.5535666856995,None,7.644995284623292,5.0489398420540965,7.029924325047114,False,False,False,495.28431960634407,None,495.28431960634407,None,495.28431960634407,None,495.28431960634407,None,495.28431960634407,None,495.28431960634407,None,495.28431960634407,None,495.28431960634407,None,496.2533440685693,None,496.2533440685693,None,497.2505462780573,None,497.2505462780573,None,h,,,,,,,,,,,,,,,,,,,,,,,,,,,,,,,,,,,,,,,,,,,,,,,13_14Exp,001,2021_Apr_28_1440,ComputerHuman,2020.1.3,60.03196610918258,
Human.xlsx,h,Sychronize.jpg,Number6.jpg,6,Human,,,,,0,1,1,0,0,3,3,0,,,,,,,,,,,,,,,,,,,,,,,,,,,,,498.31799157006026,None,498.31799157006026,None,498.7671046300493,None,498.7671046300493,None,v,5.770648861573136,498.7671046300493,None,t,5.413945327287365,498.7671046300493,None,5.770648861573136,5.413945327287365,6.290796345347372,False,False,False,504.6320392242378,None,504.6320392242378,None,504.6320392242378,None,504.6320392242378,None,504.6320392242378,None,504.6320392242378,None,504.6320392242378,None,504.6320392242378,None,505.6165063866101,None,505.6165063866101,None,506.6148794210676,None,506.6148794210676,None,h,,,,,,,,,,,,,,,,,,,,,,,,,,,,,,,,,,,,,,,,,,,,,,,13_14Exp,001,2021_Apr_28_1440,ComputerHuman,2020.1.3,60.03196610918258,
Human.xlsx,h,Sychronize.jpg,Number10.jpg,10,Human,,,,,0,1,1,0,0,4,4,9,,,,,,,,,,,,,,,,,,,,,,,,,,,,,507.66506322454734,None,507.66506322454734,None,508.098312728951,None,508.098312728951,None,v,9.842317784350598,508.098312728951,None,t,7.073775766166364,508.098312728951,None,9.842317784350598,7.073775766166364,10.615284105097155,False,False,False,518.0286242646253,None,518.0286242646253,None,518.0286242646253,None,518.0286242646253,None,518.0286242646253,None,518.0286242646253,None,518.0286242646253,None,518.0286242646253,None,519.0139081175039,None,519.0139081175039,None,520.0114814624721,None,520.0114814624721,None,h,,,,,,,,,,,,,,,,,,,,,,,,,,,,,,,,,,,,,,,,,,,,,,,13_14Exp,001,2021_Apr_28_1440,ComputerHuman,2020.1.3,60.03196610918258,
Human.xlsx,h,Sychronize.jpg,Number9.jpg,9,Human,,,,,0,1,1,0,0,5,5,7,,,,,,,,,,,,,,,,,,,,,,,,,,,,,521.0452137316897,None,521.0452137316897,None,521.5117541203399,None,521.5117541203399,None,v,9.351728971661942,521.5117541203399,None,t,7.54273671514602,521.5117541203399,None,9.351728971661942,7.54273671514602,9.229171637657087,False,False,False,530.9267762858217,None,530.9267762858217,None,530.9267762858217,None,530.9267762858217,None,530.9267762858217,None,530.9267762858217,None,530.9267762858217,None,530.9267762858217,None,531.9270223194508,None,531.9270223194508,None,532.9414677333443,None,532.9414677333443,None,h,,,,,,,,,,,,,,,,,,,,,,,,,,,,,,,,,,,,,,,,,,,,,,,13_14Exp,001,2021_Apr_28_1440,ComputerHuman,2020.1.3,60.03196610918258,
Human.xlsx,h,Sychronize.jpg,Number9.jpg,9,Human,,,,,0,1,1,0,0,6,6,6,,,,,,,,,,,,,,,,,,,,,,,,,,,,,533.99163325271,None,533.99163325271,None,534.4412332475804,None,534.4412332475804,None,v,9.45717892130051,534.4412332475804,None,t,9.212539054227818,534.4412332475804,None,9.45717892130051,9.212539054227818,8.690020216465289,True,False,False,543.9885836546418,None,543.9885836546418,None,543.9885836546418,None,543.9885836546418,None,543.9885836546418,None,543.9885836546418,None,543.9885836546418,None,543.9885836546418,None,544.9570551025499,None,544.9570551025499,None,545.9547702296077,None,545.9547702296077,None,h,,,,,,,,,,,,,,,,,,,,,,,,,,,,,,,,,,,,,,,,,,,,,,,13_14Exp,001,2021_Apr_28_1440,ComputerHuman,2020.1.3,60.03196610918258,
Human.xlsx,h,Sychronize.jpg,Number8.jpg,8,Human,,,,,0,1,1,0,0,7,7,5,,,,,,,,,,,,,,,,,,,,,,,,,,,,,547.0049777703643,None,547.0049777703643,None,547.4546967723727,None,547.4546967723727,None,v,7.962631437130767,547.4546967723727,None,t,7.361745780221099,547.4546967723727,None,7.962631437130767,7.361745780221099,7.978117430472719,False,False,False,555.5022444554197,None,555.5022444554197,None,555.5022444554197,None,555.5022444554197,None,555.5022444554197,None,555.5022444554197,None,555.5022444554197,None,555.5022444554197,None,556.4875167604368,None,556.4875167604368,None,557.4851982062319,None,557.4851982062319,None,h,,,,,,,,,,,,,,,,,,,,,,,,,,,,,,,,,,,,,,,,,,,,,,,13_14Exp,001,2021_Apr_28_1440,ComputerHuman,2020.1.3,60.03196610918258,
Human.xlsx,h,Sychronize.jpg,Number7.jpg,7,Human,,,,,0,1,1,0,0,8,8,2,,,,,,,,,,,,,,,,,,,,,,,,,,,,,558.5190546149752,None,558.5190546149752,None,558.9683450629673,None,558.9683450629673,None,v,6.780089560092165,558.9683450629673,None,t,6.2721571407491865,558.9683450629673,None,6.780089560092165,6.2721571407491865,7.083701813095626,False,False,False,565.817133499706,None,565.817133499706,None,565.817133499706,None,565.817133499706,None,565.817133499706,None,565.817133499706,None,565.817133499706,None,565.817133499706,None,566.8185734540275,None,566.8185734540275,None,567.8159039731036,None,567.8159039731036,None,h,,,,,,,,,,,,,,,,,,,,,,,,,,,,,,,,,,,,,,,,,,,,,,,13_14Exp,001,2021_Apr_28_1440,ComputerHuman,2020.1.3,60.03196610918258,
Human.xlsx,h,Sychronize.jpg,Number8.jpg,8,Human,,,,,0,1,1,0,0,9,9,4,,,,,,,,,,,,,,,,,,,,,,,,,,,,,568.8657910606707,None,568.8657910606707,None,569.315852970045,None,569.315852970045,None,v,8.235459637013264,569.315852970045,None,t,7.462545469708857,569.315852970045,None,8.235459637013264,7.462545469708857,7.607686689639506,False,False,False,577.6466880088265,None,577.6466880088265,None,577.6466880088265,None,577.6466880088265,None,577.6466880088265,None,577.6466880088265,None,577.6466880088265,None,577.6466880088265,None,578.615263387499,None,578.615263387499,None,579.6127988811386,None,579.6127988811386,None,h,,,,,,,,,,,,,,,,,,,,,,,,,,,,,,,,,,,,,,,,,,,,,,,13_14Exp,001,2021_Apr_28_1440,ComputerHuman,2020.1.3,60.03196610918258,
Human.xlsx,h,,,,,,,,,0,1,1,0,,,,,,,,,,,,,,,,,,,,,,,,,,,,,,,,,,,,,,,,,,,,,,,,,,,,,,,,,,,,,,,,,,,,,,,,,,,,,,,h,580.6134061062512,None,580.6134061062512,None,q,1,4.233322320094885,580.6134061062512,None,o,0,3.397108543493232,580.6134061062512,None,h,h,584.9453847042132,None,584.9453847042132,None,586.9442741847524,None,None,None,None,None,None,None,None,,,,,,,,,,,,,,,,,,13_14Exp,001,2021_Apr_28_1440,ComputerHuman,2020.1.3,60.03196610918258,
Computer.xlsx,c,Sychronize.jpg,Number10.jpg,10,Computer,,,,,0,2,2,5,0,0,0,8,,,,,,,,,,,,,,,,,,,,,,,,,591.945763217489,None,591.945763217489,None,595.0095975569857,None,595.0095975569857,None,595.4422167405501,None,595.4422167405501,None,v,10.571046942062821,595.4422167405501,None,t,9.374563266250334,595.4422167405501,None,10.571046942062821,9.374563266250334,10.543395439561191,False,True,False,606.1060190026474,None,606.1060190026474,None,606.1060190026474,None,606.1060190026474,None,606.1060190026474,None,606.1060190026474,None,606.1060190026474,None,606.1060190026474,None,607.122424666235,None,607.122424666235,None,608.105441609514,None,608.105441609514,None,c,,,,,,,,,,,,,,,,,,,,,,,,,,,,,,,,,,,,,,,,,,,,,,,13_14Exp,001,2021_Apr_28_1440,ComputerHuman,2020.1.3,60.03196610918258,
Computer.xlsx,c,Sychronize.jpg,Number9.jpg,9,Computer,,,,,0,2,2,5,0,1,1,6,,,,,,,,,,,,,,,,,,,,,,,,,,,,,609.1552699954445,None,609.1552699954445,None,609.588905711702,None,609.588905711702,None,v,9.518835847131413,609.588905711702,None,t,9.83048988599694,609.588905711702,None,9.518835847131413,9.83048988599694,9.308808965781472,False,True,False,619.5026884065846,None,619.5026884065846,None,619.5026884065846,None,619.5026884065846,None,619.5026884065846,None,619.5026884065846,None,619.5026884065846,None,619.5026884065846,None,620.5024449391494,None,620.5024449391494,None,621.485488506667,None,621.485488506667,None,c,,,,,,,,,,,,,,,,,,,,,,,,,,,,,,,,,,,,,,,,,,,,,,,13_14Exp,001,2021_Apr_28_1440,ComputerHuman,2020.1.3,60.03196610918258,
Computer.xlsx,c,Sychronize.jpg,Number7.jpg,7,Computer,,,,,0,2,2,5,0,2,2,2,,,,,,,,,,,,,,,,,,,,,,,,,,,,,622.5363626157196,None,622.5363626157196,None,622.9852280382111,None,622.9852280382111,None,v,7.477556728874333,622.9852280382111,None,t,6.412798881141498,622.9852280382111,None,7.477556728874333,6.412798881141498,7.259104320965614,False,True,False,630.5499005600686,None,630.5499005600686,None,630.5499005600686,None,630.5499005600686,None,630.5499005600686,None,630.5499005600686,None,630.5499005600686,None,630.5499005600686,None,631.5327391530263,None,631.5327391530263,None,632.5157050932467,None,632.5157050932467,None,c,,,,,,,,,,,,,,,,,,,,,,,,,,,,,,,,,,,,,,,,,,,,,,,13_14Exp,001,2021_Apr_28_1440,ComputerHuman,2020.1.3,60.03196610918258,
Computer.xlsx,c,Sychronize.jpg,Number8.jpg,8,Computer,,,,,0,2,2,5,0,3,3,4,,,,,,,,,,,,,,,,,,,,,,,,,,,,,633.5828806143436,None,633.5828806143436,None,634.0328607263582,None,634.0328607263582,None,v,8.652849114343553,634.0328607263582,None,t,8.521116550011357,634.0328607263582,None,8.652849114343553,8.521116550011357,7.931826669086787,False,False,False,642.7800542749537,None,642.7800542749537,None,642.7800542749537,None,642.7800542749537,None,642.7800542749537,None,642.7800542749537,None,642.7800542749537,None,642.7800542749537,None,643.763036253873,None,643.763036253873,None,644.7461260128439,None,644.7461260128439,None,c,,,,,,,,,,,,,,,,,,,,,,,,,,,,,,,,,,,,,,,,,,,,,,,13_14Exp,001,2021_Apr_28_1440,ComputerHuman,2020.1.3,60.03196610918258,
Computer.xlsx,c,Sychronize.jpg,Number7.jpg,7,Computer,,,,,0,2,2,5,0,4,4,3,,,,,,,,,,,,,,,,,,,,,,,,,,,,,645.8130837284189,None,645.8130837284189,None,646.2463544039056,None,646.2463544039056,None,v,7.2663979650096735,646.2463544039056,None,t,6.457836828700238,646.2463544039056,None,7.2663979650096735,6.457836828700238,7.2612993583124315,False,True,False,653.6105794460855,None,653.6105794460855,None,653.6105794460855,None,653.6105794460855,None,653.6105794460855,None,653.6105794460855,None,653.6105794460855,None,653.6105794460855,None,654.6103183360792,None,654.6103183360792,None,655.5933907732579,None,655.5933907732579,None,c,,,,,,,,,,,,,,,,,,,,,,,,,,,,,,,,,,,,,,,,,,,,,,,13_14Exp,001,2021_Apr_28_1440,ComputerHuman,2020.1.3,60.03196610918258,
Computer.xlsx,c,Sychronize.jpg,Number8.jpg,8,Computer,,,,,0,2,2,5,0,5,5,5,,,,,,,,,,,,,,,,,,,,,,,,,,,,,656.6430623007182,None,656.6430623007182,None,657.0934517203095,None,657.0934517203095,None,v,8.80221109492777,657.0934517203095,None,t,7.477718719728728,657.0934517203095,None,8.80221109492777,7.477718719728728,8.363359712086528,False,False,False,665.9907174430446,None,665.9907174430446,None,665.9907174430446,None,665.9907174430446,None,665.9907174430446,None,665.9907174430446,None,665.9907174430446,None,665.9907174430446,None,666.9903905743777,None,666.9903905743777,None,667.9736137753171,None,667.9736137753171,None,c,,,,,,,,,,,,,,,,,,,,,,,,,,,,,,,,,,,,,,,,,,,,,,,13_14Exp,001,2021_Apr_28_1440,ComputerHuman,2020.1.3,60.03196610918258,
Computer.xlsx,c,Sychronize.jpg,Number6.jpg,6,Computer,,,,,0,2,2,5,0,6,6,1,,,,,,,,,,,,,,,,,,,,,,,,,,,,,669.0238726399039,None,669.0238726399039,None,669.4737565197283,None,669.4737565197283,None,v,6.369029594603489,669.4737565197283,None,t,6.052896268112818,669.4737565197283,None,6.369029594603489,6.052896268112818,6.127911613565762,False,True,True,675.9233706286504,None,675.9233706286504,None,675.9233706286504,None,675.9233706286504,None,675.9233706286504,None,675.9233706286504,None,675.9233706286504,None,675.9233706286504,None,676.9212512750746,None,676.9212512750746,None,677.9042845778276,None,677.9042845778276,None,c,,,,,,,,,,,,,,,,,,,,,,,,,,,,,,,,,,,,,,,,,,,,,,,13_14Exp,001,2021_Apr_28_1440,ComputerHuman,2020.1.3,60.03196610918258,
Computer.xlsx,c,Sychronize.jpg,Number10.jpg,10,Computer,,,,,0,2,2,5,0,7,7,9,,,,,,,,,,,,,,,,,,,,,,,,,,,,,678.9540314871701,None,678.9540314871701,None,679.4044125666405,None,679.4044125666405,None,v,11.361108402354148,679.4044125666405,None,t,8.248638314526033,679.4044125666405,None,11.361108402354148,8.248638314526033,9.597291288140877,False,False,False,690.8359770454153,None,690.8359770454153,None,690.8359770454153,None,690.8359770454153,None,690.8359770454153,None,690.8359770454153,None,690.8359770454153,None,690.8359770454153,None,691.8340899321884,None,691.8340899321884,None,692.8170379090661,None,692.8170379090661,None,c,,,,,,,,,,,,,,,,,,,,,,,,,,,,,,,,,,,,,,,,,,,,,,,13_14Exp,001,2021_Apr_28_1440,ComputerHuman,2020.1.3,60.03196610918258,
Computer.xlsx,c,Sychronize.jpg,Number6.jpg,6,Computer,,,,,0,2,2,5,0,8,8,0,,,,,,,,,,,,,,,,,,,,,,,,,,,,,693.8669217888928,None,693.8669217888928,None,694.3173923642971,None,694.3173923642971,None,v,6.139266582409618,694.3173923642971,None,t,6.466791554663359,694.3173923642971,None,6.139266582409618,6.466791554663359,5.622112853737765,False,False,False,700.8665843346826,None,700.8665843346826,None,700.8665843346826,None,700.8665843346826,None,700.8665843346826,None,700.8665843346826,None,700.8665843346826,None,700.8665843346826,None,701.8814557363985,None,701.8814557363985,None,702.8646276135041,None,702.8646276135041,None,c,,,,,,,,,,,,,,,,,,,,,,,,,,,,,,,,,,,,,,,,,,,,,,,13_14Exp,001,2021_Apr_28_1440,ComputerHuman,2020.1.3,60.03196610918258,
Computer.xlsx,c,Sychronize.jpg,Number9.jpg,9,Computer,,,,,0,2,2,5,0,9,9,7,,,,,,,,,,,,,,,,,,,,,,,,,,,,,703.9140434841174,None,703.9140434841174,None,704.364835475033,None,704.364835475033,None,v,8.726701224717544,704.364835475033,None,t,6.573858205076249,704.364835475033,None,8.726701224717544,6.573858205076249,9.312547807822753,False,False,False,713.1467127084215,None,713.1467127084215,None,713.1467127084215,None,713.1467127084215,None,713.1467127084215,None,713.1467127084215,None,713.1467127084215,None,713.1467127084215,None,714.1616902863207,None,714.1616902863207,None,715.1447806868418,None,715.1447806868418,None,c,,,,,,,,,,,,,,,,,,,,,,,,,,,,,,,,,,,,,,,,,,,,,,,13_14Exp,001,2021_Apr_28_1440,ComputerHuman,2020.1.3,60.03196610918258,
Computer.xlsx,c,,,,,,,,,0,2,2,5,,,,,,,,,,,,,,,,,,,,,,,,,,,,,,,,,,,,,,,,,,,,,,,,,,,,,,,,,,,,,,,,,,,,,,,,,,,,,,,c,716.1616678321443,None,716.1616678321443,None,a,1,3.3013366651066463,716.1616678321443,None,o,0,2.2132367375998,716.1616678321443,None,c,h,719.5607635703418,None,719.5607635703418,None,721.5598593085379,None,None,None,None,None,None,None,None,,,,,,,,,,,,,,,,,,13_14Exp,001,2021_Apr_28_1440,ComputerHuman,2020.1.3,60.03196610918258,
Human.xlsx,h,Sychronize.jpg,Number7.jpg,7,Human,,,,,0,3,3,6,0,0,0,3,,,,,,,,,,,,,,,,,,,,,,,,,726.545032173628,None,726.545032173628,None,729.6248153945817,None,729.6248153945817,None,730.0581457340268,None,730.0581457340268,None,v,6.471791137657419,730.0581457340268,None,t,5.926891122900997,730.0581457340268,None,6.471791137657419,5.926891122900997,7.469886240839326,False,False,False,736.6226229045424,None,736.6226229045424,None,736.6226229045424,None,736.6226229045424,None,736.6226229045424,None,736.6226229045424,None,736.6226229045424,None,736.6226229045424,None,737.6246376858071,None,737.6246376858071,None,738.6220840042843,None,738.6220840042843,None,h,,,,,,,,,,,,,,,,,,,,,,,,,,,,,,,,,,,,,,,,,,,,,,,13_14Exp,001,2021_Apr_28_1440,ComputerHuman,2020.1.3,60.03196610918258,
Human.xlsx,h,Sychronize.jpg,Number9.jpg,9,Human,,,,,0,3,3,6,0,1,1,7,,,,,,,,,,,,,,,,,,,,,,,,,,,,,739.656060382491,None,739.656060382491,None,740.1219499207691,None,740.1219499207691,None,v,8.4784991627821,740.1219499207691,None,t,8.289574204638484,740.1219499207691,None,8.4784991627821,8.289574204638484,8.386717497109228,True,False,False,748.6708615347088,None,748.6708615347088,None,748.6708615347088,None,748.6708615347088,None,748.6708615347088,None,748.6708615347088,None,748.6708615347088,None,748.6708615347088,None,749.670865383996,None,749.670865383996,None,750.6690475579453,None,750.6690475579453,None,h,,,,,,,,,,,,,,,,,,,,,,,,,,,,,,,,,,,,,,,,,,,,,,,13_14Exp,001,2021_Apr_28_1440,ComputerHuman,2020.1.3,60.03196610918258,
Human.xlsx,h,Sychronize.jpg,Number10.jpg,10,Human,,,,,0,3,3,6,0,2,2,9,,,,,,,,,,,,,,,,,,,,,,,,,,,,,751.7193696150061,None,751.7193696150061,None,752.1691736221146,None,752.1691736221146,None,v,9.506126782700449,752.1691736221146,None,t,9.377552238038334,752.1691736221146,None,9.506126782700449,9.377552238038334,9.868006830695556,True,False,False,761.7661593091798,None,761.7661593091798,None,761.7661593091798,None,761.7661593091798,None,761.7661593091798,None,761.7661593091798,None,761.7661593091798,None,761.7661593091798,None,762.7349832876753,None,762.7349832876753,None,763.7323449218275,None,763.7323449218275,None,h,,,,,,,,,,,,,,,,,,,,,,,,,,,,,,,,,,,,,,,,,,,,,,,13_14Exp,001,2021_Apr_28_1440,ComputerHuman,2020.1.3,60.03196610918258,
Human.xlsx,h,Sychronize.jpg,Number8.jpg,8,Human,,,,,0,3,3,6,0,3,3,4,,,,,,,,,,,,,,,,,,,,,,,,,,,,,764.7987169041444,None,764.7987169041444,None,765.2327150949786,None,765.2327150949786,None,v,8.513562964719313,765.2327150949786,None,t,10.11647783772787,765.2327150949786,None,8.513562964719313,10.11647783772787,7.885852868976604,False,False,False,775.4304574878261,None,775.4304574878261,None,775.4304574878261,None,775.4304574878261,None,775.4304574878261,None,775.4304574878261,None,775.4304574878261,None,775.4304574878261,None,776.4149641053918,None,776.4149641053918,None,777.4122330358696,None,777.4122330358696,None,h,,,,,,,,,,,,,,,,,,,,,,,,,,,,,,,,,,,,,,,,,,,,,,,13_14Exp,001,2021_Apr_28_1440,ComputerHuman,2020.1.3,60.03196610918258,
Human.xlsx,h,Sychronize.jpg,Number7.jpg,7,Human,,,,,0,3,3,6,0,4,4,2,,,,,,,,,,,,,,,,,,,,,,,,,,,,,778.4626166815287,None,778.4626166815287,None,778.911774329099,None,778.911774329099,None,v,7.149369999937335,778.911774329099,None,t,7.072878561393736,778.911774329099,None,7.149369999937335,7.072878561393736,7.110593907732005,True,False,False,786.1445028965863,None,786.1445028965863,None,786.1445028965863,None,786.1445028965863,None,786.1445028965863,None,786.1445028965863,None,786.1445028965863,None,786.1445028965863,None,787.1446636043438,None,787.1446636043438,None,788.1427848312414,None,788.1427848312414,None,h,,,,,,,,,,,,,,,,,,,,,,,,,,,,,,,,,,,,,,,,,,,,,,,13_14Exp,001,2021_Apr_28_1440,ComputerHuman,2020.1.3,60.03196610918258,
Human.xlsx,h,Sychronize.jpg,Number6.jpg,6,Human,,,,,0,3,3,6,0,5,5,0,,,,,,,,,,,,,,,,,,,,,,,,,,,,,789.1925846682861,None,789.1925846682861,None,789.6430568475625,None,789.6430568475625,None,v,5.617256356134021,789.6430568475625,None,t,6.384995477084885,789.6430568475625,None,5.617256356134021,6.384995477084885,6.368846992440431,False,False,False,796.1240647835075,None,796.1240647835075,None,796.1240647835075,None,796.1240647835075,None,796.1240647835075,None,796.1240647835075,None,796.1240647835075,None,796.1240647835075,None,797.0920547497008,None,797.0920547497008,None,798.0902253757849,None,798.0902253757849,None,h,,,,,,,,,,,,,,,,,,,,,,,,,,,,,,,,,,,,,,,,,,,,,,,13_14Exp,001,2021_Apr_28_1440,ComputerHuman,2020.1.3,60.03196610918258,
Human.xlsx,h,Sychronize.jpg,Number9.jpg,9,Human,,,,,0,3,3,6,0,6,6,6,,,,,,,,,,,,,,,,,,,,,,,,,,,,,799.1567003265482,None,799.1567003265482,None,799.6070881422675,None,799.6070881422675,None,v,8.400130234229437,799.6070881422675,None,t,8.97562727348486,799.6070881422675,None,8.400130234229437,8.97562727348486,8.732149689581268,False,False,False,808.6555801838658,None,808.6555801838658,None,808.6555801838658,None,808.6555801838658,None,808.6555801838658,None,808.6555801838658,None,808.6555801838658,None,808.6555801838658,None,809.639361852278,None,809.639361852278,None,810.6369419334951,None,810.6369419334951,None,h,,,,,,,,,,,,,,,,,,,,,,,,,,,,,,,,,,,,,,,,,,,,,,,13_14Exp,001,2021_Apr_28_1440,ComputerHuman,2020.1.3,60.03196610918258,
Human.xlsx,h,Sychronize.jpg,Number10.jpg,10,Human,,,,,0,3,3,6,0,7,7,8,,,,,,,,,,,,,,,,,,,,,,,,,,,,,811.7034460746872,None,811.7034460746872,None,812.1370352787198,None,812.1370352787198,None,v,10.904954353864014,812.1370352787198,None,t,7.940696271962224,812.1370352787198,None,10.904954353864014,7.940696271962224,9.542126359417415,False,False,False,823.1337001918218,None,823.1337001918218,None,823.1337001918218,None,823.1337001918218,None,823.1337001918218,None,823.1337001918218,None,823.1337001918218,None,823.1337001918218,None,824.118723897016,None,824.118723897016,None,825.0999528462271,None,825.0999528462271,None,h,,,,,,,,,,,,,,,,,,,,,,,,,,,,,,,,,,,,,,,,,,,,,,,13_14Exp,001,2021_Apr_28_1440,ComputerHuman,2020.1.3,60.03196610918258,
Human.xlsx,h,Sychronize.jpg,Number6.jpg,6,Human,,,,,0,3,3,6,0,8,8,1,,,,,,,,,,,,,,,,,,,,,,,,,,,,,826.1501372912571,None,826.1501372912571,None,826.6001825203857,None,826.6001825203857,None,v,6.644862804976583,826.6001825203857,None,t,5.639905884920154,826.6001825203857,None,6.644862804976583,5.639905884920154,5.934873101232779,False,False,False,833.3311644736423,None,833.3311644736423,None,833.3311644736423,None,833.3311644736423,None,833.3311644736423,None,833.3311644736423,None,833.3311644736423,None,833.3311644736423,None,834.3171787288375,None,834.3171787288375,None,835.3140476541776,None,835.3140476541776,None,h,,,,,,,,,,,,,,,,,,,,,,,,,,,,,,,,,,,,,,,,,,,,,,,13_14Exp,001,2021_Apr_28_1440,ComputerHuman,2020.1.3,60.03196610918258,
Human.xlsx,h,Sychronize.jpg,Number8.jpg,8,Human,,,,,0,3,3,6,0,9,9,5,,,,,,,,,,,,,,,,,,,,,,,,,,,,,836.3476012522988,None,836.3476012522988,None,836.8142067580666,None,836.8142067580666,None,v,8.0778268205504,836.8142067580666,None,t,7.50093698074852,836.8142067580666,None,8.0778268205504,7.50093698074852,8.293438938378946,False,False,False,844.9633217426999,None,844.9633217426999,None,844.9633217426999,None,844.9633217426999,None,844.9633217426999,None,844.9633217426999,None,844.9633217426999,None,844.9633217426999,None,845.9466299487394,None,845.9466299487394,None,846.9443688130705,None,846.9443688130705,None,h,,,,,,,,,,,,,,,,,,,,,,,,,,,,,,,,,,,,,,,,,,,,,,,13_14Exp,001,2021_Apr_28_1440,ComputerHuman,2020.1.3,60.03196610918258,
Human.xlsx,h,,,,,,,,,0,3,3,6,,,,,,,,,,,,,,,,,,,,,,,,,,,,,,,,,,,,,,,,,,,,,,,,,,,,,,,,,,,,,,,,,,,,,,,,,,,,,,,h,847.9452900758952,None,847.9452900758952,None,q,1,4.1901201619257336,847.9452900758952,None,l,0,2.8931976673302415,847.9452900758952,None,h,c,852.2264789283581,None,852.2264789283581,None,854.2258842134288,None,None,None,None,None,None,None,None,,,,,,,,,,,,,,,,,,13_14Exp,001,2021_Apr_28_1440,ComputerHuman,2020.1.3,60.03196610918258,
Human.xlsx,h,Sychronize.jpg,Number6.jpg,6,Human,,,,,0,4,4,8,0,0,0,0,,,,,,,,,,,,,,,,,,,,,,,,,859.2273562451483,None,859.2273562451483,None,862.291259230271,None,862.291259230271,None,862.7241606949246,None,862.7241606949246,None,v,6.513708596099605,862.7241606949246,None,t,5.100805463422148,862.7241606949246,None,6.513708596099605,5.100805463422148,5.853434097306485,False,False,False,869.305823330531,None,869.305823330531,None,869.305823330531,None,869.305823330531,None,869.305823330531,None,869.305823330531,None,869.305823330531,None,869.305823330531,None,870.3236490604504,None,870.3236490604504,None,871.3214835154249,None,871.3214835154249,None,h,,,,,,,,,,,,,,,,,,,,,,,,,,,,,,,,,,,,,,,,,,,,,,,13_14Exp,001,2021_Apr_28_1440,ComputerHuman,2020.1.3,60.03196610918258,
Human.xlsx,h,Sychronize.jpg,Number10.jpg,10,Human,,,,,0,4,4,8,0,1,1,8,,,,,,,,,,,,,,,,,,,,,,,,,,,,,872.3716512802093,None,872.3716512802093,None,872.8213750938266,None,872.8213750938266,None,v,11.303231476907968,872.8213750938266,None,t,9.2545254790748,872.8213750938266,None,11.303231476907968,9.2545254790748,10.190911607672053,False,False,False,884.2181609387117,None,884.2181609387117,None,884.2181609387117,None,884.2181609387117,None,884.2181609387117,None,884.2181609387117,None,884.2181609387117,None,884.2181609387117,None,885.2031006011312,None,885.2031006011312,None,886.2010171742368,None,886.2010171742368,None,h,,,,,,,,,,,,,,,,,,,,,,,,,,,,,,,,,,,,,,,,,,,,,,,13_14Exp,001,2021_Apr_28_1440,ComputerHuman,2020.1.3,60.03196610918258,
Human.xlsx,h,Sychronize.jpg,Number8.jpg,8,Human,,,,,0,4,4,8,0,2,2,4,,,,,,,,,,,,,,,,,,,,,,,,,,,,,887.2509761151705,None,887.2509761151705,None,887.7008715428565,None,887.7008715428565,None,v,9.546545585188142,887.7008715428565,None,t,7.389727534595295,887.7008715428565,None,9.546545585188142,7.389727534595295,7.462971350659213,False,False,False,897.2996481109622,None,897.2996481109622,None,897.2996481109622,None,897.2996481109622,None,897.2996481109622,None,897.2996481109622,None,897.2996481109622,None,897.2996481109622,None,898.3002909419847,None,898.3002909419847,None,899.3137323333722,None,899.3137323333722,None,h,,,,,,,,,,,,,,,,,,,,,,,,,,,,,,,,,,,,,,,,,,,,,,,13_14Exp,001,2021_Apr_28_1440,ComputerHuman,2020.1.3,60.03196610918258,
Human.xlsx,h,Sychronize.jpg,Number10.jpg,10,Human,,,,,0,4,4,8,0,3,3,9,,,,,,,,,,,,,,,,,,,,,,,,,,,,,900.3644540747919,None,900.3644540747919,None,900.8144441307995,None,900.8144441307995,None,v,10.727751438673295,900.8144441307995,None,t,10.019513963292411,900.8144441307995,None,10.727751438673295,10.019513963292411,10.448100532850322,False,False,False,911.6126686469106,None,911.6126686469106,None,911.6126686469106,None,911.6126686469106,None,911.6126686469106,None,911.6126686469106,None,911.6126686469106,None,911.6126686469106,None,912.5958905647531,None,912.5958905647531,None,913.5939604678169,None,913.5939604678169,None,h,,,,,,,,,,,,,,,,,,,,,,,,,,,,,,,,,,,,,,,,,,,,,,,13_14Exp,001,2021_Apr_28_1440,ComputerHuman,2020.1.3,60.03196610918258,
Human.xlsx,h,Sychronize.jpg,Number9.jpg,9,Human,,,,,0,4,4,8,0,4,4,6,,,,,,,,,,,,,,,,,,,,,,,,,,,,,914.6442340880058,None,914.6442340880058,None,915.0940053761697,None,915.0940053761697,None,v,9.823041835341428,915.0940053761697,None,t,9.610497648729506,915.0940053761697,None,9.823041835341428,9.610497648729506,9.167745629289332,True,False,False,924.9925692711367,None,924.9925692711367,None,924.9925692711367,None,924.9925692711367,None,924.9925692711367,None,924.9925692711367,None,924.9925692711367,None,924.9925692711367,None,925.9757828488582,None,925.9757828488582,None,926.9739066419461,None,926.9739066419461,None,h,,,,,,,,,,,,,,,,,,,,,,,,,,,,,,,,,,,,,,,,,,,,,,,13_14Exp,001,2021_Apr_28_1440,ComputerHuman,2020.1.3,60.03196610918258,
Human.xlsx,h,Sychronize.jpg,Number6.jpg,6,Human,,,,,0,4,4,8,0,5,5,1,,,,,,,,,,,,,,,,,,,,,,,,,,,,,928.0409131151646,None,928.0409131151646,None,928.4739011887868,None,928.4739011887868,None,v,7.266205821408221,928.4739011887868,None,t,6.609775265762437,928.4739011887868,None,7.266205821408221,6.609775265762437,6.4491773133603285,False,False,False,935.8382449173369,None,935.8382449173369,None,935.8382449173369,None,935.8382449173369,None,935.8382449173369,None,935.8382449173369,None,935.8382449173369,None,935.8382449173369,None,936.8236179453779,None,936.8236179453779,None,937.8211284186473,None,937.8211284186473,None,h,,,,,,,,,,,,,,,,,,,,,,,,,,,,,,,,,,,,,,,,,,,,,,,13_14Exp,001,2021_Apr_28_1440,ComputerHuman,2020.1.3,60.03196610918258,
Human.xlsx,h,Sychronize.jpg,Number9.jpg,9,Human,,,,,0,4,4,8,0,6,6,7,,,,,,,,,,,,,,,,,,,,,,,,,,,,,938.87135777203,None,938.87135777203,None,939.3209362750422,None,939.3209362750422,None,v,10.73386988124912,939.3209362750422,None,t,9.51758771563982,939.3209362750422,None,10.73386988124912,9.51758771563982,8.673181415217622,False,False,False,950.1364023916904,None,950.1364023916904,None,950.1364023916904,None,950.1364023916904,None,950.1364023916904,None,950.1364023916904,None,950.1364023916904,None,950.1364023916904,None,951.1369037613949,None,951.1369037613949,None,952.134081592063,None,952.134081592063,None,h,,,,,,,,,,,,,,,,,,,,,,,,,,,,,,,,,,,,,,,,,,,,,,,13_14Exp,001,2021_Apr_28_1440,ComputerHuman,2020.1.3,60.03196610918258,
Human.xlsx,h,Sychronize.jpg,Number8.jpg,8,Human,,,,,0,4,4,8,0,7,7,5,,,,,,,,,,,,,,,,,,,,,,,,,,,,,953.1844196878228,None,953.1844196878228,None,953.6342358843394,None,953.6342358843394,None,v,10.275368729671754,953.6342358843394,None,t,8.046686404959473,953.6342358843394,None,10.275368729671754,8.046686404959473,8.12295535427246,False,False,False,963.9977866596528,None,963.9977866596528,None,963.9977866596528,None,963.9977866596528,None,963.9977866596528,None,963.9977866596528,None,963.9977866596528,None,963.9977866596528,None,964.9664656483146,None,964.9664656483146,None,965.9805967037246,None,965.9805967037246,None,h,,,,,,,,,,,,,,,,,,,,,,,,,,,,,,,,,,,,,,,,,,,,,,,13_14Exp,001,2021_Apr_28_1440,ComputerHuman,2020.1.3,60.03196610918258,
Human.xlsx,h,Sychronize.jpg,Number7.jpg,7,Human,,,,,0,4,4,8,0,8,8,3,,,,,,,,,,,,,,,,,,,,,,,,,,,,,967.0310922994977,None,967.0310922994977,None,967.4806111385551,None,967.4806111385551,None,v,8.523972721381142,967.4806111385551,None,t,7.427732513009687,967.4806111385551,None,8.523972721381142,7.427732513009687,6.766840672283275,False,False,False,976.0946186959882,None,976.0946186959882,None,976.0946186959882,None,976.0946186959882,None,976.0946186959882,None,976.0946186959882,None,976.0946186959882,None,976.0946186959882,None,977.0632200573527,None,977.0632200573527,None,978.0607950061894,None,978.0607950061894,None,h,,,,,,,,,,,,,,,,,,,,,,,,,,,,,,,,,,,,,,,,,,,,,,,13_14Exp,001,2021_Apr_28_1440,ComputerHuman,2020.1.3,60.03196610918258,
Human.xlsx,h,Sychronize.jpg,Number7.jpg,7,Human,,,,,0,4,4,8,0,9,9,2,,,,,,,,,,,,,,,,,,,,,,,,,,,,,979.1108922007006,None,979.1108922007006,None,979.5606410346882,None,979.5606410346882,None,v,8.77141743598986,979.5606410346882,None,t,6.286738883580256,979.5606410346882,None,8.77141743598986,6.286738883580256,7.187580746589086,False,False,False,988.4099735040691,None,988.4099735040691,None,988.4099735040691,None,988.4099735040691,None,988.4099735040691,None,988.4099735040691,None,988.4099735040691,None,988.4099735040691,None,989.3916977282788,None,989.3916977282788,None,990.4074416351759,None,990.4074416351759,None,h,,,,,,,,,,,,,,,,,,,,,,,,,,,,,,,,,,,,,,,,,,,,,,,13_14Exp,001,2021_Apr_28_1440,ComputerHuman,2020.1.3,60.03196610918258,
Human.xlsx,h,,,,,,,,,0,4,4,8,,,,,,,,,,,,,,,,,,,,,,,,,,,,,,,,,,,,,,,,,,,,,,,,,,,,,,,,,,,,,,,,,,,,,,,,,,,,,,,h,991.4076944050612,None,991.4076944050612,None,q,1,2.811278733330255,991.4076944050612,None,o,0,2.4862343061322463,991.4076944050612,None,h,h,994.307084292981,None,994.307084292981,None,None,None,996.2894821425107,None,996.2894821425107,None,"['space', 'space']",997.2723852110357,None,"[4.969953102845466, 11.837692544570018]",,,,,,,,,,,,,,,,,13_14Exp,001,2021_Apr_28_1440,ComputerHuman,2020.1.3,60.03196610918258,
Human.xlsx,h,Sychronize.jpg,Number10.jpg,10,Human,,,,,0,5,5,2,0,0,0,9,,,,,,,,,,,,,,,,,,,,,,,,,1009.1722421458471,None,1009.1722421458471,None,1012.235236378332,None,1012.235236378332,None,1012.6688913410253,None,1012.6688913410253,None,v,12.227405323566927,1012.6688913410253,None,t,8.926629050572956,1012.6688913410253,None,12.227405323566927,8.926629050572956,9.91805357295039,False,False,False,1024.9821168515373,None,1024.9821168515373,None,1024.9821168515373,None,1024.9821168515373,None,1024.9821168515373,None,1024.9821168515373,None,1024.9821168515373,None,1024.9821168515373,None,1025.9841062916603,None,1025.9841062916603,None,1026.9649695585504,None,1026.9649695585504,None,h,,,,,,,,,,,,,,,,,,,,,,,,,,,,,,,,,,,,,,,,,,,,,,,13_14Exp,001,2021_Apr_28_1440,ComputerHuman,2020.1.3,60.03196610918258,
Human.xlsx,h,Sychronize.jpg,Number7.jpg,7,Human,,,,,0,5,5,2,0,1,1,3,,,,,,,,,,,,,,,,,,,,,,,,,,,,,1028.0152528019607,None,1028.0152528019607,None,1028.4647514322533,None,1028.4647514322533,None,v,7.610556350362458,1028.4647514322533,None,t,7.509714960255224,1028.4647514322533,None,7.610556350362458,7.509714960255224,6.863193231717812,True,False,False,1036.1625640745988,None,1036.1625640745988,None,1036.1625640745988,None,1036.1625640745988,None,1036.1625640745988,None,1036.1625640745988,None,1036.1625640745988,None,1036.1625640745988,None,1037.1481414356567,None,1037.1481414356567,None,1038.1454376319161,None,1038.1454376319161,None,h,,,,,,,,,,,,,,,,,,,,,,,,,,,,,,,,,,,,,,,,,,,,,,,13_14Exp,001,2021_Apr_28_1440,ComputerHuman,2020.1.3,60.03196610918258,
Human.xlsx,h,Sychronize.jpg,Number8.jpg,8,Human,,,,,0,5,5,2,0,2,2,4,,,,,,,,,,,,,,,,,,,,,,,,,,,,,1039.178816087453,None,1039.178816087453,None,1039.6456544751163,None,1039.6456544751163,None,v,8.7485728766369,1039.6456544751163,None,t,7.475720618709602,1039.6456544751163,None,8.7485728766369,7.475720618709602,7.775294890162666,False,False,False,1048.4928079269666,None,1048.4928079269666,None,1048.4928079269666,None,1048.4928079269666,None,1048.4928079269666,None,1048.4928079269666,None,1048.4928079269666,None,1048.4928079269666,None,1049.478108780866,None,1049.478108780866,None,1050.4756381797997,None,1050.4756381797997,None,h,,,,,,,,,,,,,,,,,,,,,,,,,,,,,,,,,,,,,,,,,,,,,,,13_14Exp,001,2021_Apr_28_1440,ComputerHuman,2020.1.3,60.03196610918258,
Human.xlsx,h,Sychronize.jpg,Number7.jpg,7,Human,,,,,0,5,5,2,0,3,3,2,,,,,,,,,,,,,,,,,,,,,,,,,,,,,1051.5424679065654,None,1051.5424679065654,None,1051.9756362551561,None,1051.9756362551561,None,v,7.905625733768829,1051.9756362551561,None,t,7.524709859950235,1051.9756362551561,None,7.905625733768829,7.524709859950235,7.011532048875277,False,False,False,1059.9731300481799,None,1059.9731300481799,None,1059.9731300481799,None,1059.9731300481799,None,1059.9731300481799,None,1059.9731300481799,None,1059.9731300481799,None,1059.9731300481799,None,1060.9419700653743,None,1060.9419700653743,None,1061.9393644184674,None,1061.9393644184674,None,h,,,,,,,,,,,,,,,,,,,,,,,,,,,,,,,,,,,,,,,,,,,,,,,13_14Exp,001,2021_Apr_28_1440,ComputerHuman,2020.1.3,60.03196610918258,
Human.xlsx,h,Sychronize.jpg,Number9.jpg,9,Human,,,,,0,5,5,2,0,4,4,7,,,,,,,,,,,,,,,,,,,,,,,,,,,,,1062.9896287362135,None,1062.9896287362135,None,1063.4392874327168,None,1063.4392874327168,None,v,9.98488801781059,1063.4392874327168,None,t,8.860621146701305,1063.4392874327168,None,9.98488801781059,8.860621146701305,8.469451335256794,False,False,False,1073.5046047102442,None,1073.5046047102442,None,1073.5046047102442,None,1073.5046047102442,None,1073.5046047102442,None,1073.5046047102442,None,1073.5046047102442,None,1073.5046047102442,None,1074.4877371321527,None,1074.4877371321527,None,1075.485831734808,None,1075.485831734808,None,h,,,,,,,,,,,,,,,,,,,,,,,,,,,,,,,,,,,,,,,,,,,,,,,13_14Exp,001,2021_Apr_28_1440,ComputerHuman,2020.1.3,60.03196610918258,
Human.xlsx,h,Sychronize.jpg,Number10.jpg,10,Human,,,,,0,5,5,2,0,5,5,8,,,,,,,,,,,,,,,,,,,,,,,,,,,,,1076.5525405297885,None,1076.5525405297885,None,1076.9858955688287,None,1076.9858955688287,None,v,10.94492022351551,1076.9858955688287,None,t,10.204532856874721,1076.9858955688287,None,10.94492022351551,10.204532856874721,9.316194633102588,False,False,False,1088.0010389868658,None,1088.0010389868658,None,1088.0010389868658,None,1088.0010389868658,None,1088.0010389868658,None,1088.0010389868658,None,1088.0010389868658,None,1088.0010389868658,None,1089.0016163799992,None,1089.0016163799992,None,1089.9988333450929,None,1089.9988333450929,None,h,,,,,,,,,,,,,,,,,,,,,,,,,,,,,,,,,,,,,,,,,,,,,,,13_14Exp,001,2021_Apr_28_1440,ComputerHuman,2020.1.3,60.03196610918258,
Human.xlsx,h,Sychronize.jpg,Number6.jpg,6,Human,,,,,0,5,5,2,0,6,6,0,,,,,,,,,,,,,,,,,,,,,,,,,,,,,1091.049370962257,None,1091.049370962257,None,1091.4818695348113,None,1091.4818695348113,None,v,8.431853496116673,1091.4818695348113,None,t,5.479925323819771,1091.4818695348113,None,8.431853496116673,5.479925323819771,5.904799937154074,False,False,False,1099.997940310379,None,1099.997940310379,None,1099.997940310379,None,1099.997940310379,None,1099.997940310379,None,1099.997940310379,None,1099.997940310379,None,1099.997940310379,None,1100.9988468176016,None,1100.9988468176016,None,1101.995742367184,None,1101.995742367184,None,h,,,,,,,,,,,,,,,,,,,,,,,,,,,,,,,,,,,,,,,,,,,,,,,13_14Exp,001,2021_Apr_28_1440,ComputerHuman,2020.1.3,60.03196610918258,
Human.xlsx,h,Sychronize.jpg,Number9.jpg,9,Human,,,,,0,5,5,2,0,7,7,6,,,,,,,,,,,,,,,,,,,,,,,,,,,,,1103.045673080007,None,1103.045673080007,None,1103.4957388386683,None,1103.4957388386683,None,v,11.180727900275087,1103.4957388386683,None,t,7.924699915954989,1103.4957388386683,None,11.180727900275087,7.924699915954989,9.664734061292746,False,False,False,1114.7591362840249,None,1114.7591362840249,None,1114.7591362840249,None,1114.7591362840249,None,1114.7591362840249,None,1114.7591362840249,None,1114.7591362840249,None,1114.7591362840249,None,1115.7446183752145,None,1115.7446183752145,None,1116.741930930948,None,1116.741930930948,None,h,,,,,,,,,,,,,,,,,,,,,,,,,,,,,,,,,,,,,,,,,,,,,,,13_14Exp,001,2021_Apr_28_1440,ComputerHuman,2020.1.3,60.03196610918258,
Human.xlsx,h,Sychronize.jpg,Number6.jpg,6,Human,,,,,0,5,5,2,0,8,8,1,,,,,,,,,,,,,,,,,,,,,,,,,,,,,1117.8090288247477,None,1117.8090288247477,None,1118.2417407119901,None,1118.2417407119901,None,v,6.797846644381934,1118.2417407119901,None,t,7.412744028792076,1118.2417407119901,None,6.797846644381934,7.412744028792076,6.336608211298163,False,False,False,1125.7396893624937,None,1125.7396893624937,None,1125.7396893624937,None,1125.7396893624937,None,1125.7396893624937,None,1125.7396893624937,None,1125.7396893624937,None,1125.7396893624937,None,1126.7082583256888,None,1126.7082583256888,None,1127.7058169150514,None,1127.7058169150514,None,h,,,,,,,,,,,,,,,,,,,,,,,,,,,,,,,,,,,,,,,,,,,,,,,13_14Exp,001,2021_Apr_28_1440,ComputerHuman,2020.1.3,60.03196610918258,
Human.xlsx,h,Sychronize.jpg,Number8.jpg,8,Human,,,,,0,5,5,2,0,9,9,5,,,,,,,,,,,,,,,,,,,,,,,,,,,,,1128.7730896306603,None,1128.7730896306603,None,1129.2051869149873,None,1129.2051869149873,None,v,10.75707595286076,1129.2051869149873,None,t,6.252852001307474,1129.2051869149873,None,10.75707595286076,6.252852001307474,7.7689387665064915,False,False,False,1140.0526925766462,None,1140.0526925766462,None,1140.0526925766462,None,1140.0526925766462,None,1140.0526925766462,None,1140.0526925766462,None,1140.0526925766462,None,1140.0526925766462,None,1141.037767926453,None,1141.037767926453,None,1142.01878869336,None,1142.01878869336,None,h,,,,,,,,,,,,,,,,,,,,,,,,,,,,,,,,,,,,,,,,,,,,,,,13_14Exp,001,2021_Apr_28_1440,ComputerHuman,2020.1.3,60.03196610918258,
Human.xlsx,h,,,,,,,,,0,5,5,2,,,,,,,,,,,,,,,,,,,,,,,,,,,,,,,,,,,,,,,,,,,,,,,,,,,,,,,,,,,,,,,,,,,,,,,,,,,,,,,h,1143.019275628234,None,1143.019275628234,None,q,1,3.454398452588066,1143.019275628234,None,o,0,3.158135469260742,1143.019275628234,None,h,h,1146.5515750001578,None,1146.5515750001578,None,1148.567139915187,None,None,None,None,None,None,None,None,,,,,,,,,,,,,,,,,,13_14Exp,001,2021_Apr_28_1440,ComputerHuman,2020.1.3,60.03196610918258,
Human.xlsx,h,Sychronize.jpg,Number8.jpg,8,Human,,,,,0,6,6,4,0,0,0,4,,,,,,,,,,,,,,,,,,,,,,,,,1153.5689631943933,None,1153.5689631943933,None,1156.6324158128737,None,1156.6324158128737,None,1157.0822579920823,None,1157.0822579920823,None,v,9.817628774708282,1157.0822579920823,None,t,7.692676409642445,1157.0822579920823,None,9.817628774708282,7.692676409642445,7.969449173002767,False,False,False,1166.9957596889762,None,1166.9957596889762,None,1166.9957596889762,None,1166.9957596889762,None,1166.9957596889762,None,1166.9957596889762,None,1166.9957596889762,None,1166.9957596889762,None,1167.997961481462,None,1167.997961481462,None,1168.9952239964587,None,1168.9952239964587,None,h,,,,,,,,,,,,,,,,,,,,,,,,,,,,,,,,,,,,,,,,,,,,,,,13_14Exp,001,2021_Apr_28_1440,ComputerHuman,2020.1.3,60.03196610918258,
Human.xlsx,h,Sychronize.jpg,Number10.jpg,10,Human,,,,,0,6,6,4,0,1,1,9,,,,,,,,,,,,,,,,,,,,,,,,,,,,,1170.045390157371,None,1170.045390157371,None,1170.495290717441,None,1170.495290717441,None,v,11.7272584090897,1170.495290717441,None,t,9.026519666655076,1170.495290717441,None,11.7272584090897,9.026519666655076,9.528135651834997,False,False,False,1182.2934780237738,None,1182.2934780237738,None,1182.2934780237738,None,1182.2934780237738,None,1182.2934780237738,None,1182.2934780237738,None,1182.2934780237738,None,1182.2934780237738,None,1183.2932467457467,None,1183.2932467457467,None,1184.2913365367967,None,1184.2913365367967,None,h,,,,,,,,,,,,,,,,,,,,,,,,,,,,,,,,,,,,,,,,,,,,,,,13_14Exp,001,2021_Apr_28_1440,ComputerHuman,2020.1.3,60.03196610918258,
Human.xlsx,h,Sychronize.jpg,Number9.jpg,9,Human,,,,,0,6,6,4,0,2,2,6,,,,,,,,,,,,,,,,,,,,,,,,,,,,,1185.3407687668805,None,1185.3407687668805,None,1185.7913548209108,None,1185.7913548209108,None,v,10.281918934004352,1185.7913548209108,None,t,7.757685744163609,1185.7913548209108,None,10.281918934004352,7.757685744163609,8.792546477370228,False,False,False,1196.1716458270494,None,1196.1716458270494,None,1196.1716458270494,None,1196.1716458270494,None,1196.1716458270494,None,1196.1716458270494,None,1196.1716458270494,None,1196.1716458270494,None,1197.140091292269,None,1197.140091292269,None,1198.1378221372506,None,1198.1378221372506,None,h,,,,,,,,,,,,,,,,,,,,,,,,,,,,,,,,,,,,,,,,,,,,,,,13_14Exp,001,2021_Apr_28_1440,ComputerHuman,2020.1.3,60.03196610918258,
Human.xlsx,h,Sychronize.jpg,Number7.jpg,7,Human,,,,,0,6,6,4,0,3,3,3,,,,,,,,,,,,,,,,,,,,,,,,,,,,,1199.2208166263554,None,1199.2208166263554,None,1199.6542877855682,None,1199.6542877855682,None,v,8.062040250715654,1199.6542877855682,None,t,6.422202369878505,1199.6542877855682,None,8.062040250715654,6.422202369878505,6.8164712593198145,False,False,False,1207.7868200393896,None,1207.7868200393896,None,1207.7868200393896,None,1207.7868200393896,None,1207.7868200393896,None,1207.7868200393896,None,1207.7868200393896,None,1207.7868200393896,None,1208.7701718706885,None,1208.7701718706885,None,1209.7679681535592,None,1209.7679681535592,None,h,,,,,,,,,,,,,,,,,,,,,,,,,,,,,,,,,,,,,,,,,,,,,,,13_14Exp,001,2021_Apr_28_1440,ComputerHuman,2020.1.3,60.03196610918258,
Human.xlsx,h,Sychronize.jpg,Number10.jpg,10,Human,,,,,0,6,6,4,0,4,4,8,,,,,,,,,,,,,,,,,,,,,,,,,,,,,1210.8187319163662,None,1210.8187319163662,None,1211.268233754403,None,1211.268233754403,None,v,11.338791516169294,1211.268233754403,None,t,11.310402058083127,1211.268233754403,None,11.338791516169294,11.310402058083127,10.19621730391783,True,False,False,1222.6981796077562,None,1222.6981796077562,None,1222.6981796077562,None,1222.6981796077562,None,1222.6981796077562,None,1222.6981796077562,None,1222.6981796077562,None,1222.6981796077562,None,1223.683510935185,None,1223.683510935185,None,1224.6643392377118,None,1224.6643392377118,None,h,,,,,,,,,,,,,,,,,,,,,,,,,,,,,,,,,,,,,,,,,,,,,,,13_14Exp,001,2021_Apr_28_1440,ComputerHuman,2020.1.3,60.03196610918258,
Human.xlsx,h,Sychronize.jpg,Number9.jpg,9,Human,,,,,0,6,6,4,0,5,5,7,,,,,,,,,,,,,,,,,,,,,,,,,,,,,1225.714431620614,None,1225.714431620614,None,1226.1642757244663,None,1226.1642757244663,None,v,8.813640912794654,1226.1642757244663,None,t,10.680398786189471,1226.1642757244663,None,8.813640912794654,10.680398786189471,9.230333054350833,False,False,False,1236.9278896922478,None,1236.9278896922478,None,1236.9278896922478,None,1236.9278896922478,None,1236.9278896922478,None,1236.9278896922478,None,1236.9278896922478,None,1236.9278896922478,None,1237.9126522874394,None,1237.9126522874394,None,1238.9107286059807,None,1238.9107286059807,None,h,,,,,,,,,,,,,,,,,,,,,,,,,,,,,,,,,,,,,,,,,,,,,,,13_14Exp,001,2021_Apr_28_1440,ComputerHuman,2020.1.3,60.03196610918258,
Human.xlsx,h,Sychronize.jpg,Number6.jpg,6,Human,,,,,0,6,6,4,0,6,6,0,,,,,,,,,,,,,,,,,,,,,,,,,,,,,1239.9610439267854,None,1239.9610439267854,None,1240.4109306935752,None,1240.4109306935752,None,v,7.038292071109026,1240.4109306935752,None,t,6.688818461185292,1240.4109306935752,None,7.038292071109026,6.688818461185292,6.24155573725993,False,False,False,1247.5101925926865,None,1247.5101925926865,None,1247.5101925926865,None,1247.5101925926865,None,1247.5101925926865,None,1247.5101925926865,None,1247.5101925926865,None,1247.5101925926865,None,1248.510587786208,None,1248.510587786208,None,1249.5245520391582,None,1249.5245520391582,None,h,,,,,,,,,,,,,,,,,,,,,,,,,,,,,,,,,,,,,,,,,,,,,,,13_14Exp,001,2021_Apr_28_1440,ComputerHuman,2020.1.3,60.03196610918258,
Human.xlsx,h,Sychronize.jpg,Number6.jpg,6,Human,,,,,0,6,6,4,0,7,7,1,,,,,,,,,,,,,,,,,,,,,,,,,,,,,1250.5742027163142,None,1250.5742027163142,None,1251.024751560566,None,1251.024751560566,None,v,6.871488327036786,1251.024751560566,None,t,6.630862304569746,1251.024751560566,None,6.871488327036786,6.630862304569746,5.660548173868591,True,False,False,1257.9891180640625,None,1257.9891180640625,None,1257.9891180640625,None,1257.9891180640625,None,1257.9891180640625,None,1257.9891180640625,None,1257.9891180640625,None,1257.9891180640625,None,1258.9577755608734,None,1258.9577755608734,None,1259.9552940534923,None,1259.9552940534923,None,h,,,,,,,,,,,,,,,,,,,,,,,,,,,,,,,,,,,,,,,,,,,,,,,13_14Exp,001,2021_Apr_28_1440,ComputerHuman,2020.1.3,60.03196610918258,
Human.xlsx,h,Sychronize.jpg,Number7.jpg,7,Human,,,,,0,6,6,4,0,8,8,2,,,,,,,,,,,,,,,,,,,,,,,,,,,,,1260.9889102025372,None,1260.9889102025372,None,1261.4551846695686,None,1261.4551846695686,None,v,7.619655103833793,1261.4551846695686,None,t,7.1867767349067435,1261.4551846695686,None,7.619655103833793,7.1867767349067435,6.994403012160256,False,False,False,1269.154480891495,None,1269.154480891495,None,1269.154480891495,None,1269.154480891495,None,1269.154480891495,None,1269.154480891495,None,1269.154480891495,None,1269.154480891495,None,1270.154784664439,None,1270.154784664439,None,1271.1524587324275,None,1271.1524587324275,None,h,,,,,,,,,,,,,,,,,,,,,,,,,,,,,,,,,,,,,,,,,,,,,,,13_14Exp,001,2021_Apr_28_1440,ComputerHuman,2020.1.3,60.03196610918258,
Human.xlsx,h,Sychronize.jpg,Number8.jpg,8,Human,,,,,0,6,6,4,0,9,9,5,,,,,,,,,,,,,,,,,,,,,,,,,,,,,1272.2023281774273,None,1272.2023281774273,None,1272.6525992314237,None,1272.6525992314237,None,v,8.113306024777557,1272.6525992314237,None,t,8.721023525562487,1272.6525992314237,None,8.113306024777557,8.721023525562487,7.829872471174323,False,False,False,1281.4497648726829,None,1281.4497648726829,None,1281.4497648726829,None,1281.4497648726829,None,1281.4497648726829,None,1281.4497648726829,None,1281.4497648726829,None,1281.4497648726829,None,1282.4517998627089,None,1282.4517998627089,None,1283.4492910895387,None,1283.4492910895387,None,h,,,,,,,,,,,,,,,,,,,,,,,,,,,,,,,,,,,,,,,,,,,,,,,13_14Exp,001,2021_Apr_28_1440,ComputerHuman,2020.1.3,60.03196610918258,
Human.xlsx,h,,,,,,,,,0,6,6,4,,,,,,,,,,,,,,,,,,,,,,,,,,,,,,,,,,,,,,,,,,,,,,,,,,,,,,,,,,,,,,,,,,,,,,,,,,,,,,,h,1284.450378834048,None,1284.450378834048,None,a,0,3.76684608623691,1284.450378834048,None,l,0,2.3781806342340133,1284.450378834048,None,c,c,1288.3150532805557,None,1288.3150532805557,None,1290.314243967845,None,None,None,None,None,None,None,None,,,,,,,,,,,,,,,,,,13_14Exp,001,2021_Apr_28_1440,ComputerHuman,2020.1.3,60.03196610918258,
Computer.xlsx,c,Sychronize.jpg,Number10.jpg,10,Computer,,,,,0,7,7,7,0,0,0,8,,,,,,,,,,,,,,,,,,,,,,,,,1295.2990774540813,None,1295.2990774540813,None,1298.3962989100073,None,1298.3962989100073,None,1298.828748083375,None,1298.828748083375,None,v,11.1106384684972,1298.828748083375,None,t,10.889446536602918,1298.828748083375,None,11.1106384684972,10.889446536602918,10.026874420178238,False,False,False,1310.010892200702,None,1310.010892200702,None,1310.010892200702,None,1310.010892200702,None,1310.010892200702,None,1310.010892200702,None,1310.010892200702,None,1310.010892200702,None,1311.025514040277,None,1311.025514040277,None,1312.0086073277598,None,1312.0086073277598,None,c,,,,,,,,,,,,,,,,,,,,,,,,,,,,,,,,,,,,,,,,,,,,,,,13_14Exp,001,2021_Apr_28_1440,ComputerHuman,2020.1.3,60.03196610918258,
Computer.xlsx,c,Sychronize.jpg,Number7.jpg,7,Computer,,,,,0,7,7,7,0,1,1,3,,,,,,,,,,,,,,,,,,,,,,,,,,,,,1313.0754659241793,None,1313.0754659241793,None,1313.5083580863902,None,1313.5083580863902,None,v,6.702076049092284,1313.5083580863902,None,t,6.717817710570671,1313.5083580863902,None,6.702076049092284,6.717817710570671,7.069890970864393,False,False,False,1320.3078576790067,None,1320.3078576790067,None,1320.3078576790067,None,1320.3078576790067,None,1320.3078576790067,None,1320.3078576790067,None,1320.3078576790067,None,1320.3078576790067,None,1321.3223518505438,None,1321.3223518505438,None,1322.3059914160876,None,1322.3059914160876,None,c,,,,,,,,,,,,,,,,,,,,,,,,,,,,,,,,,,,,,,,,,,,,,,,13_14Exp,001,2021_Apr_28_1440,ComputerHuman,2020.1.3,60.03196610918258,
Computer.xlsx,c,Sychronize.jpg,Number8.jpg,8,Computer,,,,,0,7,7,7,0,2,2,4,,,,,,,,,,,,,,,,,,,,,,,,,,,,,1323.355789649264,None,1323.355789649264,None,1323.805898070863,None,1323.805898070863,None,v,7.631586612176761,1323.805898070863,None,t,8.494618375214486,1323.805898070863,None,7.631586612176761,8.494618375214486,7.765781480899007,False,True,False,1332.3867863581254,None,1332.3867863581254,None,1332.3867863581254,None,1332.3867863581254,None,1332.3867863581254,None,1332.3867863581254,None,1332.3867863581254,None,1332.3867863581254,None,1333.3865278143094,None,1333.3865278143094,None,1334.3696002514844,None,1334.3696002514844,None,c,,,,,,,,,,,,,,,,,,,,,,,,,,,,,,,,,,,,,,,,,,,,,,,13_14Exp,001,2021_Apr_28_1440,ComputerHuman,2020.1.3,60.03196610918258,
Computer.xlsx,c,Sychronize.jpg,Number6.jpg,6,Computer,,,,,0,7,7,7,0,3,3,1,,,,,,,,,,,,,,,,,,,,,,,,,,,,,1335.4196506129992,None,1335.4196506129992,None,1335.869708031536,None,1335.869708031536,None,v,5.546895549585315,1335.869708031536,None,t,5.2579465333947155,1335.869708031536,None,5.546895549585315,5.2579465333947155,6.053730409686645,False,False,False,1341.48604954033,None,1341.48604954033,None,1341.48604954033,None,1341.48604954033,None,1341.48604954033,None,1341.48604954033,None,1341.48604954033,None,1341.48604954033,None,1342.4841293873833,None,1342.4841293873833,None,1343.4673073591948,None,1343.4673073591948,None,c,,,,,,,,,,,,,,,,,,,,,,,,,,,,,,,,,,,,,,,,,,,,,,,13_14Exp,001,2021_Apr_28_1440,ComputerHuman,2020.1.3,60.03196610918258,
Computer.xlsx,c,Sychronize.jpg,Number8.jpg,8,Computer,,,,,0,7,7,7,0,4,4,5,,,,,,,,,,,,,,,,,,,,,,,,,,,,,1344.5182125833198,None,1344.5182125833198,None,1344.9670783265865,None,1344.9670783265865,None,v,7.424583154232096,1344.9670783265865,None,t,6.863845887357456,1344.9670783265865,None,7.424583154232096,6.863845887357456,8.37847946927424,False,False,False,1352.481580196698,None,1352.481580196698,None,1352.481580196698,None,1352.481580196698,None,1352.481580196698,None,1352.481580196698,None,1352.481580196698,None,1352.481580196698,None,1353.4812921416778,None,1353.4812921416778,None,1354.4644569617558,None,1354.4644569617558,None,c,,,,,,,,,,,,,,,,,,,,,,,,,,,,,,,,,,,,,,,,,,,,,,,13_14Exp,001,2021_Apr_28_1440,ComputerHuman,2020.1.3,60.03196610918258,
Computer.xlsx,c,Sychronize.jpg,Number7.jpg,7,Computer,,,,,0,7,7,7,0,5,5,2,,,,,,,,,,,,,,,,,,,,,,,,,,,,,1355.514090317116,None,1355.514090317116,None,1355.9646622570945,None,1355.9646622570945,None,v,7.174082746849308,1355.9646622570945,None,t,6.8381217401365575,1355.9646622570945,None,7.174082746849308,6.8381217401365575,6.751117472498902,False,False,True,1363.2288266729956,None,1363.2288266729956,None,1363.2288266729956,None,1363.2288266729956,None,1363.2288266729956,None,1363.2288266729956,None,1363.2288266729956,None,1363.2288266729956,None,1364.2118846753438,None,1364.2118846753438,None,1365.2117108158563,None,1365.2117108158563,None,c,,,,,,,,,,,,,,,,,,,,,,,,,,,,,,,,,,,,,,,,,,,,,,,13_14Exp,001,2021_Apr_28_1440,ComputerHuman,2020.1.3,60.03196610918258,
Computer.xlsx,c,Sychronize.jpg,Number6.jpg,6,Computer,,,,,0,7,7,7,0,6,6,0,,,,,,,,,,,,,,,,,,,,,,,,,,,,,1366.2788423909187,None,1366.2788423909187,None,1366.7117996702436,None,1366.7117996702436,None,v,6.31009219043699,1366.7117996702436,None,t,6.116811763422447,1366.7117996702436,None,6.31009219043699,6.116811763422447,5.810442006382713,False,False,False,1373.109502607891,None,1373.109502607891,None,1373.109502607891,None,1373.109502607891,None,1373.109502607891,None,1373.109502607891,None,1373.109502607891,None,1373.109502607891,None,1374.109365958182,None,1374.109365958182,None,1375.075821341732,None,1375.075821341732,None,c,,,,,,,,,,,,,,,,,,,,,,,,,,,,,,,,,,,,,,,,,,,,,,,13_14Exp,001,2021_Apr_28_1440,ComputerHuman,2020.1.3,60.03196610918258,
Computer.xlsx,c,Sychronize.jpg,Number9.jpg,9,Computer,,,,,0,7,7,7,0,7,7,6,,,,,,,,,,,,,,,,,,,,,,,,,,,,,1376.1421599635578,None,1376.1421599635578,None,1376.575744997528,None,1376.575744997528,None,v,8.781029748577566,1376.575744997528,None,t,8.808633631226257,1376.575744997528,None,8.781029748577566,8.808633631226257,8.8447526943344,False,True,True,1385.4581986617304,None,1385.4581986617304,None,1385.4581986617304,None,1385.4581986617304,None,1385.4581986617304,None,1385.4581986617304,None,1385.4581986617304,None,1385.4581986617304,None,1386.47275955425,None,1386.47275955425,None,1387.4559955861478,None,1387.4559955861478,None,c,,,,,,,,,,,,,,,,,,,,,,,,,,,,,,,,,,,,,,,,,,,,,,,13_14Exp,001,2021_Apr_28_1440,ComputerHuman,2020.1.3,60.03196610918258,
Computer.xlsx,c,Sychronize.jpg,Number10.jpg,10,Computer,,,,,0,7,7,7,0,8,8,9,,,,,,,,,,,,,,,,,,,,,,,,,,,,,1388.4903960275333,None,1388.4903960275333,None,1388.9561498784242,None,1388.9561498784242,None,v,9.787740019120974,1388.9561498784242,None,t,10.234500522863527,1388.9561498784242,None,9.787740019120974,10.234500522863527,9.726612666856887,False,True,False,1399.286217946661,None,1399.286217946661,None,1399.286217946661,None,1399.286217946661,None,1399.286217946661,None,1399.286217946661,None,1399.286217946661,None,1399.286217946661,None,1400.2860511442013,None,1400.2860511442013,None,1401.2690732198644,None,1401.2690732198644,None,c,,,,,,,,,,,,,,,,,,,,,,,,,,,,,,,,,,,,,,,,,,,,,,,13_14Exp,001,2021_Apr_28_1440,ComputerHuman,2020.1.3,60.03196610918258,
Computer.xlsx,c,Sychronize.jpg,Number9.jpg,9,Computer,,,,,0,7,7,7,0,9,9,7,,,,,,,,,,,,,,,,,,,,,,,,,,,,,1402.3189965548881,None,1402.3189965548881,None,1402.7688958318613,None,1402.7688958318613,None,v,9.189568109937682,1402.7688958318613,None,t,9.680506245469587,1402.7688958318613,None,9.189568109937682,9.680506245469587,9.22624376454948,False,True,False,1412.532853348559,None,1412.532853348559,None,1412.532853348559,None,1412.532853348559,None,1412.532853348559,None,1412.532853348559,None,1412.532853348559,None,1412.532853348559,None,1413.5159549761665,None,1413.5159549761665,None,1414.498888838989,None,1414.498888838989,None,c,,,,,,,,,,,,,,,,,,,,,,,,,,,,,,,,,,,,,,,,,,,,,,,13_14Exp,001,2021_Apr_28_1440,ComputerHuman,2020.1.3,60.03196610918258,
Computer.xlsx,c,,,,,,,,,0,7,7,7,,,,,,,,,,,,,,,,,,,,,,,,,,,,,,,,,,,,,,,,,,,,,,,,,,,,,,,,,,,,,,,,,,,,,,,,,,,,,,,c,1415.5164361371098,None,1415.5164361371098,None,a,1,3.0294457667478127,1415.5164361371098,None,l,0,2.09711816671188,1415.5164361371098,None,c,c,1418.6322647283341,None,1418.6322647283341,None,1420.6308446619987,None,None,None,None,None,None,None,None,,,,,,,,,,,,,,,,,,13_14Exp,001,2021_Apr_28_1440,ComputerHuman,2020.1.3,60.03196610918258,
Computer.xlsx,c,Sychronize.jpg,Number6.jpg,6,Computer,,,,,0,8,8,3,0,0,0,0,,,,,,,,,,,,,,,,,,,,,,,,,1425.631735772069,None,1425.631735772069,None,1428.6966405342791,None,1428.6966405342791,None,1429.1291933176362,None,1429.1291933176362,None,v,5.671315109095303,1429.1291933176362,None,t,5.422923469748639,1429.1291933176362,None,5.671315109095303,5.422923469748639,5.652490345767453,False,True,True,1434.8788834499865,None,1434.8788834499865,None,1434.8788834499865,None,1434.8788834499865,None,1434.8788834499865,None,1434.8788834499865,None,1434.8788834499865,None,1434.8788834499865,None,1435.9102083106118,None,1435.9102083106118,None,1436.8932823516589,None,1436.8932823516589,None,c,,,,,,,,,,,,,,,,,,,,,,,,,,,,,,,,,,,,,,,,,,,,,,,13_14Exp,001,2021_Apr_28_1440,ComputerHuman,2020.1.3,60.03196610918258,
Computer.xlsx,c,Sychronize.jpg,Number8.jpg,8,Computer,,,,,0,8,8,3,0,1,1,4,,,,,,,,,,,,,,,,,,,,,,,,,,,,,1437.9433295054296,None,1437.9433295054296,None,1438.393636486111,None,1438.393636486111,None,v,7.293897916893911,1438.393636486111,None,t,7.608716070131777,1438.393636486111,None,7.293897916893911,7.608716070131777,8.53317049135485,False,False,False,1446.0756365759298,None,1446.0756365759298,None,1446.0756365759298,None,1446.0756365759298,None,1446.0756365759298,None,1446.0756365759298,None,1446.0756365759298,None,1446.0756365759298,None,1447.0740144219963,None,1447.0740144219963,None,1448.0570185343204,None,1448.0570185343204,None,c,,,,,,,,,,,,,,,,,,,,,,,,,,,,,,,,,,,,,,,,,,,,,,,13_14Exp,001,2021_Apr_28_1440,ComputerHuman,2020.1.3,60.03196610918258,
Computer.xlsx,c,Sychronize.jpg,Number9.jpg,9,Computer,,,,,0,8,8,3,0,2,2,6,,,,,,,,,,,,,,,,,,,,,,,,,,,,,1449.1238973395011,None,1449.1238973395011,None,1449.573598378167,None,1449.573598378167,None,v,8.860804950185411,1449.573598378167,None,t,9.783653679598501,1449.573598378167,None,8.860804950185411,9.783653679598501,8.462753800237556,False,False,False,1459.4540430350353,None,1459.4540430350353,None,1459.4540430350353,None,1459.4540430350353,None,1459.4540430350353,None,1459.4540430350353,None,1459.4540430350353,None,1459.4540430350353,None,1460.437297030272,None,1460.437297030272,None,1461.4203062749802,None,1461.4203062749802,None,c,,,,,,,,,,,,,,,,,,,,,,,,,,,,,,,,,,,,,,,,,,,,,,,13_14Exp,001,2021_Apr_28_1440,ComputerHuman,2020.1.3,60.03196610918258,
Computer.xlsx,c,Sychronize.jpg,Number7.jpg,7,Computer,,,,,0,8,8,3,0,3,3,3,,,,,,,,,,,,,,,,,,,,,,,,,,,,,1462.4704618503529,None,1462.4704618503529,None,1462.9206325021005,None,1462.9206325021005,None,v,6.824769523907889,1462.9206325021005,None,t,7.2357422388740815,1462.9206325021005,None,6.824769523907889,7.2357422388740815,7.428749806772575,False,False,True,1470.2514351427126,None,1470.2514351427126,None,1470.2514351427126,None,1470.2514351427126,None,1470.2514351427126,None,1470.2514351427126,None,1470.2514351427126,None,1470.2514351427126,None,1471.251149974658,None,1471.251149974658,None,1472.2343096623517,None,1472.2343096623517,None,c,,,,,,,,,,,,,,,,,,,,,,,,,,,,,,,,,,,,,,,,,,,,,,,13_14Exp,001,2021_Apr_28_1440,ComputerHuman,2020.1.3,60.03196610918258,
Computer.xlsx,c,Sychronize.jpg,Number10.jpg,10,Computer,,,,,0,8,8,3,0,4,4,8,,,,,,,,,,,,,,,,,,,,,,,,,,,,,1473.2845592244958,None,1473.2845592244958,None,1473.734367722438,None,1473.734367722438,None,v,10.5337178343907,1473.734367722438,None,t,9.649492856362485,1473.734367722438,None,10.5337178343907,9.649492856362485,10.414387550091423,False,True,False,1484.3494963848752,None,1484.3494963848752,None,1484.3494963848752,None,1484.3494963848752,None,1484.3494963848752,None,1484.3494963848752,None,1484.3494963848752,None,1484.3494963848752,None,1485.364151584945,None,1485.364151584945,None,1486.3473192919882,None,1486.3473192919882,None,c,,,,,,,,,,,,,,,,,,,,,,,,,,,,,,,,,,,,,,,,,,,,,,,13_14Exp,001,2021_Apr_28_1440,ComputerHuman,2020.1.3,60.03196610918258,
Computer.xlsx,c,Sychronize.jpg,Number7.jpg,7,Computer,,,,,0,8,8,3,0,5,5,2,,,,,,,,,,,,,,,,,,,,,,,,,,,,,1487.3973003663232,None,1487.3973003663232,None,1487.8474681311054,None,1487.8474681311054,None,v,7.695670834589691,1487.8474681311054,None,t,6.362844431041594,1487.8474681311054,None,7.695670834589691,6.362844431041594,6.83393690416871,False,False,False,1495.5964718071737,None,1495.5964718071737,None,1495.5964718071737,None,1495.5964718071737,None,1495.5964718071737,None,1495.5964718071737,None,1495.5964718071737,None,1495.5964718071737,None,1496.6111189878939,None,1496.6111189878939,None,1497.5944903864038,None,1497.5944903864038,None,c,,,,,,,,,,,,,,,,,,,,,,,,,,,,,,,,,,,,,,,,,,,,,,,13_14Exp,001,2021_Apr_28_1440,ComputerHuman,2020.1.3,60.03196610918258,
Computer.xlsx,c,Sychronize.jpg,Number6.jpg,6,Computer,,,,,0,8,8,3,0,6,6,1,,,,,,,,,,,,,,,,,,,,,,,,,,,,,1498.6614898025946,None,1498.6614898025946,None,1499.1113916457616,None,1499.1113916457616,None,v,6.670901952227723,1499.1113916457616,None,t,6.02189378532421,1499.1113916457616,None,6.670901952227723,6.02189378532421,5.92452420492462,False,False,True,1505.8605451232725,None,1505.8605451232725,None,1505.8605451232725,None,1505.8605451232725,None,1505.8605451232725,None,1505.8605451232725,None,1505.8605451232725,None,1505.8605451232725,None,1506.8753975993277,None,1506.8753975993277,None,1507.8417833749263,None,1507.8417833749263,None,c,,,,,,,,,,,,,,,,,,,,,,,,,,,,,,,,,,,,,,,,,,,,,,,13_14Exp,001,2021_Apr_28_1440,ComputerHuman,2020.1.3,60.03196610918258,
Computer.xlsx,c,Sychronize.jpg,Number8.jpg,8,Computer,,,,,0,8,8,3,0,7,7,5,,,,,,,,,,,,,,,,,,,,,,,,,,,,,1508.891595722158,None,1508.891595722158,None,1509.3418440012065,None,1509.3418440012065,None,v,8.099392454114422,1509.3418440012065,None,t,8.91460291391195,1509.3418440012065,None,8.099392454114422,8.91460291391195,7.6448406904841,False,False,False,1518.3231861836211,None,1518.3231861836211,None,1518.3231861836211,None,1518.3231861836211,None,1518.3231861836211,None,1518.3231861836211,None,1518.3231861836211,None,1518.3231861836211,None,1519.338777402114,None,1519.338777402114,None,1520.3218177618946,None,1520.3218177618946,None,c,,,,,,,,,,,,,,,,,,,,,,,,,,,,,,,,,,,,,,,,,,,,,,,13_14Exp,001,2021_Apr_28_1440,ComputerHuman,2020.1.3,60.03196610918258,
Computer.xlsx,c,Sychronize.jpg,Number10.jpg,10,Computer,,,,,0,8,8,3,0,8,8,9,,,,,,,,,,,,,,,,,,,,,,,,,,,,,1521.3716746967075,None,1521.3716746967075,None,1521.8218296305313,None,1521.8218296305313,None,v,11.117998306315712,1521.8218296305313,None,t,8.729555792215251,1521.8218296305313,None,11.117998306315712,8.729555792215251,9.250436623239295,False,False,False,1533.0202594419789,None,1533.0202594419789,None,1533.0202594419789,None,1533.0202594419789,None,1533.0202594419789,None,1533.0202594419789,None,1533.0202594419789,None,1533.0202594419789,None,1534.0350929923698,None,1534.0350929923698,None,1535.0182148287386,None,1535.0182148287386,None,c,,,,,,,,,,,,,,,,,,,,,,,,,,,,,,,,,,,,,,,,,,,,,,,13_14Exp,001,2021_Apr_28_1440,ComputerHuman,2020.1.3,60.03196610918258,
Computer.xlsx,c,Sychronize.jpg,Number9.jpg,9,Computer,,,,,0,8,8,3,0,9,9,7,,,,,,,,,,,,,,,,,,,,,,,,,,,,,1536.0683331943292,None,1536.0683331943292,None,1536.51833319433,None,1536.51833319433,None,v,10.43229359799443,1536.51833319433,None,t,9.547544475310133,1536.51833319433,None,10.43229359799443,9.547544475310133,9.217537768721051,False,False,False,1547.0484513033043,None,1547.0484513033043,None,1547.0484513033043,None,1547.0484513033043,None,1547.0484513033043,None,1547.0484513033043,None,1547.0484513033043,None,1547.0484513033043,None,1548.0313251813968,None,1548.0313251813968,None,1549.0312632720234,None,1549.0312632720234,None,c,,,,,,,,,,,,,,,,,,,,,,,,,,,,,,,,,,,,,,,,,,,,,,,13_14Exp,001,2021_Apr_28_1440,ComputerHuman,2020.1.3,60.03196610918258,
Computer.xlsx,c,,,,,,,,,0,8,8,3,,,,,,,,,,,,,,,,,,,,,,,,,,,,,,,,,,,,,,,,,,,,,,,,,,,,,,,,,,,,,,,,,,,,,,,,,,,,,,,c,1550.031711714022,None,1550.031711714022,None,q,0,3.4944227030973707,1550.031711714022,None,l,1,4.365990261303523,1550.031711714022,None,h,c,1554.4802974216182,None,1554.4802974216182,None,1556.4794454459698,None,None,None,None,None,None,None,None,,,,,,,,,,,,,,,,,,13_14Exp,001,2021_Apr_28_1440,ComputerHuman,2020.1.3,60.03196610918258,
Computer.xlsx,c,Sychronize.jpg,Number6.jpg,6,Computer,,,,,0,9,9,1,0,0,0,0,,,,,,,,,,,,,,,,,,,,,,,,,1561.464309726507,None,1561.464309726507,None,1564.5615023127793,None,1564.5615023127793,None,1564.977376453906,None,1564.977376453906,None,v,5.743215951450111,1564.977376453906,None,t,6.278790104763175,1564.977376453906,None,5.743215951450111,6.278790104763175,6.237206930201181,False,False,True,1571.3421817761882,None,1571.3421817761882,None,1571.3421817761882,None,1571.3421817761882,None,1571.3421817761882,None,1571.3421817761882,None,1571.3421817761882,None,1571.3421817761882,None,1572.3586224041355,None,1572.3586224041355,None,1573.341744882051,None,1573.341744882051,None,c,,,,,,,,,,,,,,,,,,,,,,,,,,,,,,,,,,,,,,,,,,,,,,,13_14Exp,001,2021_Apr_28_1440,ComputerHuman,2020.1.3,60.03196610918258,
Computer.xlsx,c,Sychronize.jpg,Number7.jpg,7,Computer,,,,,0,9,9,1,0,1,1,2,,,,,,,,,,,,,,,,,,,,,,,,,,,,,1574.3919492150635,None,1574.3919492150635,None,1574.8250396155818,None,1574.8250396155818,None,v,6.034619209229277,1574.8250396155818,None,t,7.065769248041761,1574.8250396155818,None,6.034619209229277,7.065769248041761,7.278047565906566,False,False,True,1581.9894507066638,None,1581.9894507066638,None,1581.9894507066638,None,1581.9894507066638,None,1581.9894507066638,None,1581.9894507066638,None,1581.9894507066638,None,1581.9894507066638,None,1582.9891626516437,None,1582.9891626516437,None,1583.97235152977,None,1583.97235152977,None,c,,,,,,,,,,,,,,,,,,,,,,,,,,,,,,,,,,,,,,,,,,,,,,,13_14Exp,001,2021_Apr_28_1440,ComputerHuman,2020.1.3,60.03196610918258,
Computer.xlsx,c,Sychronize.jpg,Number8.jpg,8,Computer,,,,,0,9,9,1,0,2,2,5,,,,,,,,,,,,,,,,,,,,,,,,,,,,,1585.0219781488777,None,1585.0219781488777,None,1585.4722424666215,None,1585.4722424666215,None,v,7.25453927235867,1585.4722424666215,None,t,8.221670526647358,1585.4722424666215,None,7.25453927235867,8.221670526647358,8.48898114328745,False,False,True,1593.7864556401692,None,1593.7864556401692,None,1593.7864556401692,None,1593.7864556401692,None,1593.7864556401692,None,1593.7864556401692,None,1593.7864556401692,None,1593.7864556401692,None,1594.7696326496553,None,1594.7696326496553,None,1595.752596665232,None,1595.752596665232,None,c,,,,,,,,,,,,,,,,,,,,,,,,,,,,,,,,,,,,,,,,,,,,,,,13_14Exp,001,2021_Apr_28_1440,ComputerHuman,2020.1.3,60.03196610918258,
Computer.xlsx,c,Sychronize.jpg,Number7.jpg,7,Computer,,,,,0,9,9,1,0,3,3,3,,,,,,,,,,,,,,,,,,,,,,,,,,,,,1596.8028975512098,None,1596.8028975512098,None,1597.2525896082043,None,1597.2525896082043,None,v,7.0890997799506295,1597.2525896082043,None,t,7.384773822279385,1597.2525896082043,None,7.0890997799506295,7.384773822279385,6.888072531465809,False,True,False,1604.7336151867203,None,1604.7336151867203,None,1604.7336151867203,None,1604.7336151867203,None,1604.7336151867203,None,1604.7336151867203,None,1604.7336151867203,None,1604.7336151867203,None,1605.7333325848595,None,1605.7333325848595,None,1606.7164999711276,None,1606.7164999711276,None,c,,,,,,,,,,,,,,,,,,,,,,,,,,,,,,,,,,,,,,,,,,,,,,,13_14Exp,001,2021_Apr_28_1440,ComputerHuman,2020.1.3,60.03196610918258,
Computer.xlsx,c,Sychronize.jpg,Number9.jpg,9,Computer,,,,,0,9,9,1,0,4,4,7,,,,,,,,,,,,,,,,,,,,,,,,,,,,,1607.7512279227303,None,1607.7512279227303,None,1608.19970617105,None,1608.19970617105,None,v,9.17681092940984,1608.19970617105,None,t,8.192630218189151,1608.19970617105,None,9.17681092940984,8.192630218189151,9.071868726984953,False,True,False,1617.448943691339,None,1617.448943691339,None,1617.448943691339,None,1617.448943691339,None,1617.448943691339,None,1617.448943691339,None,1617.448943691339,None,1617.448943691339,None,1618.4633534993227,None,1618.4633534993227,None,1619.4465885688987,None,1619.4465885688987,None,c,,,,,,,,,,,,,,,,,,,,,,,,,,,,,,,,,,,,,,,,,,,,,,,13_14Exp,001,2021_Apr_28_1440,ComputerHuman,2020.1.3,60.03196610918258,
Computer.xlsx,c,Sychronize.jpg,Number10.jpg,10,Computer,,,,,0,9,9,1,0,5,5,8,,,,,,,,,,,,,,,,,,,,,,,,,,,,,1620.496688008825,None,1620.496688008825,None,1620.9467431819467,None,1620.9467431819467,None,v,10.104883783595142,1620.9467431819467,None,t,9.343531593025546,1620.9467431819467,None,10.104883783595142,9.343531593025546,9.769406077773782,False,False,False,1631.1117040796016,None,1631.1117040796016,None,1631.1117040796016,None,1631.1117040796016,None,1631.1117040796016,None,1631.1117040796016,None,1631.1117040796016,None,1631.1117040796016,None,1632.1430930950191,None,1632.1430930950191,None,1633.1264195851727,None,1633.1264195851727,None,c,,,,,,,,,,,,,,,,,,,,,,,,,,,,,,,,,,,,,,,,,,,,,,,13_14Exp,001,2021_Apr_28_1440,ComputerHuman,2020.1.3,60.03196610918258,
Computer.xlsx,c,Sychronize.jpg,Number6.jpg,6,Computer,,,,,0,9,9,1,0,6,6,1,,,,,,,,,,,,,,,,,,,,,,,,,,,,,1634.1767025078116,None,1634.1767025078116,None,1634.62664027766,None,1634.62664027766,None,v,5.1918847394990735,1634.62664027766,None,t,7.402748391319619,1634.62664027766,None,5.1918847394990735,7.402748391319619,6.301365296266425,False,False,False,1642.1088097361317,None,1642.1088097361317,None,1642.1088097361317,None,1642.1088097361317,None,1642.1088097361317,None,1642.1088097361317,None,1642.1088097361317,None,1642.1088097361317,None,1643.1070159681258,None,1643.1070159681258,None,1644.0902536038957,None,1644.0902536038957,None,c,,,,,,,,,,,,,,,,,,,,,,,,,,,,,,,,,,,,,,,,,,,,,,,13_14Exp,001,2021_Apr_28_1440,ComputerHuman,2020.1.3,60.03196610918258,
Computer.xlsx,c,Sychronize.jpg,Number10.jpg,10,Computer,,,,,0,9,9,1,0,7,7,9,,,,,,,,,,,,,,,,,,,,,,,,,,,,,1645.1397114958963,None,1645.1397114958963,None,1645.5902545662175,None,1645.5902545662175,None,v,10.974831112507673,1645.5902545662175,None,t,9.938551577244652,1645.5902545662175,None,10.974831112507673,9.938551577244652,10.672228001554696,False,False,False,1656.6386513379475,None,1656.6386513379475,None,1656.6386513379475,None,1656.6386513379475,None,1656.6386513379475,None,1656.6386513379475,None,1656.6386513379475,None,1656.6386513379475,None,1657.6534178465809,None,1657.6534178465809,None,1658.6198735509024,None,1658.6198735509024,None,c,,,,,,,,,,,,,,,,,,,,,,,,,,,,,,,,,,,,,,,,,,,,,,,13_14Exp,001,2021_Apr_28_1440,ComputerHuman,2020.1.3,60.03196610918258,
Computer.xlsx,c,Sychronize.jpg,Number8.jpg,8,Computer,,,,,0,9,9,1,0,8,8,4,,,,,,,,,,,,,,,,,,,,,,,,,,,,,1659.6864505077829,None,1659.6864505077829,None,1660.119859436847,None,1660.119859436847,None,v,9.080073842167621,1660.119859436847,None,t,8.379658760659368,1660.119859436847,None,9.080073842167621,8.379658760659368,8.435526636651478,False,False,True,1669.2836806246087,None,1669.2836806246087,None,1669.2836806246087,None,1669.2836806246087,None,1669.2836806246087,None,1669.2836806246087,None,1669.2836806246087,None,1669.2836806246087,None,1670.2835244076887,None,1670.2835244076887,None,1671.2494582127765,None,1671.2494582127765,None,c,,,,,,,,,,,,,,,,,,,,,,,,,,,,,,,,,,,,,,,,,,,,,,,13_14Exp,001,2021_Apr_28_1440,ComputerHuman,2020.1.3,60.03196610918258,
Computer.xlsx,c,Sychronize.jpg,Number9.jpg,9,Computer,,,,,0,9,9,1,0,9,9,6,,,,,,,,,,,,,,,,,,,,,,,,,,,,,1672.3169214681184,None,1672.3169214681184,None,1672.7667886676973,None,1672.7667886676973,None,v,8.652128656020068,1672.7667886676973,None,t,9.695554072866798,1672.7667886676973,None,8.652128656020068,9.695554072866798,8.986938747896675,False,False,False,1682.5318217394924,None,1682.5318217394924,None,1682.5318217394924,None,1682.5318217394924,None,1682.5318217394924,None,1682.5318217394924,None,1682.5318217394924,None,1682.5318217394924,None,1683.546851603547,None,1683.546851603547,None,1684.5299420040647,None,1684.5299420040647,None,c,,,,,,,,,,,,,,,,,,,,,,,,,,,,,,,,,,,,,,,,,,,,,,,13_14Exp,001,2021_Apr_28_1440,ComputerHuman,2020.1.3,60.03196610918258,
Computer.xlsx,c,,,,,,,,,0,9,9,1,,,,,,,,,,,,,,,,,,,,,,,,,,,,,,,,,,,,,,,,,,,,,,,,,,,,,,,,,,,,,,,,,,,,,,,,,,,,,,,c,1685.530305761742,None,1685.530305761742,None,a,1,4.879815298350877,1685.530305761742,None,l,0,2.93111154593862,1685.530305761742,None,c,c,1690.4953189455518,None,1690.4953189455518,None,None,None,1692.4778537655657,None,1692.4778537655657,None,"['space', 'space']",1693.4609637332942,None,"[755.9148245687211, 767.7378195710626]",,,,,,,,,,,,,,,,,13_14Exp,001,2021_Apr_28_1440,ComputerHuman,2020.1.3,60.03196610918258,
Human.xlsx,h,Sychronize.jpg,Number8.jpg,8,Human,,,,,1,0,10,6,0,0,0,4,,,,,,,,,,,,,,,,,,,,,,,,,2461.2504137984106,None,2461.2504137984106,None,2464.347172056736,None,2464.347172056736,None,2464.763812847639,None,2464.763812847639,None,v,7.709954899179138,2464.763812847639,None,t,6.473877772288688,2464.763812847639,None,7.709954899179138,6.473877772288688,8.042572641976214,False,False,False,2472.545822881446,None,2472.545822881446,None,2472.545822881446,None,2472.545822881446,None,2472.545822881446,None,2472.545822881446,None,2472.545822881446,None,2472.545822881446,None,2473.5636813303136,None,2473.5636813303136,None,2474.5609614878776,None,2474.5609614878776,None,h,,,,,,,,,,,,,,,,,,,,,,,,,,,,,,,,,,,,,,,,,,,,,,,13_14Exp,001,2021_Apr_28_1440,ComputerHuman,2020.1.3,60.03196610918258,
Human.xlsx,h,Sychronize.jpg,Number9.jpg,9,Human,,,,,1,0,10,6,0,1,1,7,,,,,,,,,,,,,,,,,,,,,,,,,,,,,2475.5953237571593,None,2475.5953237571593,None,2476.0442231816924,None,2476.0442231816924,None,v,7.660524914510461,2476.0442231816924,None,t,8.307679649456986,2476.0442231816924,None,7.660524914510461,8.307679649456986,9.097971436227363,False,False,False,2484.426618144258,None,2484.426618144258,None,2484.426618144258,None,2484.426618144258,None,2484.426618144258,None,2484.426618144258,None,2484.426618144258,None,2484.426618144258,None,2485.4266553540365,None,2485.4266553540365,None,2486.4245738517893,None,2486.4245738517893,None,h,,,,,,,,,,,,,,,,,,,,,,,,,,,,,,,,,,,,,,,,,,,,,,,13_14Exp,001,2021_Apr_28_1440,ComputerHuman,2020.1.3,60.03196610918258,
Human.xlsx,h,Sychronize.jpg,Number10.jpg,10,Human,,,,,1,0,10,6,0,2,2,9,,,,,,,,,,,,,,,,,,,,,,,,,,,,,2487.474869284608,None,2487.474869284608,None,2487.9247483528234,None,2487.9247483528234,None,v,9.64686507605802,2487.9247483528234,None,t,7.338753664844262,2487.9247483528234,None,9.64686507605802,7.338753664844262,9.642042300282,False,False,False,2497.655003753054,None,2497.655003753054,None,2497.655003753054,None,2497.655003753054,None,2497.655003753054,None,2497.655003753054,None,2497.655003753054,None,2497.655003753054,None,2498.6404386904724,None,2498.6404386904724,None,2499.6379036138387,None,2499.6379036138387,None,h,,,,,,,,,,,,,,,,,,,,,,,,,,,,,,,,,,,,,,,,,,,,,,,13_14Exp,001,2021_Apr_28_1440,ComputerHuman,2020.1.3,60.03196610918258,
Human.xlsx,h,Sychronize.jpg,Number7.jpg,7,Human,,,,,1,0,10,6,0,3,3,3,,,,,,,,,,,,,,,,,,,,,,,,,,,,,2500.687993430547,None,2500.687993430547,None,2501.137907463126,None,2501.137907463126,None,v,6.46073854997303,2501.137907463126,None,t,5.911871523614536,2501.137907463126,None,6.46073854997303,5.911871523614536,6.684751882729528,False,False,False,2507.685824677781,None,2507.685824677781,None,2507.685824677781,None,2507.685824677781,None,2507.685824677781,None,2507.685824677781,None,2507.685824677781,None,2507.685824677781,None,2508.6546056725674,None,2508.6546056725674,None,2509.651763294474,None,2509.651763294474,None,h,,,,,,,,,,,,,,,,,,,,,,,,,,,,,,,,,,,,,,,,,,,,,,,13_14Exp,001,2021_Apr_28_1440,ComputerHuman,2020.1.3,60.03196610918258,
Human.xlsx,h,Sychronize.jpg,Number10.jpg,10,Human,,,,,1,0,10,6,0,4,4,8,,,,,,,,,,,,,,,,,,,,,,,,,,,,,2510.7188396964193,None,2510.7188396964193,None,2511.151770672277,None,2511.151770672277,None,v,9.422203652971803,2511.151770672277,None,t,8.83801107311956,2511.151770672277,None,9.422203652971803,8.83801107311956,9.426494632376782,False,False,False,2520.650468009211,None,2520.650468009211,None,2520.650468009211,None,2520.650468009211,None,2520.650468009211,None,2520.650468009211,None,2520.650468009211,None,2520.650468009211,None,2521.65118012741,None,2521.65118012741,None,2522.648638635299,None,2522.648638635299,None,h,,,,,,,,,,,,,,,,,,,,,,,,,,,,,,,,,,,,,,,,,,,,,,,13_14Exp,001,2021_Apr_28_1440,ComputerHuman,2020.1.3,60.03196610918258,
Human.xlsx,h,Sychronize.jpg,Number7.jpg,7,Human,,,,,1,0,10,6,0,5,5,2,,,,,,,,,,,,,,,,,,,,,,,,,,,,,2523.7004397811033,None,2523.7004397811033,None,2524.13176656637,None,2524.13176656637,None,v,6.724886927175248,2524.13176656637,None,t,6.90776016372547,2524.13176656637,None,6.724886927175248,6.90776016372547,7.497004033147038,True,False,False,2531.098165172927,None,2531.098165172927,None,2531.098165172927,None,2531.098165172927,None,2531.098165172927,None,2531.098165172927,None,2531.098165172927,None,2531.098165172927,None,2532.115542781623,None,2532.115542781623,None,2533.1126086621807,None,2533.1126086621807,None,h,,,,,,,,,,,,,,,,,,,,,,,,,,,,,,,,,,,,,,,,,,,,,,,13_14Exp,001,2021_Apr_28_1440,ComputerHuman,2020.1.3,60.03196610918258,
Human.xlsx,h,Sychronize.jpg,Number6.jpg,6,Human,,,,,1,0,10,6,0,6,6,0,,,,,,,,,,,,,,,,,,,,,,,,,,,,,2534.1623430613363,None,2534.1623430613363,None,2534.6122955867904,None,2534.6122955867904,None,v,5.215520968995406,2534.6122955867904,None,t,6.618795108839549,2534.6122955867904,None,5.215520968995406,6.618795108839549,6.245867493250731,False,False,False,2541.3120819513315,None,2541.3120819513315,None,2541.3120819513315,None,2541.3120819513315,None,2541.3120819513315,None,2541.3120819513315,None,2541.3120819513315,None,2541.3120819513315,None,2542.2955999435435,None,2542.2955999435435,None,2543.293216592996,None,2543.293216592996,None,h,,,,,,,,,,,,,,,,,,,,,,,,,,,,,,,,,,,,,,,,,,,,,,,13_14Exp,001,2021_Apr_28_1440,ComputerHuman,2020.1.3,60.03196610918258,
Human.xlsx,h,Sychronize.jpg,Number8.jpg,8,Human,,,,,1,0,10,6,0,7,7,5,,,,,,,,,,,,,,,,,,,,,,,,,,,,,2544.343807779409,None,2544.343807779409,None,2544.7933731306875,None,2544.7933731306875,None,v,7.913380123562092,2544.7933731306875,None,t,8.064632104342309,2544.7933731306875,None,7.913380123562092,8.064632104342309,7.678190932516479,True,False,False,2552.940874943062,None,2552.940874943062,None,2552.940874943062,None,2552.940874943062,None,2552.940874943062,None,2552.940874943062,None,2552.940874943062,None,2552.940874943062,None,2553.9255775535203,None,2553.9255775535203,None,2554.923778973909,None,2554.923778973909,None,h,,,,,,,,,,,,,,,,,,,,,,,,,,,,,,,,,,,,,,,,,,,,,,,13_14Exp,001,2021_Apr_28_1440,ComputerHuman,2020.1.3,60.03196610918258,
Human.xlsx,h,Sychronize.jpg,Number9.jpg,9,Human,,,,,1,0,10,6,0,8,8,6,,,,,,,,,,,,,,,,,,,,,,,,,,,,,2555.958496981515,None,2555.958496981515,None,2556.4238270900023,None,2556.4238270900023,None,v,9.349737286123855,2556.4238270900023,None,t,7.7087167116842465,2556.4238270900023,None,9.349737286123855,7.7087167116842465,9.551704033388882,False,False,False,2565.8709009899067,None,2565.8709009899067,None,2565.8709009899067,None,2565.8709009899067,None,2565.8709009899067,None,2565.8709009899067,None,2565.8709009899067,None,2565.8709009899067,None,2566.8550759271966,None,2566.8550759271966,None,2567.8537373374456,None,2567.8537373374456,None,h,,,,,,,,,,,,,,,,,,,,,,,,,,,,,,,,,,,,,,,,,,,,,,,13_14Exp,001,2021_Apr_28_1440,ComputerHuman,2020.1.3,60.03196610918258,
Human.xlsx,h,Sychronize.jpg,Number6.jpg,6,Human,,,,,1,0,10,6,0,9,9,1,,,,,,,,,,,,,,,,,,,,,,,,,,,,,2568.903810153137,None,2568.903810153137,None,2569.3538993283,None,2569.3538993283,None,v,6.030963027595135,2569.3538993283,None,t,8.133874692859536,2569.3538993283,None,6.030963027595135,8.133874692859536,5.817589587543854,False,False,False,2577.584468445464,None,2577.584468445464,None,2577.584468445464,None,2577.584468445464,None,2577.584468445464,None,2577.584468445464,None,2577.584468445464,None,2577.584468445464,None,2578.553365560423,None,2578.553365560423,None,2579.55071308052,None,2579.55071308052,None,h,,,,,,,,,,,,,,,,,,,,,,,,,,,,,,,,,,,,,,,,,,,,,,,13_14Exp,001,2021_Apr_28_1440,ComputerHuman,2020.1.3,60.03196610918258,
Human.xlsx,h,,,,,,,,,1,0,10,6,,,,,,,,,,,,,,,,,,,,,,,,,,,,,,,,,,,,,,,,,,,,,,,,,,,,,,,,,,,,,,,,,,,,,,,,,,,,,,,h,2580.55089367626,None,2580.55089367626,None,a,0,4.22909997241004,2580.55089367626,None,o,0,1.8642404393322067,2580.55089367626,None,c,h,2584.8671723133557,None,2584.8671723133557,None,2586.8649839933787,None,None,None,None,None,None,None,None,,,,,,,,,,,,,,,,,,13_14Exp,001,2021_Apr_28_1440,ComputerHuman,2020.1.3,60.03196610918258,
Computer.xlsx,c,Sychronize.jpg,Number6.jpg,6,Computer,,,,,1,1,11,1,0,0,0,1,,,,,,,,,,,,,,,,,,,,,,,,,2591.8669150526366,None,2591.8669150526366,None,2594.896821450795,None,2594.896821450795,None,2595.3635270380364,None,2595.3635270380364,None,v,6.046942703353125,2595.3635270380364,None,t,6.289798746416636,2595.3635270380364,None,6.046942703353125,6.289798746416636,6.160636273235711,False,True,True,2601.729968949079,None,2601.729968949079,None,2601.729968949079,None,2601.729968949079,None,2601.729968949079,None,2601.729968949079,None,2601.729968949079,None,2601.729968949079,None,2602.761487557178,None,2602.761487557178,None,2603.7444974434293,None,2603.7444974434293,None,c,,,,,,,,,,,,,,,,,,,,,,,,,,,,,,,,,,,,,,,,,,,,,,,13_14Exp,001,2021_Apr_28_1440,ComputerHuman,2020.1.3,60.03196610918258,
Computer.xlsx,c,Sychronize.jpg,Number7.jpg,7,Computer,,,,,1,1,11,1,0,1,1,2,,,,,,,,,,,,,,,,,,,,,,,,,,,,,2604.794658151186,None,2604.794658151186,None,2605.2445830900797,None,2605.2445830900797,None,v,6.656978758350306,2605.2445830900797,None,t,6.791800055172644,2605.2445830900797,None,6.656978758350306,6.791800055172644,7.3220827757705145,False,False,False,2612.1257000891746,None,2612.1257000891746,None,2612.1257000891746,None,2612.1257000891746,None,2612.1257000891746,None,2612.1257000891746,None,2612.1257000891746,None,2612.1257000891746,None,2613.10879754672,None,2613.10879754672,None,2614.091850416684,None,2614.091850416684,None,c,,,,,,,,,,,,,,,,,,,,,,,,,,,,,,,,,,,,,,,,,,,,,,,13_14Exp,001,2021_Apr_28_1440,ComputerHuman,2020.1.3,60.03196610918258,
Computer.xlsx,c,Sychronize.jpg,Number8.jpg,8,Computer,,,,,1,1,11,1,0,2,2,5,,,,,,,,,,,,,,,,,,,,,,,,,,,,,2615.15918760786,None,2615.15918760786,None,2615.6086211210386,None,2615.6086211210386,None,v,7.935920909974811,2615.6086211210386,None,t,8.838605788045243,2615.6086211210386,None,7.935920909974811,8.838605788045243,8.20510750292198,False,True,False,2624.539111327809,None,2624.539111327809,None,2624.539111327809,None,2624.539111327809,None,2624.539111327809,None,2624.539111327809,None,2624.539111327809,None,2624.539111327809,None,2625.522217125479,None,2625.522217125479,None,2626.505351151256,None,2626.505351151256,None,c,,,,,,,,,,,,,,,,,,,,,,,,,,,,,,,,,,,,,,,,,,,,,,,13_14Exp,001,2021_Apr_28_1440,ComputerHuman,2020.1.3,60.03196610918258,
Computer.xlsx,c,Sychronize.jpg,Number6.jpg,6,Computer,,,,,1,1,11,1,0,3,3,0,,,,,,,,,,,,,,,,,,,,,,,,,,,,,2627.554683299866,None,2627.554683299866,None,2628.005362378346,None,2628.005362378346,None,v,5.63424775297608,2628.005362378346,None,t,6.741716333166551,2628.005362378346,None,5.63424775297608,6.741716333166551,5.966843439599523,False,False,False,2634.8364030332377,None,2634.8364030332377,None,2634.8364030332377,None,2634.8364030332377,None,2634.8364030332377,None,2634.8364030332377,None,2634.8364030332377,None,2634.8364030332377,None,2635.8361233183423,None,2635.8361233183423,None,2636.819437939859,None,2636.819437939859,None,c,,,,,,,,,,,,,,,,,,,,,,,,,,,,,,,,,,,,,,,,,,,,,,,13_14Exp,001,2021_Apr_28_1440,ComputerHuman,2020.1.3,60.03196610918258,
Computer.xlsx,c,Sychronize.jpg,Number10.jpg,10,Computer,,,,,1,1,11,1,0,4,4,9,,,,,,,,,,,,,,,,,,,,,,,,,,,,,2637.8695906282665,None,2637.8695906282665,None,2638.319618535603,None,2638.319618535603,None,v,10.162699120435718,2638.319618535603,None,t,11.206386288835347,2638.319618535603,None,10.162699120435718,11.206386288835347,9.675210410904574,False,False,False,2649.6009020163838,None,2649.6009020163838,None,2649.6009020163838,None,2649.6009020163838,None,2649.6009020163838,None,2649.6009020163838,None,2649.6009020163838,None,2649.6009020163838,None,2650.615852970044,None,2650.615852970044,None,2651.5988708756486,None,2651.5988708756486,None,c,,,,,,,,,,,,,,,,,,,,,,,,,,,,,,,,,,,,,,,,,,,,,,,13_14Exp,001,2021_Apr_28_1440,ComputerHuman,2020.1.3,60.03196610918258,
Computer.xlsx,c,Sychronize.jpg,Number10.jpg,10,Computer,,,,,1,1,11,1,0,5,5,8,,,,,,,,,,,,,,,,,,,,,,,,,,,,,2652.6322948810885,None,2652.6322948810885,None,2653.0989661455133,None,2653.0989661455133,None,v,9.938163119975798,2653.0989661455133,None,t,8.341648329085729,2653.0989661455133,None,9.938163119975798,8.341648329085729,10.081907108262621,False,True,False,2663.0973455954518,None,2663.0973455954518,None,2663.0973455954518,None,2663.0973455954518,None,2663.0973455954518,None,2663.0973455954518,None,2663.0973455954518,None,2663.0973455954518,None,2664.112359420811,None,2664.112359420811,None,2665.1121428983824,None,2665.1121428983824,None,c,,,,,,,,,,,,,,,,,,,,,,,,,,,,,,,,,,,,,,,,,,,,,,,13_14Exp,001,2021_Apr_28_1440,ComputerHuman,2020.1.3,60.03196610918258,
Computer.xlsx,c,Sychronize.jpg,Number8.jpg,8,Computer,,,,,1,1,11,1,0,6,6,4,,,,,,,,,,,,,,,,,,,,,,,,,,,,,2666.1623299096063,None,2666.1623299096063,None,2666.6123093800707,None,2666.6123093800707,None,v,8.227741815451736,2666.6123093800707,None,t,7.978676230010024,2666.6123093800707,None,8.227741815451736,7.978676230010024,7.4276765149003054,False,False,False,2674.9262803692727,None,2674.9262803692727,None,2674.9262803692727,None,2674.9262803692727,None,2674.9262803692727,None,2674.9262803692727,None,2674.9262803692727,None,2674.9262803692727,None,2675.90935441032,None,2675.90935441032,None,2676.89241658273,None,2676.89241658273,None,c,,,,,,,,,,,,,,,,,,,,,,,,,,,,,,,,,,,,,,,,,,,,,,,13_14Exp,001,2021_Apr_28_1440,ComputerHuman,2020.1.3,60.03196610918258,
Computer.xlsx,c,Sychronize.jpg,Number9.jpg,9,Computer,,,,,1,1,11,1,0,7,7,6,,,,,,,,,,,,,,,,,,,,,,,,,,,,,2677.9422260429965,None,2677.9422260429965,None,2678.39219717334,None,2678.39219717334,None,v,8.974735842639348,2678.39219717334,None,t,7.665689375324291,2678.39219717334,None,8.974735842639348,7.665689375324291,8.450073740538164,False,False,False,2687.441304138625,None,2687.441304138625,None,2687.441304138625,None,2687.441304138625,None,2687.441304138625,None,2687.441304138625,None,2687.441304138625,None,2687.441304138625,None,2688.456121329542,None,2688.456121329542,None,2689.4392932066476,None,2689.4392932066476,None,c,,,,,,,,,,,,,,,,,,,,,,,,,,,,,,,,,,,,,,,,,,,,,,,13_14Exp,001,2021_Apr_28_1440,ComputerHuman,2020.1.3,60.03196610918258,
Computer.xlsx,c,Sychronize.jpg,Number9.jpg,9,Computer,,,,,1,1,11,1,0,8,8,7,,,,,,,,,,,,,,,,,,,,,,,,,,,,,2690.472320735469,None,2690.472320735469,None,2690.9224015705076,None,2690.9224015705076,None,v,8.887493664715294,2690.9224015705076,None,t,8.171017430857319,2690.9224015705076,None,8.887493664715294,8.171017430857319,9.022569120592443,False,True,False,2699.8882022543985,None,2699.8882022543985,None,2699.8882022543985,None,2699.8882022543985,None,2699.8882022543985,None,2699.8882022543985,None,2699.8882022543985,None,2699.8882022543985,None,2700.902951120461,None,2700.902951120461,None,2701.886061408968,None,2701.886061408968,None,c,,,,,,,,,,,,,,,,,,,,,,,,,,,,,,,,,,,,,,,,,,,,,,,13_14Exp,001,2021_Apr_28_1440,ComputerHuman,2020.1.3,60.03196610918258,
Computer.xlsx,c,Sychronize.jpg,Number7.jpg,7,Computer,,,,,1,1,11,1,0,9,9,3,,,,,,,,,,,,,,,,,,,,,,,,,,,,,2702.9362939700914,None,2702.9362939700914,None,2703.386230777618,None,2703.386230777618,None,v,7.60261591167,2703.386230777618,None,t,6.886146093293064,2703.386230777618,None,7.60261591167,6.886146093293064,6.716147136211286,False,False,True,2711.083589845577,None,2711.083589845577,None,2711.083589845577,None,2711.083589845577,None,2711.083589845577,None,2711.083589845577,None,2711.083589845577,None,2711.083589845577,None,2712.066675113714,None,2712.066675113714,None,2713.049848273913,None,2713.049848273913,None,c,,,,,,,,,,,,,,,,,,,,,,,,,,,,,,,,,,,,,,,,,,,,,,,13_14Exp,001,2021_Apr_28_1440,ComputerHuman,2020.1.3,60.03196610918258,
Computer.xlsx,c,,,,,,,,,1,1,11,1,,,,,,,,,,,,,,,,,,,,,,,,,,,,,,,,,,,,,,,,,,,,,,,,,,,,,,,,,,,,,,,,,,,,,,,,,,,,,,,c,2714.0503053768116,None,2714.0503053768116,None,q,0,3.722110307749972,2714.0503053768116,None,l,0,1.7731191418679373,2714.0503053768116,None,h,c,2717.865894991435,None,2717.865894991435,None,2719.8647783772685,None,None,None,None,None,None,None,None,,,,,,,,,,,,,,,,,,13_14Exp,001,2021_Apr_28_1440,ComputerHuman,2020.1.3,60.03196610918258,
