Condition,CorrectTuringReply,Sychronize,NumberImage,Number,Partner,trials.thisRepN,trials.thisTrialN,trials.thisN,trials.thisIndex,Block.thisRepN,Block.thisTrialN,Block.thisN,Block.thisIndex,trials_loop.thisRepN,trials_loop.thisTrialN,trials_loop.thisN,trials_loop.thisIndex,key_resp_Istr.keys,key_resp_Istr.rt,key_resp_Istr.started,key_resp_Istr.stopped,key_respPrLeft.keys,key_respPrLeft.rt,key_respPrRight.keys,key_respPrRight.rt,RTPrLeft,RTPrRight,CompPr,SychronizedRTsPr,SychronizedRTsLeftCPr,SychronizedRTsRightCPr,CreditLeftPr.started,CreditLeftPr.stopped,CreditRightPr.started,CreditRightPr.stopped,text_StartExp.started,text_StartExp.stopped,key_startExp.keys,key_startExp.rt,key_startExp.started,key_startExp.stopped,SychroLeft.started,SychroLeft.stopped,SychroRight.started,SychroRight.stopped,NumberLeft.started,NumberLeft.stopped,NumberRight.started,NumberRight.stopped,CrossLeft.started,CrossLeft.stopped,CrossRight.started,CrossRight.stopped,key_respLeft.keys,key_respLeft.rt,key_respLeft.started,key_respLeft.stopped,key_respRight.keys,key_respRight.rt,key_respRight.started,key_respRight.stopped,RTLeft,RTRight,Comp,SychronizedRTs,SychronizedRTsLeftC,SychronizedRTsRightC,FeedbackLeftLeft.started,FeedbackLeftLeft.stopped,FeedbackLeftRight.started,FeedbackLeftRight.stopped,FeedbackRightLeft.started,FeedbackRightLeft.stopped,FeedbackRightRight.started,FeedbackRightRight.stopped,textLeftLeft.started,textLeftLeft.stopped,textLeftRight.started,textLeftRight.stopped,textRightLeft.started,textRightLeft.stopped,textRightRight.started,textRightRight.stopped,CreditLeft.started,CreditLeft.stopped,CreditRight.started,CreditRight.stopped,BlankLeft.started,BlankLeft.stopped,BlankRight.started,BlankRight.stopped,CorrectTuringReply,TuringtextLeft.started,TuringtextLeft.stopped,TuringtextRight.started,TuringtextRight.stopped,keyTuringLeft.keys,keyTuringLeft.corr,keyTuringLeft.rt,keyTuringLeft.started,keyTuringLeft.stopped,keyTuringRight.keys,keyTuringRight.corr,keyTuringRight.rt,keyTuringRight.started,keyTuringRight.stopped,RespTuringLeft,RespTuringRight,ScoreLeft.started,ScoreLeft.stopped,ScoreRight.started,ScoreRight.stopped,BlockText.started,BlockText.stopped,text_Pause.started,text_Pause.stopped,text_LongPause.started,text_LongPause.stopped,key_respPause.keys,key_respPause.started,key_respPause.stopped,key_respPause.rt,QuestImageLeft.started,QuestImageLeft.stopped,QuestImageRight.started,QuestImageRight.stopped,respQuestLeft.keys,respQuestLeft.rt,respQuestLeft.started,respQuestLeft.stopped,respQuestRight.keys,respQuestRight.rt,respQuestRight.started,respQuestRight.stopped,RespInclusionLeft,RespInclusionRight,EndText.started,EndText.stopped,participant,session,date,expName,psychopyVersion,frameRate,
,,,,,,,,,,,,,,,,,,"['t', 'v']","[288.78993024311455, 297.04567480042545]",24.306506204978405,None,,,,,,,,,,,,,,,,,,,,,,,,,,,,,,,,,,,,,,,,,,,,,,,,,,,,,,,,,,,,,,,,,,,,,,,,,,,,,,,,,,,,,,,,,,,,,,,,,,,,,,,,,,,,,,,,,,,,,,15_16Exp,001,2021_Apr_29_1043,ComputerHuman,2020.1.3,60.01045332388586,
,,,,,,,,,,,,,,,,,,,,,,v,10.531735773942046,t,9.94320772602805,10.531735773942046,9.94320772602805,9,False,False,False,390.3201951717135,None,390.3201951717135,None,391.3366394472059,None,"['space', 'space']","[2.2188293867523043, 8.018757207864155]",392.3197922531201,None,,,,,,,,,,,,,,,,,,,,,,,,,,,,,,,,,,,,,,,,,,,,,,,,,,,,,,,,,,,,,,,,,,,,,,,,,,,,,,,,,,,,,,,,,,,,,,,,,,15_16Exp,001,2021_Apr_29_1043,ComputerHuman,2020.1.3,60.01045332388586,
Human.xlsx,h,Sychronize.jpg,Number8.jpg,8,Human,,,,,0,0,0,0,0,0,0,4,,,,,,,,,,,,,,,,,,,,,,,,,400.42121995152775,None,400.42121995152775,None,403.4681031869384,None,403.4681031869384,None,403.9178052485279,None,403.9178052485279,None,v,8.420452609748054,403.9178052485279,None,t,7.368337206933802,403.9178052485279,None,8.420452609748054,7.368337206933802,7.600246398248062,False,False,False,412.416941187038,None,412.416941187038,None,412.416941187038,None,412.416941187038,None,412.416941187038,None,412.416941187038,None,412.416941187038,None,412.416941187038,None,413.41961565544034,None,413.41961565544034,None,414.4321449480392,None,414.4321449480392,None,h,,,,,,,,,,,,,,,,,,,,,,,,,,,,,,,,,,,,,,,,,,,,,,,15_16Exp,001,2021_Apr_29_1043,ComputerHuman,2020.1.3,60.01045332388586,
Human.xlsx,h,Sychronize.jpg,Number7.jpg,7,Human,,,,,0,0,0,0,0,1,1,3,,,,,,,,,,,,,,,,,,,,,,,,,,,,,415.48273464955537,None,415.48273464955537,None,415.9324187466216,None,415.9324187466216,None,v,7.3456425605220375,415.9324187466216,None,t,8.197354403152758,415.9324187466216,None,7.3456425605220375,8.197354403152758,6.65666104482948,False,False,False,424.19716064293743,None,424.19716064293743,None,424.19716064293743,None,424.19716064293743,None,424.19716064293743,None,424.19716064293743,None,424.19716064293743,None,424.19716064293743,None,425.1818994596206,None,425.1818994596206,None,426.18000805195584,None,426.18000805195584,None,h,,,,,,,,,,,,,,,,,,,,,,,,,,,,,,,,,,,,,,,,,,,,,,,15_16Exp,001,2021_Apr_29_1043,ComputerHuman,2020.1.3,60.01045332388586,
Human.xlsx,h,Sychronize.jpg,Number6.jpg,6,Human,,,,,0,0,0,0,0,2,2,1,,,,,,,,,,,,,,,,,,,,,,,,,,,,,427.2634946451285,None,427.2634946451285,None,427.6801050924612,None,427.6801050924612,None,v,6.921668262622006,427.6801050924612,None,t,5.933236453225845,427.6801050924612,None,6.921668262622006,5.933236453225845,5.568377768054247,False,False,False,434.68013620958186,None,434.68013620958186,None,434.68013620958186,None,434.68013620958186,None,434.68013620958186,None,434.68013620958186,None,434.68013620958186,None,434.68013620958186,None,435.6809346684822,None,435.6809346684822,None,436.67799522336145,None,436.67799522336145,None,h,,,,,,,,,,,,,,,,,,,,,,,,,,,,,,,,,,,,,,,,,,,,,,,15_16Exp,001,2021_Apr_29_1043,ComputerHuman,2020.1.3,60.01045332388586,
Human.xlsx,h,Sychronize.jpg,Number9.jpg,9,Human,,,,,0,0,0,0,0,3,3,7,,,,,,,,,,,,,,,,,,,,,,,,,,,,,437.7283391958629,None,437.7283391958629,None,438.1782703051242,None,438.1782703051242,None,v,10.867171918883741,438.1782703051242,None,t,9.798192640640536,438.1782703051242,None,10.867171918883741,9.798192640640536,9.47066044718507,False,False,False,449.1263018264467,None,449.1263018264467,None,449.1263018264467,None,449.1263018264467,None,449.1263018264467,None,449.1263018264467,None,449.1263018264467,None,449.1263018264467,None,450.12724271835305,None,450.12724271835305,None,451.1251905923641,None,451.1251905923641,None,h,,,,,,,,,,,,,,,,,,,,,,,,,,,,,,,,,,,,,,,,,,,,,,,15_16Exp,001,2021_Apr_29_1043,ComputerHuman,2020.1.3,60.01045332388586,
Human.xlsx,h,Sychronize.jpg,Number9.jpg,9,Human,,,,,0,0,0,0,0,4,4,6,,,,,,,,,,,,,,,,,,,,,,,,,,,,,452.1749914588315,None,452.1749914588315,None,452.6250704546146,None,452.6250704546146,None,v,9.108140976596587,452.6250704546146,None,t,10.467172560473955,452.6250704546146,None,9.108140976596587,10.467172560473955,9.462619269535976,False,False,False,463.1568386288577,None,463.1568386288577,None,463.1568386288577,None,463.1568386288577,None,463.1568386288577,None,463.1568386288577,None,463.1568386288577,None,463.1568386288577,None,464.15834829040296,None,464.15834829040296,None,465.1725874206634,None,465.1725874206634,None,h,,,,,,,,,,,,,,,,,,,,,,,,,,,,,,,,,,,,,,,,,,,,,,,15_16Exp,001,2021_Apr_29_1043,ComputerHuman,2020.1.3,60.01045332388586,
Human.xlsx,h,Sychronize.jpg,Number10.jpg,10,Human,,,,,0,0,0,0,0,5,5,9,,,,,,,,,,,,,,,,,,,,,,,,,,,,,466.2226420360221,None,466.2226420360221,None,466.6728073256759,None,466.6728073256759,None,v,10.496041228580907,466.6728073256759,None,t,9.203145716343442,466.6728073256759,None,10.496041228580907,9.203145716343442,10.413495533544467,False,False,False,477.2375464952338,None,477.2375464952338,None,477.2375464952338,None,477.2375464952338,None,477.2375464952338,None,477.2375464952338,None,477.2375464952338,None,477.2375464952338,None,478.22300389284806,None,478.22300389284806,None,479.21988544408464,None,479.21988544408464,None,h,,,,,,,,,,,,,,,,,,,,,,,,,,,,,,,,,,,,,,,,,,,,,,,15_16Exp,001,2021_Apr_29_1043,ComputerHuman,2020.1.3,60.01045332388586,
Human.xlsx,h,Sychronize.jpg,Number10.jpg,10,Human,,,,,0,0,0,0,0,6,6,8,,,,,,,,,,,,,,,,,,,,,,,,,,,,,480.26951243963026,None,480.26951243963026,None,480.72007166561593,None,480.72007166561593,None,v,10.028520284673505,480.72007166561593,None,t,11.052151973450918,480.72007166561593,None,10.028520284673505,11.052151973450918,10.196616396581266,False,False,False,491.85144943227283,None,491.85144943227283,None,491.85144943227283,None,491.85144943227283,None,491.85144943227283,None,491.85144943227283,None,491.85144943227283,None,491.85144943227283,None,492.8353512946487,None,492.8353512946487,None,493.8337588679783,None,493.8337588679783,None,h,,,,,,,,,,,,,,,,,,,,,,,,,,,,,,,,,,,,,,,,,,,,,,,15_16Exp,001,2021_Apr_29_1043,ComputerHuman,2020.1.3,60.01045332388586,
Human.xlsx,h,Sychronize.jpg,Number6.jpg,6,Human,,,,,0,0,0,0,0,7,7,0,,,,,,,,,,,,,,,,,,,,,,,,,,,,,494.90036682914933,None,494.90036682914933,None,495.3335874030197,None,495.3335874030197,None,v,5.634759106970705,495.3335874030197,None,t,5.590379356196536,495.3335874030197,None,5.634759106970705,5.590379356196536,5.796181445464116,True,False,False,501.05078249934627,None,501.05078249934627,None,501.05078249934627,None,501.05078249934627,None,501.05078249934627,None,501.05078249934627,None,501.05078249934627,None,501.05078249934627,None,502.05126657908954,None,502.05126657908954,None,503.04871561678465,None,503.04871561678465,None,h,,,,,,,,,,,,,,,,,,,,,,,,,,,,,,,,,,,,,,,,,,,,,,,15_16Exp,001,2021_Apr_29_1043,ComputerHuman,2020.1.3,60.01045332388586,
Human.xlsx,h,Sychronize.jpg,Number8.jpg,8,Human,,,,,0,0,0,0,0,8,8,5,,,,,,,,,,,,,,,,,,,,,,,,,,,,,504.09883214558954,None,504.09883214558954,None,504.5489419376984,None,504.5489419376984,None,v,7.7471685826151315,504.5489419376984,None,t,7.058288141329285,504.5489419376984,None,7.7471685826151315,7.058288141329285,8.124542587267445,False,False,False,512.3802123984083,None,512.3802123984083,None,512.3802123984083,None,512.3802123984083,None,512.3802123984083,None,512.3802123984083,None,512.3802123984083,None,512.3802123984083,None,513.3493214382524,None,513.3493214382524,None,514.3465330876043,None,514.3465330876043,None,h,,,,,,,,,,,,,,,,,,,,,,,,,,,,,,,,,,,,,,,,,,,,,,,15_16Exp,001,2021_Apr_29_1043,ComputerHuman,2020.1.3,60.01045332388586,
Human.xlsx,h,Sychronize.jpg,Number7.jpg,7,Human,,,,,0,0,0,0,0,9,9,2,,,,,,,,,,,,,,,,,,,,,,,,,,,,,515.4296263860351,None,515.4296263860351,None,515.8635055521604,None,515.8635055521604,None,v,7.180358680954896,515.8635055521604,None,t,5.883297324088062,515.8635055521604,None,7.180358680954896,5.883297324088062,6.667654791757705,False,False,False,523.1124101172345,None,523.1124101172345,None,523.1124101172345,None,523.1124101172345,None,523.1124101172345,None,523.1124101172345,None,523.1124101172345,None,523.1124101172345,None,524.1141385610097,None,524.1141385610097,None,525.0943923419802,None,525.0943923419802,None,h,,,,,,,,,,,,,,,,,,,,,,,,,,,,,,,,,,,,,,,,,,,,,,,15_16Exp,001,2021_Apr_29_1043,ComputerHuman,2020.1.3,60.01045332388586,
Human.xlsx,h,,,,,,,,,0,0,0,0,,,,,,,,,,,,,,,,,,,,,,,,,,,,,,,,,,,,,,,,,,,,,,,,,,,,,,,,,,,,,,,,,,,,,,,,,,,,,,,h,526.0955398259046,None,526.0955398259046,None,q,0,12.080160910801169,526.0955398259046,None,l,0,53.92621649496118,526.0955398259046,None,h,c,580.1177465430321,None,580.1177465430321,None,582.1169804844326,None,None,None,None,None,None,None,None,,,,,,,,,,,,,,,,,,15_16Exp,001,2021_Apr_29_1043,ComputerHuman,2020.1.3,60.01045332388586,
Human.xlsx,h,Sychronize.jpg,Number7.jpg,7,Human,,,,,0,1,1,4,0,0,0,2,,,,,,,,,,,,,,,,,,,,,,,,,587.1193694452331,None,587.1193694452331,None,590.1824114485339,None,590.1824114485339,None,590.6321481559899,None,590.6321481559899,None,v,7.306466426391125,590.6321481559899,None,t,5.9092756287182056,590.6321481559899,None,7.306466426391125,5.9092756287182056,6.806680450920845,False,False,False,598.0145557549831,None,598.0145557549831,None,598.0145557549831,None,598.0145557549831,None,598.0145557549831,None,598.0145557549831,None,598.0145557549831,None,598.0145557549831,None,599.0319932119764,None,599.0319932119764,None,600.0302352550561,None,600.0302352550561,None,h,,,,,,,,,,,,,,,,,,,,,,,,,,,,,,,,,,,,,,,,,,,,,,,15_16Exp,001,2021_Apr_29_1043,ComputerHuman,2020.1.3,60.01045332388586,
Human.xlsx,h,Sychronize.jpg,Number10.jpg,10,Human,,,,,0,1,1,4,0,1,1,9,,,,,,,,,,,,,,,,,,,,,,,,,,,,,601.0798166977036,None,601.0798166977036,None,601.5301006815291,None,601.5301006815291,None,v,10.803819385966108,601.5301006815291,None,t,8.163199032482225,601.5301006815291,None,10.803819385966108,8.163199032482225,9.280709845955295,False,False,False,612.4278116483893,None,612.4278116483893,None,612.4278116483893,None,612.4278116483893,None,612.4278116483893,None,612.4278116483893,None,612.4278116483893,None,612.4278116483893,None,613.4128866582939,None,613.4128866582939,None,614.4108229836827,None,614.4108229836827,None,h,,,,,,,,,,,,,,,,,,,,,,,,,,,,,,,,,,,,,,,,,,,,,,,15_16Exp,001,2021_Apr_29_1043,ComputerHuman,2020.1.3,60.01045332388586,
Human.xlsx,h,Sychronize.jpg,Number7.jpg,7,Human,,,,,0,1,1,4,0,2,2,3,,,,,,,,,,,,,,,,,,,,,,,,,,,,,615.4774848384236,None,615.4774848384236,None,615.9269151865985,None,615.9269151865985,None,v,7.154826602251205,615.9269151865985,None,t,6.48219763862744,615.9269151865985,None,7.154826602251205,6.48219763862744,6.7355924199585235,False,False,False,623.1592712177862,None,623.1592712177862,None,623.1592712177862,None,623.1592712177862,None,623.1592712177862,None,623.1592712177862,None,623.1592712177862,None,623.1592712177862,None,624.1610282123213,None,624.1610282123213,None,625.1420724323161,None,625.1420724323161,None,h,,,,,,,,,,,,,,,,,,,,,,,,,,,,,,,,,,,,,,,,,,,,,,,15_16Exp,001,2021_Apr_29_1043,ComputerHuman,2020.1.3,60.01045332388586,
Human.xlsx,h,Sychronize.jpg,Number6.jpg,6,Human,,,,,0,1,1,4,0,3,3,1,,,,,,,,,,,,,,,,,,,,,,,,,,,,,626.2088831359642,None,626.2088831359642,None,626.6419997722355,None,626.6419997722355,None,v,5.095526994102329,626.6419997722355,None,t,6.4022388287130525,626.6419997722355,None,5.095526994102329,6.4022388287130525,5.701508362135771,False,False,False,633.1405380695514,None,633.1405380695514,None,633.1405380695514,None,633.1405380695514,None,633.1405380695514,None,633.1405380695514,None,633.1405380695514,None,633.1405380695514,None,634.1266684951984,None,634.1266684951984,None,635.1235288739613,None,635.1235288739613,None,h,,,,,,,,,,,,,,,,,,,,,,,,,,,,,,,,,,,,,,,,,,,,,,,15_16Exp,001,2021_Apr_29_1043,ComputerHuman,2020.1.3,60.01045332388586,
Human.xlsx,h,Sychronize.jpg,Number9.jpg,9,Human,,,,,0,1,1,4,0,4,4,7,,,,,,,,,,,,,,,,,,,,,,,,,,,,,636.1733406474607,None,636.1733406474607,None,636.6239252162559,None,636.6239252162559,None,v,9.061269931397874,636.6239252162559,None,t,8.400203063272102,636.6239252162559,None,9.061269931397874,8.400203063272102,8.94564923429748,False,False,False,645.756625941734,None,645.756625941734,None,645.756625941734,None,645.756625941734,None,645.756625941734,None,645.756625941734,None,645.756625941734,None,645.756625941734,None,646.7402368429916,None,646.7402368429916,None,647.7377923846461,None,647.7377923846461,None,h,,,,,,,,,,,,,,,,,,,,,,,,,,,,,,,,,,,,,,,,,,,,,,,15_16Exp,001,2021_Apr_29_1043,ComputerHuman,2020.1.3,60.01045332388586,
Human.xlsx,h,Sychronize.jpg,Number8.jpg,8,Human,,,,,0,1,1,4,0,5,5,5,,,,,,,,,,,,,,,,,,,,,,,,,,,,,648.8215269523987,None,648.8215269523987,None,649.2545040428197,None,649.2545040428197,None,v,6.586533985830556,649.2545040428197,None,t,8.453207068398342,649.2545040428197,None,6.586533985830556,8.453207068398342,8.17866467384703,False,False,False,657.8025544910506,None,657.8025544910506,None,657.8025544910506,None,657.8025544910506,None,657.8025544910506,None,657.8025544910506,None,657.8025544910506,None,657.8025544910506,None,658.7711031019278,None,658.7711031019278,None,659.7688318729138,None,659.7688318729138,None,h,,,,,,,,,,,,,,,,,,,,,,,,,,,,,,,,,,,,,,,,,,,,,,,15_16Exp,001,2021_Apr_29_1043,ComputerHuman,2020.1.3,60.01045332388586,
Human.xlsx,h,Sychronize.jpg,Number9.jpg,9,Human,,,,,0,1,1,4,0,6,6,6,,,,,,,,,,,,,,,,,,,,,,,,,,,,,660.8355267695456,None,660.8355267695456,None,661.2691881158262,None,661.2691881158262,None,v,10.439486022157325,661.2691881158262,None,t,7.831265327988831,661.2691881158262,None,10.439486022157325,7.831265327988831,8.737338404288506,False,False,False,671.7851366025557,None,671.7851366025557,None,671.7851366025557,None,671.7851366025557,None,671.7851366025557,None,671.7851366025557,None,671.7851366025557,None,671.7851366025557,None,672.7860335455391,None,672.7860335455391,None,673.7662173931872,None,673.7662173931872,None,h,,,,,,,,,,,,,,,,,,,,,,,,,,,,,,,,,,,,,,,,,,,,,,,15_16Exp,001,2021_Apr_29_1043,ComputerHuman,2020.1.3,60.01045332388586,
Human.xlsx,h,Sychronize.jpg,Number10.jpg,10,Human,,,,,0,1,1,4,0,7,7,8,,,,,,,,,,,,,,,,,,,,,,,,,,,,,674.8330091699268,None,674.8330091699268,None,675.2659779196761,None,675.2659779196761,None,v,9.57451571976003,675.2659779196761,None,t,9.553177715650463,675.2659779196761,None,9.57451571976003,9.553177715650463,9.436567285673739,True,False,False,684.9158942723645,None,684.9158942723645,None,684.9158942723645,None,684.9158942723645,None,684.9158942723645,None,684.9158942723645,None,684.9158942723645,None,684.9158942723645,None,685.9161990276702,None,685.9161990276702,None,686.9137856864452,None,686.9137856864452,None,h,,,,,,,,,,,,,,,,,,,,,,,,,,,,,,,,,,,,,,,,,,,,,,,15_16Exp,001,2021_Apr_29_1043,ComputerHuman,2020.1.3,60.01045332388586,
Human.xlsx,h,Sychronize.jpg,Number6.jpg,6,Human,,,,,0,1,1,4,0,8,8,0,,,,,,,,,,,,,,,,,,,,,,,,,,,,,687.9473584932898,None,687.9473584932898,None,688.4139375829054,None,688.4139375829054,None,v,6.282205016913849,688.4139375829054,None,t,5.941278785341638,688.4139375829054,None,6.282205016913849,5.941278785341638,5.915337711860666,False,False,False,694.7788249597802,None,694.7788249597802,None,694.7788249597802,None,694.7788249597802,None,694.7788249597802,None,694.7788249597802,None,694.7788249597802,None,694.7788249597802,None,695.7469777095553,None,695.7469777095553,None,696.745121589347,None,696.745121589347,None,h,,,,,,,,,,,,,,,,,,,,,,,,,,,,,,,,,,,,,,,,,,,,,,,15_16Exp,001,2021_Apr_29_1043,ComputerHuman,2020.1.3,60.01045332388586,
Human.xlsx,h,Sychronize.jpg,Number8.jpg,8,Human,,,,,0,1,1,4,0,9,9,4,,,,,,,,,,,,,,,,,,,,,,,,,,,,,697.8131558053478,None,697.8131558053478,None,698.2617703716892,None,698.2617703716892,None,v,8.318118023709985,698.2617703716892,None,t,6.953284219609941,698.2617703716892,None,8.318118023709985,6.953284219609941,7.5869522528250215,False,False,False,706.6766251076667,None,706.6766251076667,None,706.6766251076667,None,706.6766251076667,None,706.6766251076667,None,706.6766251076667,None,706.6766251076667,None,706.6766251076667,None,707.6446588424751,None,707.6446588424751,None,708.6428979983991,None,708.6428979983991,None,h,,,,,,,,,,,,,,,,,,,,,,,,,,,,,,,,,,,,,,,,,,,,,,,15_16Exp,001,2021_Apr_29_1043,ComputerHuman,2020.1.3,60.01045332388586,
Human.xlsx,h,,,,,,,,,0,1,1,4,,,,,,,,,,,,,,,,,,,,,,,,,,,,,,,,,,,,,,,,,,,,,,,,,,,,,,,,,,,,,,,,,,,,,,,,,,,,,,,h,709.6432053200651,None,709.6432053200651,None,q,0,3.384549226803756,709.6432053200651,None,l,0,3.6194360102076644,709.6432053200651,None,h,c,713.3429440324901,None,713.3429440324901,None,715.3582684124333,None,None,None,None,None,None,None,None,,,,,,,,,,,,,,,,,,15_16Exp,001,2021_Apr_29_1043,ComputerHuman,2020.1.3,60.01045332388586,
Computer.xlsx,c,Sychronize.jpg,Number7.jpg,7,Computer,,,,,0,2,2,5,0,0,0,3,,,,,,,,,,,,,,,,,,,,,,,,,720.3604767656159,None,720.3604767656159,None,723.4572689754286,None,723.4572689754286,None,723.8738527967714,None,723.8738527967714,None,v,6.829499671986923,723.8738527967714,None,t,6.837295312702963,723.8738527967714,None,6.829499671986923,6.837295312702963,7.407901222272745,False,False,False,730.7903177635451,None,730.7903177635451,None,730.7903177635451,None,730.7903177635451,None,730.7903177635451,None,730.7903177635451,None,730.7903177635451,None,730.7903177635451,None,731.8218605792597,None,731.8218605792597,None,732.8049392815153,None,732.8049392815153,None,c,,,,,,,,,,,,,,,,,,,,,,,,,,,,,,,,,,,,,,,,,,,,,,,15_16Exp,001,2021_Apr_29_1043,ComputerHuman,2020.1.3,60.01045332388586,
Computer.xlsx,c,Sychronize.jpg,Number7.jpg,7,Computer,,,,,0,2,2,5,0,1,1,2,,,,,,,,,,,,,,,,,,,,,,,,,,,,,733.8551430665761,None,733.8551430665761,None,734.3048027832178,None,734.3048027832178,None,v,7.370353403876152,734.3048027832178,None,t,5.829276398626234,734.3048027832178,None,7.370353403876152,5.829276398626234,6.506544777739446,False,False,False,741.754557775992,None,741.754557775992,None,741.754557775992,None,741.754557775992,None,741.754557775992,None,741.754557775992,None,741.754557775992,None,741.754557775992,None,742.7530522847826,None,742.7530522847826,None,743.736239736563,None,743.736239736563,None,c,,,,,,,,,,,,,,,,,,,,,,,,,,,,,,,,,,,,,,,,,,,,,,,15_16Exp,001,2021_Apr_29_1043,ComputerHuman,2020.1.3,60.01045332388586,
Computer.xlsx,c,Sychronize.jpg,Number10.jpg,10,Computer,,,,,0,2,2,5,0,2,2,9,,,,,,,,,,,,,,,,,,,,,,,,,,,,,744.8040644733908,None,744.8040644733908,None,745.2362440672964,None,745.2362440672964,None,v,10.09858930373025,745.2362440672964,None,t,9.054239707691522,745.2362440672964,None,10.09858930373025,9.054239707691522,9.987167386421042,False,True,False,755.4023347464356,None,755.4023347464356,None,755.4023347464356,None,755.4023347464356,None,755.4023347464356,None,755.4023347464356,None,755.4023347464356,None,755.4023347464356,None,756.4171699139147,None,756.4171699139147,None,757.3835614988186,None,757.3835614988186,None,c,,,,,,,,,,,,,,,,,,,,,,,,,,,,,,,,,,,,,,,,,,,,,,,15_16Exp,001,2021_Apr_29_1043,ComputerHuman,2020.1.3,60.01045332388586,
Computer.xlsx,c,Sychronize.jpg,Number6.jpg,6,Computer,,,,,0,2,2,5,0,3,3,1,,,,,,,,,,,,,,,,,,,,,,,,,,,,,758.4335596542471,None,758.4335596542471,None,758.8835501105941,None,758.8835501105941,None,v,6.675093952852649,758.8835501105941,None,t,8.730299253670182,758.8835501105941,None,6.675093952852649,8.730299253670182,5.753378394452882,False,False,False,767.6982287300846,None,767.6982287300846,None,767.6982287300846,None,767.6982287300846,None,767.6982287300846,None,767.6982287300846,None,767.6982287300846,None,767.6982287300846,None,768.6980834099231,None,768.6980834099231,None,769.6812872222515,None,769.6812872222515,None,c,,,,,,,,,,,,,,,,,,,,,,,,,,,,,,,,,,,,,,,,,,,,,,,15_16Exp,001,2021_Apr_29_1043,ComputerHuman,2020.1.3,60.01045332388586,
Computer.xlsx,c,Sychronize.jpg,Number6.jpg,6,Computer,,,,,0,2,2,5,0,4,4,0,,,,,,,,,,,,,,,,,,,,,,,,,,,,,770.7143294340694,None,770.7143294340694,None,771.1812155245559,None,771.1812155245559,None,v,6.485086718924094,771.1812155245559,None,t,5.8683559734445225,771.1812155245559,None,6.485086718924094,5.8683559734445225,5.62395467318014,False,False,True,777.745746498121,None,777.745746498121,None,777.745746498121,None,777.745746498121,None,777.745746498121,None,777.745746498121,None,777.745746498121,None,777.745746498121,None,778.746076596236,None,778.746076596236,None,779.7293686272055,None,779.7293686272055,None,c,,,,,,,,,,,,,,,,,,,,,,,,,,,,,,,,,,,,,,,,,,,,,,,15_16Exp,001,2021_Apr_29_1043,ComputerHuman,2020.1.3,60.01045332388586,
Computer.xlsx,c,Sychronize.jpg,Number9.jpg,9,Computer,,,,,0,2,2,5,0,5,5,7,,,,,,,,,,,,,,,,,,,,,,,,,,,,,780.7958405712718,None,780.7958405712718,None,781.2292683787498,None,781.2292683787498,None,v,8.576821915435175,781.2292683787498,None,t,8.904262564339433,781.2292683787498,None,8.576821915435175,8.904262564339433,9.536342656477697,False,False,False,790.2124000121901,None,790.2124000121901,None,790.2124000121901,None,790.2124000121901,None,790.2124000121901,None,790.2124000121901,None,790.2124000121901,None,790.2124000121901,None,791.2104669011678,None,791.2104669011678,None,792.1936338220646,None,792.1936338220646,None,c,,,,,,,,,,,,,,,,,,,,,,,,,,,,,,,,,,,,,,,,,,,,,,,15_16Exp,001,2021_Apr_29_1043,ComputerHuman,2020.1.3,60.01045332388586,
Computer.xlsx,c,Sychronize.jpg,Number10.jpg,10,Computer,,,,,0,2,2,5,0,6,6,8,,,,,,,,,,,,,,,,,,,,,,,,,,,,,793.2620433682839,None,793.2620433682839,None,793.6937029533997,None,793.6937029533997,None,v,9.932069400802902,793.6937029533997,None,t,10.707153248611348,793.6937029533997,None,9.932069400802902,10.707153248611348,9.869300247886597,False,True,False,804.4762799321838,None,804.4762799321838,None,804.4762799321838,None,804.4762799321838,None,804.4762799321838,None,804.4762799321838,None,804.4762799321838,None,804.4762799321838,None,805.4909810073286,None,805.4909810073286,None,806.4743006266731,None,806.4743006266731,None,c,,,,,,,,,,,,,,,,,,,,,,,,,,,,,,,,,,,,,,,,,,,,,,,15_16Exp,001,2021_Apr_29_1043,ComputerHuman,2020.1.3,60.01045332388586,
Computer.xlsx,c,Sychronize.jpg,Number8.jpg,8,Computer,,,,,0,2,2,5,0,7,7,5,,,,,,,,,,,,,,,,,,,,,,,,,,,,,807.5240941148543,None,807.5240941148543,None,807.9577416669474,None,807.9577416669474,None,v,8.163773255636897,807.9577416669474,None,t,7.803219499206762,807.9577416669474,None,8.163773255636897,7.803219499206762,8.366114936387842,False,True,False,816.2057595544798,None,816.2057595544798,None,816.2057595544798,None,816.2057595544798,None,816.2057595544798,None,816.2057595544798,None,816.2057595544798,None,816.2057595544798,None,817.2055462257658,None,817.2055462257658,None,818.1887182793837,None,818.1887182793837,None,c,,,,,,,,,,,,,,,,,,,,,,,,,,,,,,,,,,,,,,,,,,,,,,,15_16Exp,001,2021_Apr_29_1043,ComputerHuman,2020.1.3,60.01045332388586,
Computer.xlsx,c,Sychronize.jpg,Number9.jpg,9,Computer,,,,,0,2,2,5,0,8,8,6,,,,,,,,,,,,,,,,,,,,,,,,,,,,,819.2391649063038,None,819.2391649063038,None,819.688942354732,None,819.688942354732,None,v,9.036288657809564,819.688942354732,None,t,9.043247665013041,819.688942354732,None,9.036288657809564,9.043247665013041,9.666643233448898,False,False,False,828.8038707131755,None,828.8038707131755,None,828.8038707131755,None,828.8038707131755,None,828.8038707131755,None,828.8038707131755,None,828.8038707131755,None,828.8038707131755,None,829.8196855887632,None,829.8196855887632,None,830.8029516353329,None,830.8029516353329,None,c,,,,,,,,,,,,,,,,,,,,,,,,,,,,,,,,,,,,,,,,,,,,,,,15_16Exp,001,2021_Apr_29_1043,ComputerHuman,2020.1.3,60.01045332388586,
Computer.xlsx,c,Sychronize.jpg,Number8.jpg,8,Computer,,,,,0,2,2,5,0,9,9,4,,,,,,,,,,,,,,,,,,,,,,,,,,,,,831.8705450789237,None,831.8705450789237,None,832.3198291445517,None,832.3198291445517,None,v,8.529140541919105,832.3198291445517,None,t,9.160234244551702,832.3198291445517,None,8.529140541919105,9.160234244551702,7.6754704546232775,False,False,False,841.5520446675039,None,841.5520446675039,None,841.5520446675039,None,841.5520446675039,None,841.5520446675039,None,841.5520446675039,None,841.5520446675039,None,841.5520446675039,None,842.5506681359079,None,842.5506681359079,None,843.5338940830954,None,843.5338940830954,None,c,,,,,,,,,,,,,,,,,,,,,,,,,,,,,,,,,,,,,,,,,,,,,,,15_16Exp,001,2021_Apr_29_1043,ComputerHuman,2020.1.3,60.01045332388586,
Computer.xlsx,c,,,,,,,,,0,2,2,5,,,,,,,,,,,,,,,,,,,,,,,,,,,,,,,,,,,,,,,,,,,,,,,,,,,,,,,,,,,,,,,,,,,,,,,,,,,,,,,c,844.5346360820658,None,844.5346360820658,None,a,1,2.522254355194036,844.5346360820658,None,l,0,2.4973330702814565,844.5346360820658,None,c,c,847.1334209103843,None,847.1334209103843,None,849.1494545682017,None,None,None,None,None,None,None,None,,,,,,,,,,,,,,,,,,15_16Exp,001,2021_Apr_29_1043,ComputerHuman,2020.1.3,60.01045332388586,
Human.xlsx,h,Sychronize.jpg,Number9.jpg,9,Human,,,,,0,3,3,6,0,0,0,6,,,,,,,,,,,,,,,,,,,,,,,,,854.1515480767534,None,854.1515480767534,None,857.2151983074853,None,857.2151983074853,None,857.6651910093976,None,857.6651910093976,None,v,9.659245714579129,857.6651910093976,None,t,9.998235627178246,857.6651910093976,None,9.659245714579129,9.998235627178246,9.068252304440868,False,False,False,867.7308385101635,None,867.7308385101635,None,867.7308385101635,None,867.7308385101635,None,867.7308385101635,None,867.7308385101635,None,867.7308385101635,None,867.7308385101635,None,868.7486195386646,None,868.7486195386646,None,869.7456383901863,None,869.7456383901863,None,h,,,,,,,,,,,,,,,,,,,,,,,,,,,,,,,,,,,,,,,,,,,,,,,15_16Exp,001,2021_Apr_29_1043,ComputerHuman,2020.1.3,60.01045332388586,
Human.xlsx,h,Sychronize.jpg,Number6.jpg,6,Human,,,,,0,3,3,6,0,1,1,1,,,,,,,,,,,,,,,,,,,,,,,,,,,,,870.7957353504926,None,870.7957353504926,None,871.2459054520723,None,871.2459054520723,None,v,5.962291182466515,871.2459054520723,None,t,5.2172975903479255,871.2459054520723,None,5.962291182466515,5.2172975903479255,5.616568355850012,False,False,False,877.2775948711285,None,877.2775948711285,None,877.2775948711285,None,877.2775948711285,None,877.2775948711285,None,877.2775948711285,None,877.2775948711285,None,877.2775948711285,None,878.261988833124,None,878.261988833124,None,879.2605195917561,None,879.2605195917561,None,h,,,,,,,,,,,,,,,,,,,,,,,,,,,,,,,,,,,,,,,,,,,,,,,15_16Exp,001,2021_Apr_29_1043,ComputerHuman,2020.1.3,60.01045332388586,
Human.xlsx,h,Sychronize.jpg,Number7.jpg,7,Human,,,,,0,3,3,6,0,2,2,3,,,,,,,,,,,,,,,,,,,,,,,,,,,,,880.3443061283083,None,880.3443061283083,None,880.7604639338135,None,880.7604639338135,None,v,6.379542899121134,880.7604639338135,None,t,6.563361354781819,880.7604639338135,None,6.379542899121134,6.563361354781819,6.9018852191033355,True,False,False,887.4088860231197,None,887.4088860231197,None,887.4088860231197,None,887.4088860231197,None,887.4088860231197,None,887.4088860231197,None,887.4088860231197,None,887.4088860231197,None,888.393449685701,None,888.393449685701,None,889.3918508431295,None,889.3918508431295,None,h,,,,,,,,,,,,,,,,,,,,,,,,,,,,,,,,,,,,,,,,,,,,,,,15_16Exp,001,2021_Apr_29_1043,ComputerHuman,2020.1.3,60.01045332388586,
Human.xlsx,h,Sychronize.jpg,Number6.jpg,6,Human,,,,,0,3,3,6,0,3,3,0,,,,,,,,,,,,,,,,,,,,,,,,,,,,,890.44202415266,None,890.44202415266,None,890.8752594831028,None,890.8752594831028,None,v,5.67289329875166,890.8752594831028,None,t,5.259307948820378,890.8752594831028,None,5.67289329875166,5.259307948820378,6.043639092168923,False,False,False,896.624583808511,None,896.624583808511,None,896.624583808511,None,896.624583808511,None,896.624583808511,None,896.624583808511,None,896.624583808511,None,896.624583808511,None,897.609035834412,None,897.609035834412,None,898.623322763136,None,898.623322763136,None,h,,,,,,,,,,,,,,,,,,,,,,,,,,,,,,,,,,,,,,,,,,,,,,,15_16Exp,001,2021_Apr_29_1043,ComputerHuman,2020.1.3,60.01045332388586,
Human.xlsx,h,Sychronize.jpg,Number8.jpg,8,Human,,,,,0,3,3,6,0,4,4,4,,,,,,,,,,,,,,,,,,,,,,,,,,,,,899.6903432667523,None,899.6903432667523,None,900.1234352018041,None,900.1234352018041,None,v,7.108118841737451,900.1234352018041,None,t,6.7752711921225455,900.1234352018041,None,7.108118841737451,6.7752711921225455,8.415390833337314,False,False,False,907.3066807174903,None,907.3066807174903,None,907.3066807174903,None,907.3066807174903,None,907.3066807174903,None,907.3066807174903,None,907.3066807174903,None,907.3066807174903,None,908.2903949147567,None,908.2903949147567,None,909.2880768496641,None,909.2880768496641,None,h,,,,,,,,,,,,,,,,,,,,,,,,,,,,,,,,,,,,,,,,,,,,,,,15_16Exp,001,2021_Apr_29_1043,ComputerHuman,2020.1.3,60.01045332388586,
Human.xlsx,h,Sychronize.jpg,Number10.jpg,10,Human,,,,,0,3,3,6,0,5,5,8,,,,,,,,,,,,,,,,,,,,,,,,,,,,,910.3548461707496,None,910.3548461707496,None,910.787634312881,None,910.787634312881,None,v,9.463686480573415,910.787634312881,None,t,9.503211318932927,910.787634312881,None,9.463686480573415,9.503211318932927,10.49302409978535,True,False,False,920.3706164558241,None,920.3706164558241,None,920.3706164558241,None,920.3706164558241,None,920.3706164558241,None,920.3706164558241,None,920.3706164558241,None,920.3706164558241,None,921.3711258783769,None,921.3711258783769,None,922.3688726138862,None,922.3688726138862,None,h,,,,,,,,,,,,,,,,,,,,,,,,,,,,,,,,,,,,,,,,,,,,,,,15_16Exp,001,2021_Apr_29_1043,ComputerHuman,2020.1.3,60.01045332388586,
Human.xlsx,h,Sychronize.jpg,Number10.jpg,10,Human,,,,,0,3,3,6,0,6,6,9,,,,,,,,,,,,,,,,,,,,,,,,,,,,,923.4019857214118,None,923.4019857214118,None,923.8688471106791,None,923.8688471106791,None,v,9.870113288774974,923.8688471106791,None,t,9.437361075689978,923.8688471106791,None,9.870113288774974,9.437361075689978,10.271529636775558,False,False,False,933.8334518671074,None,933.8334518671074,None,933.8334518671074,None,933.8334518671074,None,933.8334518671074,None,933.8334518671074,None,933.8334518671074,None,933.8334518671074,None,934.8185262354218,None,934.8185262354218,None,935.8163826828411,None,935.8163826828411,None,h,,,,,,,,,,,,,,,,,,,,,,,,,,,,,,,,,,,,,,,,,,,,,,,15_16Exp,001,2021_Apr_29_1043,ComputerHuman,2020.1.3,60.01045332388586,
Human.xlsx,h,Sychronize.jpg,Number8.jpg,8,Human,,,,,0,3,3,6,0,7,7,5,,,,,,,,,,,,,,,,,,,,,,,,,,,,,936.8665245544557,None,936.8665245544557,None,937.3164790817561,None,937.3164790817561,None,v,7.618172398472552,937.3164790817561,None,t,7.957251492098067,937.3164790817561,None,7.618172398472552,7.957251492098067,8.129868708210138,False,False,False,945.3643753879614,None,945.3643753879614,None,945.3643753879614,None,945.3643753879614,None,945.3643753879614,None,945.3643753879614,None,945.3643753879614,None,945.3643753879614,None,946.333967865959,None,946.333967865959,None,947.3308478132203,None,947.3308478132203,None,h,,,,,,,,,,,,,,,,,,,,,,,,,,,,,,,,,,,,,,,,,,,,,,,15_16Exp,001,2021_Apr_29_1043,ComputerHuman,2020.1.3,60.01045332388586,
Human.xlsx,h,Sychronize.jpg,Number7.jpg,7,Human,,,,,0,3,3,6,0,8,8,2,,,,,,,,,,,,,,,,,,,,,,,,,,,,,948.3973640270044,None,948.3973640270044,None,948.8473557665318,None,948.8473557665318,None,v,6.7551451517440455,948.8473557665318,None,t,6.91844780102997,948.8473557665318,None,6.7551451517440455,6.91844780102997,6.4987551688500815,True,False,False,955.846089267641,None,955.846089267641,None,955.846089267641,None,955.846089267641,None,955.846089267641,None,955.846089267641,None,955.846089267641,None,955.846089267641,None,956.8477099242764,None,956.8477099242764,None,957.8288090002261,None,957.8288090002261,None,h,,,,,,,,,,,,,,,,,,,,,,,,,,,,,,,,,,,,,,,,,,,,,,,15_16Exp,001,2021_Apr_29_1043,ComputerHuman,2020.1.3,60.01045332388586,
Human.xlsx,h,Sychronize.jpg,Number9.jpg,9,Human,,,,,0,3,3,6,0,9,9,7,,,,,,,,,,,,,,,,,,,,,,,,,,,,,958.8957050353597,None,958.8957050353597,None,959.3285105004243,None,959.3285105004243,None,v,8.81772553095584,959.3285105004243,None,t,8.129184170046983,959.3285105004243,None,8.81772553095584,8.129184170046983,8.916027561594786,False,False,False,968.2286136360356,None,968.2286136360356,None,968.2286136360356,None,968.2286136360356,None,968.2286136360356,None,968.2286136360356,None,968.2286136360356,None,968.2286136360356,None,969.2278713162702,None,969.2278713162702,None,970.2264700834548,None,970.2264700834548,None,h,,,,,,,,,,,,,,,,,,,,,,,,,,,,,,,,,,,,,,,,,,,,,,,15_16Exp,001,2021_Apr_29_1043,ComputerHuman,2020.1.3,60.01045332388586,
Human.xlsx,h,,,,,,,,,0,3,3,6,,,,,,,,,,,,,,,,,,,,,,,,,,,,,,,,,,,,,,,,,,,,,,,,,,,,,,,,,,,,,,,,,,,,,,,,,,,,,,,h,971.2268749268185,None,971.2268749268185,None,q,0,2.099264256533388,971.2268749268185,None,o,1,2.102536045334773,971.2268749268185,None,h,h,973.4262593211013,None,973.4262593211013,None,975.4255006407882,None,None,None,None,None,None,None,None,,,,,,,,,,,,,,,,,,15_16Exp,001,2021_Apr_29_1043,ComputerHuman,2020.1.3,60.01045332388586,
Computer.xlsx,c,Sychronize.jpg,Number8.jpg,8,Computer,,,,,0,4,4,7,0,0,0,4,,,,,,,,,,,,,,,,,,,,,,,,,980.4275816383324,None,980.4275816383324,None,983.5244447438531,None,983.5244447438531,None,983.9576056498424,None,983.9576056498424,None,v,7.428107100638272,983.9576056498424,None,t,7.447496274767445,983.9576056498424,None,7.428107100638272,7.447496274767445,8.137930819003458,False,False,False,991.4731124017765,None,991.4731124017765,None,991.4731124017765,None,991.4731124017765,None,991.4731124017765,None,991.4731124017765,None,991.4731124017765,None,991.4731124017765,None,992.4888403419034,None,992.4888403419034,None,993.4552906323031,None,993.4552906323031,None,c,,,,,,,,,,,,,,,,,,,,,,,,,,,,,,,,,,,,,,,,,,,,,,,15_16Exp,001,2021_Apr_29_1043,ComputerHuman,2020.1.3,60.01045332388586,
Computer.xlsx,c,Sychronize.jpg,Number6.jpg,6,Computer,,,,,0,4,4,7,0,1,1,1,,,,,,,,,,,,,,,,,,,,,,,,,,,,,994.5225334468948,None,994.5225334468948,None,994.9553671419244,None,994.9553671419244,None,v,6.094180296446666,994.9553671419244,None,t,7.101254469076139,994.9553671419244,None,6.094180296446666,7.101254469076139,6.056359452659041,False,True,False,1002.1537750360494,None,1002.1537750360494,None,1002.1537750360494,None,1002.1537750360494,None,1002.1537750360494,None,1002.1537750360494,None,1002.1537750360494,None,1002.1537750360494,None,1003.1535530458689,None,1003.1535530458689,None,1004.1367138716594,None,1004.1367138716594,None,c,,,,,,,,,,,,,,,,,,,,,,,,,,,,,,,,,,,,,,,,,,,,,,,15_16Exp,001,2021_Apr_29_1043,ComputerHuman,2020.1.3,60.01045332388586,
Computer.xlsx,c,Sychronize.jpg,Number10.jpg,10,Computer,,,,,0,4,4,7,0,2,2,8,,,,,,,,,,,,,,,,,,,,,,,,,,,,,1005.1869295261376,None,1005.1869295261376,None,1005.6370393182463,None,1005.6370393182463,None,v,9.648158074973026,1005.6370393182463,None,t,9.823225562233574,1005.6370393182463,None,9.648158074973026,9.823225562233574,10.246961227926224,False,False,False,1015.5510598266744,None,1015.5510598266744,None,1015.5510598266744,None,1015.5510598266744,None,1015.5510598266744,None,1015.5510598266744,None,1015.5510598266744,None,1015.5510598266744,None,1016.5508407236493,None,1016.5508407236493,None,1017.5341112613501,None,1017.5341112613501,None,c,,,,,,,,,,,,,,,,,,,,,,,,,,,,,,,,,,,,,,,,,,,,,,,15_16Exp,001,2021_Apr_29_1043,ComputerHuman,2020.1.3,60.01045332388586,
Computer.xlsx,c,Sychronize.jpg,Number8.jpg,8,Computer,,,,,0,4,4,7,0,3,3,5,,,,,,,,,,,,,,,,,,,,,,,,,,,,,1018.5837863761546,None,1018.5837863761546,None,1019.0344649379022,None,1019.0344649379022,None,v,8.550459939915072,1019.0344649379022,None,t,8.422295898154061,1019.0344649379022,None,8.550459939915072,8.422295898154061,8.21404303670295,False,False,True,1027.682134121206,None,1027.682134121206,None,1027.682134121206,None,1027.682134121206,None,1027.682134121206,None,1027.682134121206,None,1027.682134121206,None,1027.682134121206,None,1028.665275057703,None,1028.665275057703,None,1029.6484698877698,None,1029.6484698877698,None,c,,,,,,,,,,,,,,,,,,,,,,,,,,,,,,,,,,,,,,,,,,,,,,,15_16Exp,001,2021_Apr_29_1043,ComputerHuman,2020.1.3,60.01045332388586,
Computer.xlsx,c,Sychronize.jpg,Number7.jpg,7,Computer,,,,,0,4,4,7,0,4,4,3,,,,,,,,,,,,,,,,,,,,,,,,,,,,,1030.732387308706,None,1030.732387308706,None,1031.1482891197543,None,1031.1482891197543,None,v,7.872834593255902,1031.1482891197543,None,t,6.919261337298394,1031.1482891197543,None,7.872834593255902,6.919261337298394,7.522078455404227,False,False,False,1039.0981363411076,None,1039.0981363411076,None,1039.0981363411076,None,1039.0981363411076,None,1039.0981363411076,None,1039.0981363411076,None,1039.0981363411076,None,1039.0981363411076,None,1040.1130943730943,None,1040.1130943730943,None,1041.079637694061,None,1041.079637694061,None,c,,,,,,,,,,,,,,,,,,,,,,,,,,,,,,,,,,,,,,,,,,,,,,,15_16Exp,001,2021_Apr_29_1043,ComputerHuman,2020.1.3,60.01045332388586,
Computer.xlsx,c,Sychronize.jpg,Number9.jpg,9,Computer,,,,,0,4,4,7,0,5,5,7,,,,,,,,,,,,,,,,,,,,,,,,,,,,,1042.1461891953015,None,1042.1461891953015,None,1042.579745000008,None,1042.579745000008,None,v,10.300651053571073,1042.579745000008,None,t,8.040217755685717,1042.579745000008,None,10.300651053571073,8.040217755685717,9.194736003163767,False,False,False,1052.9772665373862,None,1052.9772665373862,None,1052.9772665373862,None,1052.9772665373862,None,1052.9772665373862,None,1052.9772665373862,None,1052.9772665373862,None,1052.9772665373862,None,1053.97698520012,None,1053.97698520012,None,1054.960308027415,None,1054.960308027415,None,c,,,,,,,,,,,,,,,,,,,,,,,,,,,,,,,,,,,,,,,,,,,,,,,15_16Exp,001,2021_Apr_29_1043,ComputerHuman,2020.1.3,60.01045332388586,
Computer.xlsx,c,Sychronize.jpg,Number9.jpg,9,Computer,,,,,0,4,4,7,0,6,6,6,,,,,,,,,,,,,,,,,,,,,,,,,,,,,1055.9938542082698,None,1055.9938542082698,None,1056.4604573575148,None,1056.4604573575148,None,v,9.75565168714138,1056.4604573575148,None,t,8.863223573303912,1056.4604573575148,None,9.75565168714138,8.863223573303912,9.060059106630858,False,False,True,1066.3081688857665,None,1066.3081688857665,None,1066.3081688857665,None,1066.3081688857665,None,1066.3081688857665,None,1066.3081688857665,None,1066.3081688857665,None,1066.3081688857665,None,1067.307930214243,None,1067.307930214243,None,1068.2911131748926,None,1068.2911131748926,None,c,,,,,,,,,,,,,,,,,,,,,,,,,,,,,,,,,,,,,,,,,,,,,,,15_16Exp,001,2021_Apr_29_1043,ComputerHuman,2020.1.3,60.01045332388586,
Computer.xlsx,c,Sychronize.jpg,Number7.jpg,7,Computer,,,,,0,4,4,7,0,7,7,2,,,,,,,,,,,,,,,,,,,,,,,,,,,,,1069.341616261743,None,1069.341616261743,None,1069.7913998052773,None,1069.7913998052773,None,v,6.580492452494127,1069.7913998052773,None,t,6.343319041913674,1069.7913998052773,None,6.580492452494127,6.343319041913674,6.643104820989981,False,True,True,1076.4412436582827,None,1076.4412436582827,None,1076.4412436582827,None,1076.4412436582827,None,1076.4412436582827,None,1076.4412436582827,None,1076.4412436582827,None,1076.4412436582827,None,1077.43922617816,None,1077.43922617816,None,1078.4225618372575,None,1078.4225618372575,None,c,,,,,,,,,,,,,,,,,,,,,,,,,,,,,,,,,,,,,,,,,,,,,,,15_16Exp,001,2021_Apr_29_1043,ComputerHuman,2020.1.3,60.01045332388586,
Computer.xlsx,c,Sychronize.jpg,Number6.jpg,6,Computer,,,,,0,4,4,7,0,8,8,0,,,,,,,,,,,,,,,,,,,,,,,,,,,,,1079.4724473936203,None,1079.4724473936203,None,1079.9225260686085,None,1079.9225260686085,None,v,6.337130584440274,1079.9225260686085,None,t,4.940338535025148,1079.9225260686085,None,6.337130584440274,4.940338535025148,5.811827650993358,False,False,False,1086.3382049270913,None,1086.3382049270913,None,1086.3382049270913,None,1086.3382049270913,None,1086.3382049270913,None,1086.3382049270913,None,1086.3382049270913,None,1086.3382049270913,None,1087.3541564613738,None,1087.3541564613738,None,1088.3373391012285,None,1088.3373391012285,None,c,,,,,,,,,,,,,,,,,,,,,,,,,,,,,,,,,,,,,,,,,,,,,,,15_16Exp,001,2021_Apr_29_1043,ComputerHuman,2020.1.3,60.01045332388586,
Computer.xlsx,c,Sychronize.jpg,Number10.jpg,10,Computer,,,,,0,4,4,7,0,9,9,9,,,,,,,,,,,,,,,,,,,,,,,,,,,,,1089.3871325894095,None,1089.3871325894095,None,1089.8372888968017,None,1089.8372888968017,None,v,10.45407802698196,1089.8372888968017,None,t,9.485196430834321,1089.8372888968017,None,10.45407802698196,9.485196430834321,10.066735068287848,False,False,False,1100.385028815416,None,1100.385028815416,None,1100.385028815416,None,1100.385028815416,None,1100.385028815416,None,1100.385028815416,None,1100.385028815416,None,1100.385028815416,None,1101.384814203522,None,1101.384814203522,None,1102.36793236357,None,1102.36793236357,None,c,,,,,,,,,,,,,,,,,,,,,,,,,,,,,,,,,,,,,,,,,,,,,,,15_16Exp,001,2021_Apr_29_1043,ComputerHuman,2020.1.3,60.01045332388586,
Computer.xlsx,c,,,,,,,,,0,4,4,7,,,,,,,,,,,,,,,,,,,,,,,,,,,,,,,,,,,,,,,,,,,,,,,,,,,,,,,,,,,,,,,,,,,,,,,,,,,,,,,c,1103.3690375025462,None,1103.3690375025462,None,a,1,9.586081023207953,1103.3690375025462,None,o,0,1.969462235203764,1103.3690375025462,None,c,h,1113.0324423250584,None,1113.0324423250584,None,None,None,1115.0488250078995,None,1115.0488250078995,None,"['space', 'space']",1116.0320759771016,None,"[8.294605670694182, 33.5702517118425]",,,,,,,,,,,,,,,,,15_16Exp,001,2021_Apr_29_1043,ComputerHuman,2020.1.3,60.01045332388586,
Human.xlsx,h,Sychronize.jpg,Number10.jpg,10,Human,,,,,0,5,5,2,0,0,0,9,,,,,,,,,,,,,,,,,,,,,,,,,1149.6622393740647,None,1149.6622393740647,None,1152.725486044613,None,1152.725486044613,None,1153.1751739912197,None,1153.1751739912197,None,v,9.6228438161138,1153.1751739912197,None,t,9.398205151647744,1153.1751739912197,None,9.6228438161138,9.398205151647744,9.862550822456916,True,False,False,1162.8897032806105,None,1162.8897032806105,None,1162.8897032806105,None,1162.8897032806105,None,1162.8897032806105,None,1162.8897032806105,None,1162.8897032806105,None,1162.8897032806105,None,1163.874925856242,None,1163.874925856242,None,1164.8894232265245,None,1164.8894232265245,None,h,,,,,,,,,,,,,,,,,,,,,,,,,,,,,,,,,,,,,,,,,,,,,,,15_16Exp,001,2021_Apr_29_1043,ComputerHuman,2020.1.3,60.01045332388586,
Human.xlsx,h,Sychronize.jpg,Number9.jpg,9,Human,,,,,0,5,5,2,0,1,1,6,,,,,,,,,,,,,,,,,,,,,,,,,,,,,1165.9399333708664,None,1165.9399333708664,None,1166.3895456098394,None,1166.3895456098394,None,v,8.292173402561048,1166.3895456098394,None,t,7.791260259426963,1166.3895456098394,None,8.292173402561048,7.791260259426963,9.374740706810886,False,False,False,1174.754695397072,None,1174.754695397072,None,1174.754695397072,None,1174.754695397072,None,1174.754695397072,None,1174.754695397072,None,1174.754695397072,None,1174.754695397072,None,1175.7396270115855,None,1175.7396270115855,None,1176.737172608593,None,1176.737172608593,None,h,,,,,,,,,,,,,,,,,,,,,,,,,,,,,,,,,,,,,,,,,,,,,,,15_16Exp,001,2021_Apr_29_1043,ComputerHuman,2020.1.3,60.01045332388586,
Human.xlsx,h,Sychronize.jpg,Number6.jpg,6,Human,,,,,0,5,5,2,0,2,2,0,,,,,,,,,,,,,,,,,,,,,,,,,,,,,1177.8039759339547,None,1177.8039759339547,None,1178.2370774928584,None,1178.2370774928584,None,v,5.340419375379724,1178.2370774928584,None,t,6.135456355030101,1178.2370774928584,None,5.340419375379724,6.135456355030101,6.3010638465246425,False,False,False,1184.4538810588163,None,1184.4538810588163,None,1184.4538810588163,None,1184.4538810588163,None,1184.4538810588163,None,1184.4538810588163,None,1184.4538810588163,None,1184.4538810588163,None,1185.454664761144,None,1185.454664761144,None,1186.4520076156748,None,1186.4520076156748,None,h,,,,,,,,,,,,,,,,,,,,,,,,,,,,,,,,,,,,,,,,,,,,,,,15_16Exp,001,2021_Apr_29_1043,ComputerHuman,2020.1.3,60.01045332388586,
Human.xlsx,h,Sychronize.jpg,Number7.jpg,7,Human,,,,,0,5,5,2,0,3,3,2,,,,,,,,,,,,,,,,,,,,,,,,,,,,,1187.5021196533487,None,1187.5021196533487,None,1187.951819148578,None,1187.951819148578,None,v,7.9254895733588455,1187.951819148578,None,t,6.305750091025857,1187.951819148578,None,7.9254895733588455,6.305750091025857,7.208231911386772,False,False,False,1195.9668166383565,None,1195.9668166383565,None,1195.9668166383565,None,1195.9668166383565,None,1195.9668166383565,None,1195.9668166383565,None,1195.9668166383565,None,1195.9668166383565,None,1196.9355217972222,None,1196.9355217972222,None,1197.949802951635,None,1197.949802951635,None,h,,,,,,,,,,,,,,,,,,,,,,,,,,,,,,,,,,,,,,,,,,,,,,,15_16Exp,001,2021_Apr_29_1043,ComputerHuman,2020.1.3,60.01045332388586,
Human.xlsx,h,Sychronize.jpg,Number8.jpg,8,Human,,,,,0,5,5,2,0,4,4,4,,,,,,,,,,,,,,,,,,,,,,,,,,,,,1199.0001228645071,None,1199.0001228645071,None,1199.449897104985,None,1199.449897104985,None,v,9.143111808305548,1199.449897104985,None,t,7.9222344659001465,1199.449897104985,None,9.143111808305548,7.9222344659001465,8.254549041499242,False,False,False,1208.6810716479724,None,1208.6810716479724,None,1208.6810716479724,None,1208.6810716479724,None,1208.6810716479724,None,1208.6810716479724,None,1208.6810716479724,None,1208.6810716479724,None,1209.6499612639966,None,1209.6499612639966,None,1210.6473949035287,None,1210.6473949035287,None,h,,,,,,,,,,,,,,,,,,,,,,,,,,,,,,,,,,,,,,,,,,,,,,,15_16Exp,001,2021_Apr_29_1043,ComputerHuman,2020.1.3,60.01045332388586,
Human.xlsx,h,Sychronize.jpg,Number7.jpg,7,Human,,,,,0,5,5,2,0,5,5,3,,,,,,,,,,,,,,,,,,,,,,,,,,,,,1211.6977314977441,None,1211.6977314977441,None,1212.1476459256621,None,1212.1476459256621,None,v,7.581221619662301,1212.1476459256621,None,t,6.948257361043488,1212.1476459256621,None,7.581221619662301,6.948257361043488,6.955636351139006,False,False,False,1219.7972405209068,None,1219.7972405209068,None,1219.7972405209068,None,1219.7972405209068,None,1219.7972405209068,None,1219.7972405209068,None,1219.7972405209068,None,1219.7972405209068,None,1220.7979398541345,None,1220.7979398541345,None,1221.795282067075,None,1221.795282067075,None,h,,,,,,,,,,,,,,,,,,,,,,,,,,,,,,,,,,,,,,,,,,,,,,,15_16Exp,001,2021_Apr_29_1043,ComputerHuman,2020.1.3,60.01045332388586,
Human.xlsx,h,Sychronize.jpg,Number6.jpg,6,Human,,,,,0,5,5,2,0,6,6,1,,,,,,,,,,,,,,,,,,,,,,,,,,,,,1222.8456699884994,None,1222.8456699884994,None,1223.2950679363732,None,1223.2950679363732,None,v,6.621469209288534,1223.2950679363732,None,t,6.484254255747601,1223.2950679363732,None,6.621469209288534,6.484254255747601,5.833695048755381,True,False,False,1229.9936771293976,None,1229.9936771293976,None,1229.9936771293976,None,1229.9936771293976,None,1229.9936771293976,None,1229.9936771293976,None,1229.9936771293976,None,1229.9936771293976,None,1230.9794922135018,None,1230.9794922135018,None,1231.9932584918463,None,1231.9932584918463,None,h,,,,,,,,,,,,,,,,,,,,,,,,,,,,,,,,,,,,,,,,,,,,,,,15_16Exp,001,2021_Apr_29_1043,ComputerHuman,2020.1.3,60.01045332388586,
Human.xlsx,h,Sychronize.jpg,Number8.jpg,8,Human,,,,,0,5,5,2,0,7,7,5,,,,,,,,,,,,,,,,,,,,,,,,,,,,,1233.060029737702,None,1233.060029737702,None,1233.4934161626172,None,1233.4934161626172,None,v,8.77088849003394,1233.4934161626172,None,t,7.266223007100962,1233.4934161626172,None,8.77088849003394,7.266223007100962,8.505955305434165,False,False,False,1242.3415453660352,None,1242.3415453660352,None,1242.3415453660352,None,1242.3415453660352,None,1242.3415453660352,None,1242.3415453660352,None,1242.3415453660352,None,1242.3415453660352,None,1243.3261273139349,None,1243.3261273139349,None,1244.324312576289,None,1244.324312576289,None,h,,,,,,,,,,,,,,,,,,,,,,,,,,,,,,,,,,,,,,,,,,,,,,,15_16Exp,001,2021_Apr_29_1043,ComputerHuman,2020.1.3,60.01045332388586,
Human.xlsx,h,Sychronize.jpg,Number9.jpg,9,Human,,,,,0,5,5,2,0,8,8,7,,,,,,,,,,,,,,,,,,,,,,,,,,,,,1245.3748778973807,None,1245.3748778973807,None,1245.8244108999745,None,1245.8244108999745,None,v,9.111564180665482,1245.8244108999745,None,t,8.191238766158222,1245.8244108999745,None,9.111564180665482,8.191238766158222,8.965489711423873,False,False,False,1254.988402617046,None,1254.988402617046,None,1254.988402617046,None,1254.988402617046,None,1254.988402617046,None,1254.988402617046,None,1254.988402617046,None,1254.988402617046,None,1256.0068297267946,None,1256.0068297267946,None,1256.9885123289562,None,1256.9885123289562,None,h,,,,,,,,,,,,,,,,,,,,,,,,,,,,,,,,,,,,,,,,,,,,,,,15_16Exp,001,2021_Apr_29_1043,ComputerHuman,2020.1.3,60.01045332388586,
Human.xlsx,h,Sychronize.jpg,Number10.jpg,10,Human,,,,,0,5,5,2,0,9,9,8,,,,,,,,,,,,,,,,,,,,,,,,,,,,,1258.0554911292145,None,1258.0554911292145,None,1258.4886096902562,None,1258.4886096902562,None,v,9.499113162060894,1258.4886096902562,None,t,8.850166252038889,1258.4886096902562,None,9.499113162060894,8.850166252038889,10.702051262809468,False,False,False,1268.0710586718121,None,1268.0710586718121,None,1268.0710586718121,None,1268.0710586718121,None,1268.0710586718121,None,1268.0710586718121,None,1268.0710586718121,None,1268.0710586718121,None,1269.071605627387,None,1269.071605627387,None,1270.069400482155,None,1270.069400482155,None,h,,,,,,,,,,,,,,,,,,,,,,,,,,,,,,,,,,,,,,,,,,,,,,,15_16Exp,001,2021_Apr_29_1043,ComputerHuman,2020.1.3,60.01045332388586,
Human.xlsx,h,,,,,,,,,0,5,5,2,,,,,,,,,,,,,,,,,,,,,,,,,,,,,,,,,,,,,,,,,,,,,,,,,,,,,,,,,,,,,,,,,,,,,,,,,,,,,,,h,1271.0703404116764,None,1271.0703404116764,None,q,0,2.2736933616274655,1271.0703404116764,None,l,0,2.3322788799764567,1271.0703404116764,None,h,c,1273.4857674460384,None,1273.4857674460384,None,1275.4850392412557,None,None,None,None,None,None,None,None,,,,,,,,,,,,,,,,,,15_16Exp,001,2021_Apr_29_1043,ComputerHuman,2020.1.3,60.01045332388586,
Computer.xlsx,c,Sychronize.jpg,Number8.jpg,8,Computer,,,,,0,6,6,9,0,0,0,5,,,,,,,,,,,,,,,,,,,,,,,,,1280.4873005256225,None,1280.4873005256225,None,1283.5839993840734,None,1283.5839993840734,None,1284.0170829784536,None,1284.0170829784536,None,v,7.7381664316840215,1284.0170829784536,None,t,7.777314977439801,1284.0170829784536,None,7.7381664316840215,7.777314977439801,7.462888479926618,False,True,False,1291.8654441166989,None,1291.8654441166989,None,1291.8654441166989,None,1291.8654441166989,None,1291.8654441166989,None,1291.8654441166989,None,1291.8654441166989,None,1291.8654441166989,None,1292.881751091906,None,1292.881751091906,None,1293.864743500291,None,1293.864743500291,None,c,,,,,,,,,,,,,,,,,,,,,,,,,,,,,,,,,,,,,,,,,,,,,,,15_16Exp,001,2021_Apr_29_1043,ComputerHuman,2020.1.3,60.01045332388586,
Computer.xlsx,c,Sychronize.jpg,Number6.jpg,6,Computer,,,,,0,6,6,9,0,1,1,1,,,,,,,,,,,,,,,,,,,,,,,,,,,,,1294.9319324213131,None,1294.9319324213131,None,1295.3648710163268,None,1295.3648710163268,None,v,7.654116843184511,1295.3648710163268,None,t,5.581328444416613,1295.3648710163268,None,7.654116843184511,5.581328444416613,6.441578011943744,False,False,False,1303.1131370388368,None,1303.1131370388368,None,1303.1131370388368,None,1303.1131370388368,None,1303.1131370388368,None,1303.1131370388368,None,1303.1131370388368,None,1303.1131370388368,None,1304.1128544183905,None,1304.1128544183905,None,1305.096092876585,None,1305.096092876585,None,c,,,,,,,,,,,,,,,,,,,,,,,,,,,,,,,,,,,,,,,,,,,,,,,15_16Exp,001,2021_Apr_29_1043,ComputerHuman,2020.1.3,60.01045332388586,
Computer.xlsx,c,Sychronize.jpg,Number7.jpg,7,Computer,,,,,0,6,6,9,0,2,2,2,,,,,,,,,,,,,,,,,,,,,,,,,,,,,1306.1456467308578,None,1306.1456467308578,None,1306.5963692415282,None,1306.5963692415282,None,v,6.754373318833586,1306.5963692415282,None,t,6.729288749236275,1306.5963692415282,None,6.754373318833586,6.729288749236275,6.492419033478815,False,True,True,1313.4278238386016,None,1313.4278238386016,None,1313.4278238386016,None,1313.4278238386016,None,1313.4278238386016,None,1313.4278238386016,None,1313.4278238386016,None,1313.4278238386016,None,1314.427585167078,None,1314.427585167078,None,1315.4274225239835,None,1315.4274225239835,None,c,,,,,,,,,,,,,,,,,,,,,,,,,,,,,,,,,,,,,,,,,,,,,,,15_16Exp,001,2021_Apr_29_1043,ComputerHuman,2020.1.3,60.01045332388586,
Computer.xlsx,c,Sychronize.jpg,Number8.jpg,8,Computer,,,,,0,6,6,9,0,3,3,4,,,,,,,,,,,,,,,,,,,,,,,,,,,,,1316.4781033312963,None,1316.4781033312963,None,1316.9272642116218,None,1316.9272642116218,None,v,7.907288303330915,1316.9272642116218,None,t,7.3862975598726734,1316.9272642116218,None,7.907288303330915,7.3862975598726734,8.203815656111212,False,True,False,1324.925552128395,None,1324.925552128395,None,1324.925552128395,None,1324.925552128395,None,1324.925552128395,None,1324.925552128395,None,1324.925552128395,None,1324.925552128395,None,1325.9087382969954,None,1325.9087382969954,None,1326.891938901373,None,1326.891938901373,None,c,,,,,,,,,,,,,,,,,,,,,,,,,,,,,,,,,,,,,,,,,,,,,,,15_16Exp,001,2021_Apr_29_1043,ComputerHuman,2020.1.3,60.01045332388586,
Computer.xlsx,c,Sychronize.jpg,Number10.jpg,10,Computer,,,,,0,6,6,9,0,4,4,9,,,,,,,,,,,,,,,,,,,,,,,,,,,,,1327.9418988821897,None,1327.9418988821897,None,1328.3921369923216,None,1328.3921369923216,None,v,9.610075210401646,1328.3921369923216,None,t,9.181224186022519,1328.3921369923216,None,9.610075210401646,9.181224186022519,10.022386112794148,False,False,False,1338.0738826307118,None,1338.0738826307118,None,1338.0738826307118,None,1338.0738826307118,None,1338.0738826307118,None,1338.0738826307118,None,1338.0738826307118,None,1338.0738826307118,None,1339.089634309673,None,1339.089634309673,None,1340.072753111311,None,1340.072753111311,None,c,,,,,,,,,,,,,,,,,,,,,,,,,,,,,,,,,,,,,,,,,,,,,,,15_16Exp,001,2021_Apr_29_1043,ComputerHuman,2020.1.3,60.01045332388586,
Computer.xlsx,c,Sychronize.jpg,Number9.jpg,9,Computer,,,,,0,6,6,9,0,5,5,7,,,,,,,,,,,,,,,,,,,,,,,,,,,,,1341.122649253911,None,1341.122649253911,None,1341.5563009763398,None,1341.5563009763398,None,v,9.817636991519976,1341.5563009763398,None,t,8.097398833268471,1341.5563009763398,None,9.817636991519976,8.097398833268471,9.142848849854595,False,False,False,1351.4543901605741,None,1351.4543901605741,None,1351.4543901605741,None,1351.4543901605741,None,1351.4543901605741,None,1351.4543901605741,None,1351.4543901605741,None,1351.4543901605741,None,1352.4703189184072,None,1352.4703189184072,None,1353.4534928967953,None,1353.4534928967953,None,c,,,,,,,,,,,,,,,,,,,,,,,,,,,,,,,,,,,,,,,,,,,,,,,15_16Exp,001,2021_Apr_29_1043,ComputerHuman,2020.1.3,60.01045332388586,
Computer.xlsx,c,Sychronize.jpg,Number7.jpg,7,Computer,,,,,0,6,6,9,0,6,6,3,,,,,,,,,,,,,,,,,,,,,,,,,,,,,1354.5034503112513,None,1354.5034503112513,None,1354.9533544737276,None,1354.9533544737276,None,v,7.204406761718474,1354.9533544737276,None,t,7.447433078140875,1354.9533544737276,None,7.204406761718474,7.447433078140875,6.783168152558258,False,False,False,1362.4698900154142,None,1362.4698900154142,None,1362.4698900154142,None,1362.4698900154142,None,1362.4698900154142,None,1362.4698900154142,None,1362.4698900154142,None,1362.4698900154142,None,1363.4682302217818,None,1363.4682302217818,None,1364.4514587353294,None,1364.4514587353294,None,c,,,,,,,,,,,,,,,,,,,,,,,,,,,,,,,,,,,,,,,,,,,,,,,15_16Exp,001,2021_Apr_29_1043,ComputerHuman,2020.1.3,60.01045332388586,
Computer.xlsx,c,Sychronize.jpg,Number6.jpg,6,Computer,,,,,0,6,6,9,0,7,7,0,,,,,,,,,,,,,,,,,,,,,,,,,,,,,1365.5350505492813,None,1365.5350505492813,None,1365.967989144295,None,1365.967989144295,None,v,6.265510842071308,1365.967989144295,None,t,5.276292122396171,1365.967989144295,None,6.265510842071308,5.276292122396171,6.252634455454907,False,True,False,1372.3005474367671,None,1372.3005474367671,None,1372.3005474367671,None,1372.3005474367671,None,1372.3005474367671,None,1372.3005474367671,None,1372.3005474367671,None,1372.3005474367671,None,1373.3162712065584,None,1373.3162712065584,None,1374.2829351464668,None,1374.2829351464668,None,c,,,,,,,,,,,,,,,,,,,,,,,,,,,,,,,,,,,,,,,,,,,,,,,15_16Exp,001,2021_Apr_29_1043,ComputerHuman,2020.1.3,60.01045332388586,
Computer.xlsx,c,Sychronize.jpg,Number9.jpg,9,Computer,,,,,0,6,6,9,0,8,8,6,,,,,,,,,,,,,,,,,,,,,,,,,,,,,1375.349954366903,None,1375.349954366903,None,1375.7827498873205,None,1375.7827498873205,None,v,9.158467946960172,1375.7827498873205,None,t,9.490194417845487,1375.7827498873205,None,9.158467946960172,9.490194417845487,8.500585866667508,False,False,False,1385.3640558760833,None,1385.3640558760833,None,1385.3640558760833,None,1385.3640558760833,None,1385.3640558760833,None,1385.3640558760833,None,1385.3640558760833,None,1385.3640558760833,None,1386.3639131222824,None,1386.3639131222824,None,1387.3470736272777,None,1387.3470736272777,None,c,,,,,,,,,,,,,,,,,,,,,,,,,,,,,,,,,,,,,,,,,,,,,,,15_16Exp,001,2021_Apr_29_1043,ComputerHuman,2020.1.3,60.01045332388586,
Computer.xlsx,c,Sychronize.jpg,Number10.jpg,10,Computer,,,,,0,6,6,9,0,9,9,8,,,,,,,,,,,,,,,,,,,,,,,,,,,,,1388.396851075706,None,1388.396851075706,None,1388.8474459099432,None,1388.8474459099432,None,v,10.049328976936522,1388.8474459099432,None,t,8.469247462912335,1388.8474459099432,None,10.049328976936522,8.469247462912335,10.641220538338395,False,False,False,1398.9776248654664,None,1398.9776248654664,None,1398.9776248654664,None,1398.9776248654664,None,1398.9776248654664,None,1398.9776248654664,None,1398.9776248654664,None,1398.9776248654664,None,1399.9945233867618,None,1399.9945233867618,None,1400.9778648201702,None,1400.9778648201702,None,c,,,,,,,,,,,,,,,,,,,,,,,,,,,,,,,,,,,,,,,,,,,,,,,15_16Exp,001,2021_Apr_29_1043,ComputerHuman,2020.1.3,60.01045332388586,
Computer.xlsx,c,,,,,,,,,0,6,6,9,,,,,,,,,,,,,,,,,,,,,,,,,,,,,,,,,,,,,,,,,,,,,,,,,,,,,,,,,,,,,,,,,,,,,,,,,,,,,,,c,1401.9785404145634,None,1401.9785404145634,None,a,0,2.534235729833199,1401.9785404145634,None,l,1,3.2734020797142875,1401.9785404145634,None,c,c,1405.3439728222427,None,1405.3439728222427,None,1407.3432818296867,None,None,None,None,None,None,None,None,,,,,,,,,,,,,,,,,,15_16Exp,001,2021_Apr_29_1043,ComputerHuman,2020.1.3,60.01045332388586,
Human.xlsx,h,Sychronize.jpg,Number8.jpg,8,Human,,,,,0,7,7,8,0,0,0,4,,,,,,,,,,,,,,,,,,,,,,,,,1412.328711959721,None,1412.328711959721,None,1415.4254813930845,None,1415.4254813930845,None,1415.8587154403474,None,1415.8587154403474,None,v,8.089662860433236,1415.8587154403474,None,t,6.8932256103526015,1415.8587154403474,None,8.089662860433236,6.8932256103526015,7.419558444716565,False,False,False,1424.023952804631,None,1424.023952804631,None,1424.023952804631,None,1424.023952804631,None,1424.023952804631,None,1424.023952804631,None,1424.023952804631,None,1424.023952804631,None,1425.042254162717,None,1425.042254162717,None,1426.0230180078304,None,1426.0230180078304,None,h,,,,,,,,,,,,,,,,,,,,,,,,,,,,,,,,,,,,,,,,,,,,,,,15_16Exp,001,2021_Apr_29_1043,ComputerHuman,2020.1.3,60.01045332388586,
Human.xlsx,h,Sychronize.jpg,Number9.jpg,9,Human,,,,,0,7,7,8,0,1,1,6,,,,,,,,,,,,,,,,,,,,,,,,,,,,,1427.0730995699744,None,1427.0730995699744,None,1427.522962670683,None,1427.522962670683,None,v,8.821082330447553,1427.522962670683,None,t,8.248260408596707,1427.522962670683,None,8.821082330447553,8.248260408596707,8.422540170641337,False,False,False,1436.4224713730507,None,1436.4224713730507,None,1436.4224713730507,None,1436.4224713730507,None,1436.4224713730507,None,1436.4224713730507,None,1436.4224713730507,None,1436.4224713730507,None,1437.4232040689647,None,1437.4232040689647,None,1438.420650219504,None,1438.420650219504,None,h,,,,,,,,,,,,,,,,,,,,,,,,,,,,,,,,,,,,,,,,,,,,,,,15_16Exp,001,2021_Apr_29_1043,ComputerHuman,2020.1.3,60.01045332388586,
Human.xlsx,h,Sychronize.jpg,Number9.jpg,9,Human,,,,,0,7,7,8,0,2,2,7,,,,,,,,,,,,,,,,,,,,,,,,,,,,,1439.4536789579295,None,1439.4536789579295,None,1439.9205233450582,None,1439.9205233450582,None,v,8.691329390761894,1439.9205233450582,None,t,8.42217431682684,1439.9205233450582,None,8.691329390761894,8.42217431682684,9.635706779038658,True,False,False,1448.686935781641,None,1448.686935781641,None,1448.686935781641,None,1448.686935781641,None,1448.686935781641,None,1448.686935781641,None,1448.686935781641,None,1448.686935781641,None,1449.6879963301046,None,1449.6879963301046,None,1450.6850267302482,None,1450.6850267302482,None,h,,,,,,,,,,,,,,,,,,,,,,,,,,,,,,,,,,,,,,,,,,,,,,,15_16Exp,001,2021_Apr_29_1043,ComputerHuman,2020.1.3,60.01045332388586,
Human.xlsx,h,Sychronize.jpg,Number6.jpg,6,Human,,,,,0,7,7,8,0,3,3,1,,,,,,,,,,,,,,,,,,,,,,,,,,,,,1451.7351897743367,None,1451.7351897743367,None,1452.1853329291314,None,1452.1853329291314,None,v,5.530310481497509,1452.1853329291314,None,t,6.05728918551722,1452.1853329291314,None,5.530310481497509,6.05728918551722,5.558294890196364,False,False,False,1458.3335986308468,None,1458.3335986308468,None,1458.3335986308468,None,1458.3335986308468,None,1458.3335986308468,None,1458.3335986308468,None,1458.3335986308468,None,1458.3335986308468,None,1459.3018296546159,None,1459.3018296546159,None,1460.2997563561532,None,1460.2997563561532,None,h,,,,,,,,,,,,,,,,,,,,,,,,,,,,,,,,,,,,,,,,,,,,,,,15_16Exp,001,2021_Apr_29_1043,ComputerHuman,2020.1.3,60.01045332388586,
Human.xlsx,h,Sychronize.jpg,Number8.jpg,8,Human,,,,,0,7,7,8,0,4,4,5,,,,,,,,,,,,,,,,,,,,,,,,,,,,,1461.3661936543529,None,1461.3661936543529,None,1461.800137300285,None,1461.800137300285,None,v,7.5752346214858335,1461.800137300285,None,t,7.462268245619725,1461.800137300285,None,7.5752346214858335,7.462268245619725,8.341643862435388,True,False,False,1469.464829794162,None,1469.464829794162,None,1469.464829794162,None,1469.464829794162,None,1469.464829794162,None,1469.464829794162,None,1469.464829794162,None,1469.464829794162,None,1470.4502493379593,None,1470.4502493379593,None,1471.4478552444377,None,1471.4478552444377,None,h,,,,,,,,,,,,,,,,,,,,,,,,,,,,,,,,,,,,,,,,,,,,,,,15_16Exp,001,2021_Apr_29_1043,ComputerHuman,2020.1.3,60.01045332388586,
Human.xlsx,h,Sychronize.jpg,Number7.jpg,7,Human,,,,,0,7,7,8,0,5,5,3,,,,,,,,,,,,,,,,,,,,,,,,,,,,,1472.4978931784533,None,1472.4978931784533,None,1472.94766100303,None,1472.94766100303,None,v,6.663511326471507,1472.94766100303,None,t,6.15464054111726,1472.94766100303,None,6.663511326471507,6.15464054111726,6.744098233119118,False,False,False,1479.6962032300855,None,1479.6962032300855,None,1479.6962032300855,None,1479.6962032300855,None,1479.6962032300855,None,1479.6962032300855,None,1479.6962032300855,None,1479.6962032300855,None,1480.6649837757898,None,1480.6649837757898,None,1481.6790875305358,None,1481.6790875305358,None,h,,,,,,,,,,,,,,,,,,,,,,,,,,,,,,,,,,,,,,,,,,,,,,,15_16Exp,001,2021_Apr_29_1043,ComputerHuman,2020.1.3,60.01045332388586,
Human.xlsx,h,Sychronize.jpg,Number6.jpg,6,Human,,,,,0,7,7,8,0,6,6,0,,,,,,,,,,,,,,,,,,,,,,,,,,,,,1482.7287260747037,None,1482.7287260747037,None,1483.17931834258,None,1483.17931834258,None,v,6.527640183430776,1483.17931834258,None,t,4.495328101165796,1483.17931834258,None,6.527640183430776,4.495328101165796,6.343834764512074,False,False,False,1489.7780550516397,None,1489.7780550516397,None,1489.7780550516397,None,1489.7780550516397,None,1489.7780550516397,None,1489.7780550516397,None,1489.7780550516397,None,1489.7780550516397,None,1490.779779325079,None,1490.779779325079,None,1491.7606429374562,None,1491.7606429374562,None,h,,,,,,,,,,,,,,,,,,,,,,,,,,,,,,,,,,,,,,,,,,,,,,,15_16Exp,001,2021_Apr_29_1043,ComputerHuman,2020.1.3,60.01045332388586,
Human.xlsx,h,Sychronize.jpg,Number10.jpg,10,Human,,,,,0,7,7,8,0,7,7,9,,,,,,,,,,,,,,,,,,,,,,,,,,,,,1492.8272909980094,None,1492.8272909980094,None,1493.2604076342807,None,1493.2604076342807,None,v,9.114245064969055,1493.2604076342807,None,t,9.72155630514635,1493.2604076342807,None,9.114245064969055,9.72155630514635,9.292700204362747,False,False,False,1503.0600342288328,None,1503.0600342288328,None,1503.0600342288328,None,1503.0600342288328,None,1503.0600342288328,None,1503.0600342288328,None,1503.0600342288328,None,1503.0600342288328,None,1504.0606546464758,None,1504.0606546464758,None,1505.0580305428973,None,1505.0580305428973,None,h,,,,,,,,,,,,,,,,,,,,,,,,,,,,,,,,,,,,,,,,,,,,,,,15_16Exp,001,2021_Apr_29_1043,ComputerHuman,2020.1.3,60.01045332388586,
Human.xlsx,h,Sychronize.jpg,Number7.jpg,7,Human,,,,,0,7,7,8,0,8,8,2,,,,,,,,,,,,,,,,,,,,,,,,,,,,,1506.108286296758,None,1506.108286296758,None,1506.5581814769723,None,1506.5581814769723,None,v,6.484226346577543,1506.5581814769723,None,t,6.299275484360351,1506.5581814769723,None,6.484226346577543,6.299275484360351,7.019943264091161,True,False,False,1513.107486875472,None,1513.107486875472,None,1513.107486875472,None,1513.107486875472,None,1513.107486875472,None,1513.107486875472,None,1513.107486875472,None,1513.107486875472,None,1514.1079558778476,None,1514.1079558778476,None,1515.1228494300274,None,1515.1228494300274,None,h,,,,,,,,,,,,,,,,,,,,,,,,,,,,,,,,,,,,,,,,,,,,,,,15_16Exp,001,2021_Apr_29_1043,ComputerHuman,2020.1.3,60.01045332388586,
Human.xlsx,h,Sychronize.jpg,Number10.jpg,10,Human,,,,,0,7,7,8,0,9,9,8,,,,,,,,,,,,,,,,,,,,,,,,,,,,,1516.172694887008,None,1516.172694887008,None,1516.6227588054232,None,1516.6227588054232,None,v,9.135425237909658,1516.6227588054232,None,t,8.962218361988562,1516.6227588054232,None,9.135425237909658,8.962218361988562,10.21754239339056,True,False,False,1525.8538345435325,None,1525.8538345435325,None,1525.8538345435325,None,1525.8538345435325,None,1525.8538345435325,None,1525.8538345435325,None,1525.8538345435325,None,1525.8538345435325,None,1526.8230067800034,None,1526.8230067800034,None,1527.8203692030327,None,1527.8203692030327,None,h,,,,,,,,,,,,,,,,,,,,,,,,,,,,,,,,,,,,,,,,,,,,,,,15_16Exp,001,2021_Apr_29_1043,ComputerHuman,2020.1.3,60.01045332388586,
Human.xlsx,h,,,,,,,,,0,7,7,8,,,,,,,,,,,,,,,,,,,,,,,,,,,,,,,,,,,,,,,,,,,,,,,,,,,,,,,,,,,,,,,,,,,,,,,,,,,,,,,h,1528.8208247320156,None,1528.8208247320156,None,a,0,9.705181000591892,1528.8208247320156,None,l,0,1.2724611878079486,1528.8208247320156,None,c,c,1538.6192983891276,None,1538.6192983891276,None,1540.6179314813833,None,None,None,None,None,None,None,None,,,,,,,,,,,,,,,,,,15_16Exp,001,2021_Apr_29_1043,ComputerHuman,2020.1.3,60.01045332388586,
Computer.xlsx,c,Sychronize.jpg,Number6.jpg,6,Computer,,,,,0,8,8,1,0,0,0,0,,,,,,,,,,,,,,,,,,,,,,,,,1545.6043259213636,None,1545.6043259213636,None,1548.7001085891272,None,1548.7001085891272,None,1549.1333259550468,None,1549.1333259550468,None,v,5.228209113466619,1549.1333259550468,None,t,5.483298928063505,1549.1333259550468,None,5.228209113466619,5.483298928063505,5.933631765698286,False,False,False,1554.6998724839643,None,1554.6998724839643,None,1554.6998724839643,None,1554.6998724839643,None,1554.6998724839643,None,1554.6998724839643,None,1554.6998724839643,None,1554.6998724839643,None,1555.7316866922981,None,1555.7316866922981,None,1556.7148622746615,None,1556.7148622746615,None,c,,,,,,,,,,,,,,,,,,,,,,,,,,,,,,,,,,,,,,,,,,,,,,,15_16Exp,001,2021_Apr_29_1043,ComputerHuman,2020.1.3,60.01045332388586,
Computer.xlsx,c,Sychronize.jpg,Number7.jpg,7,Computer,,,,,0,8,8,1,0,1,1,3,,,,,,,,,,,,,,,,,,,,,,,,,,,,,1557.7653672862823,None,1557.7653672862823,None,1558.1981493333076,None,1558.1981493333076,None,v,6.591149264336764,1558.1981493333076,None,t,6.670255721780904,1558.1981493333076,None,6.591149264336764,6.670255721780904,6.628022999422207,False,True,True,1564.9631801055737,None,1564.9631801055737,None,1564.9631801055737,None,1564.9631801055737,None,1564.9631801055737,None,1564.9631801055737,None,1564.9631801055737,None,1564.9631801055737,None,1565.9629715887856,None,1565.9629715887856,None,1566.9462212748074,None,1566.9462212748074,None,c,,,,,,,,,,,,,,,,,,,,,,,,,,,,,,,,,,,,,,,,,,,,,,,15_16Exp,001,2021_Apr_29_1043,ComputerHuman,2020.1.3,60.01045332388586,
Computer.xlsx,c,Sychronize.jpg,Number8.jpg,8,Computer,,,,,0,8,8,1,0,2,2,5,,,,,,,,,,,,,,,,,,,,,,,,,,,,,1567.996767668991,None,1567.996767668991,None,1568.4464780712517,None,1568.4464780712517,None,v,7.970593037784965,1568.4464780712517,None,t,7.506273307765696,1568.4464780712517,None,7.970593037784965,7.506273307765696,7.582152811516667,False,False,True,1576.511106726912,None,1576.511106726912,None,1576.511106726912,None,1576.511106726912,None,1576.511106726912,None,1576.511106726912,None,1576.511106726912,None,1576.511106726912,None,1577.4941703518,None,1577.4941703518,None,1578.4774511549424,None,1578.4774511549424,None,c,,,,,,,,,,,,,,,,,,,,,,,,,,,,,,,,,,,,,,,,,,,,,,,15_16Exp,001,2021_Apr_29_1043,ComputerHuman,2020.1.3,60.01045332388586,
Computer.xlsx,c,Sychronize.jpg,Number6.jpg,6,Computer,,,,,0,8,8,1,0,3,3,1,,,,,,,,,,,,,,,,,,,,,,,,,,,,,1579.5275307923155,None,1579.5275307923155,None,1579.9768822249064,None,1579.9768822249064,None,v,5.464011125172874,1579.9768822249064,None,t,4.503443253760452,1579.9768822249064,None,5.464011125172874,4.503443253760452,6.236604537647324,False,False,False,1585.526056418227,None,1585.526056418227,None,1585.526056418227,None,1585.526056418227,None,1585.526056418227,None,1585.526056418227,None,1585.526056418227,None,1585.526056418227,None,1586.5257067516134,None,1586.5257067516134,None,1587.5090180302861,None,1587.5090180302861,None,c,,,,,,,,,,,,,,,,,,,,,,,,,,,,,,,,,,,,,,,,,,,,,,,15_16Exp,001,2021_Apr_29_1043,ComputerHuman,2020.1.3,60.01045332388586,
Computer.xlsx,c,Sychronize.jpg,Number10.jpg,10,Computer,,,,,0,8,8,1,0,4,4,9,,,,,,,,,,,,,,,,,,,,,,,,,,,,,1588.5592583859836,None,1588.5592583859836,None,1589.0093219836042,None,1589.0093219836042,None,v,9.275248896865833,1589.0093219836042,None,t,7.146330345127353,1589.0093219836042,None,9.275248896865833,7.146330345127353,10.55652647101993,False,False,False,1598.3734933459084,None,1598.3734933459084,None,1598.3734933459084,None,1598.3734933459084,None,1598.3734933459084,None,1598.3734933459084,None,1598.3734933459084,None,1598.3734933459084,None,1599.3733807468427,None,1599.3733807468427,None,1600.3565017940462,None,1600.3565017940462,None,c,,,,,,,,,,,,,,,,,,,,,,,,,,,,,,,,,,,,,,,,,,,,,,,15_16Exp,001,2021_Apr_29_1043,ComputerHuman,2020.1.3,60.01045332388586,
Computer.xlsx,c,Sychronize.jpg,Number10.jpg,10,Computer,,,,,0,8,8,1,0,5,5,8,,,,,,,,,,,,,,,,,,,,,,,,,,,,,1601.3898856526014,None,1601.3898856526014,None,1601.8566835244471,None,1601.8566835244471,None,v,8.727619010956914,1601.8566835244471,None,t,8.887199475179386,1601.8566835244471,None,8.727619010956914,8.887199475179386,10.491297194622643,False,False,False,1610.8378403435074,None,1610.8378403435074,None,1610.8378403435074,None,1610.8378403435074,None,1610.8378403435074,None,1610.8378403435074,None,1610.8378403435074,None,1610.8378403435074,None,1611.8209546540145,None,1611.8209546540145,None,1612.80419696175,None,1612.80419696175,None,c,,,,,,,,,,,,,,,,,,,,,,,,,,,,,,,,,,,,,,,,,,,,,,,15_16Exp,001,2021_Apr_29_1043,ComputerHuman,2020.1.3,60.01045332388586,
Computer.xlsx,c,Sychronize.jpg,Number9.jpg,9,Computer,,,,,0,8,8,1,0,6,6,6,,,,,,,,,,,,,,,,,,,,,,,,,,,,,1613.8876614200633,None,1613.8876614200633,None,1614.3043889575927,None,1614.3043889575927,None,v,9.015641325461274,1614.3043889575927,None,t,7.907253978259632,1614.3043889575927,None,9.015641325461274,7.907253978259632,8.826781061964583,False,True,False,1623.4187071638346,None,1623.4187071638346,None,1623.4187071638346,None,1623.4187071638346,None,1623.4187071638346,None,1623.4187071638346,None,1623.4187071638346,None,1623.4187071638346,None,1624.418587828073,None,1624.418587828073,None,1625.3851394897113,None,1625.3851394897113,None,c,,,,,,,,,,,,,,,,,,,,,,,,,,,,,,,,,,,,,,,,,,,,,,,15_16Exp,001,2021_Apr_29_1043,ComputerHuman,2020.1.3,60.01045332388586,
Computer.xlsx,c,Sychronize.jpg,Number7.jpg,7,Computer,,,,,0,8,8,1,0,7,7,2,,,,,,,,,,,,,,,,,,,,,,,,,,,,,1626.435309591291,None,1626.435309591291,None,1626.8853459213312,None,1626.8853459213312,None,v,7.0704716168552295,1626.8853459213312,None,t,7.017277701054354,1626.8853459213312,None,7.0704716168552295,7.017277701054354,7.50828634100284,False,False,False,1634.0350333867457,None,1634.0350333867457,None,1634.0350333867457,None,1634.0350333867457,None,1634.0350333867457,None,1634.0350333867457,None,1634.0350333867457,None,1634.0350333867457,None,1635.049870478995,None,1635.049870478995,None,1636.0331092579847,None,1636.0331092579847,None,c,,,,,,,,,,,,,,,,,,,,,,,,,,,,,,,,,,,,,,,,,,,,,,,15_16Exp,001,2021_Apr_29_1043,ComputerHuman,2020.1.3,60.01045332388586,
Computer.xlsx,c,Sychronize.jpg,Number8.jpg,8,Computer,,,,,0,8,8,1,0,8,8,4,,,,,,,,,,,,,,,,,,,,,,,,,,,,,1637.0832739060486,None,1637.0832739060486,None,1637.5333474483157,None,1637.5333474483157,None,v,7.346232502634393,1637.5333474483157,None,t,7.233289865603183,1637.5333474483157,None,7.346232502634393,7.233289865603183,7.590222031814379,False,True,False,1644.9646778977014,None,1644.9646778977014,None,1644.9646778977014,None,1644.9646778977014,None,1644.9646778977014,None,1644.9646778977014,None,1644.9646778977014,None,1644.9646778977014,None,1645.9476863458397,None,1645.9476863458397,None,1646.9310595379586,None,1646.9310595379586,None,c,,,,,,,,,,,,,,,,,,,,,,,,,,,,,,,,,,,,,,,,,,,,,,,15_16Exp,001,2021_Apr_29_1043,ComputerHuman,2020.1.3,60.01045332388586,
Computer.xlsx,c,Sychronize.jpg,Number9.jpg,9,Computer,,,,,0,8,8,1,0,9,9,7,,,,,,,,,,,,,,,,,,,,,,,,,,,,,1647.9978137816763,None,1647.9978137816763,None,1648.4480150003767,None,1648.4480150003767,None,v,8.783275670421517,1648.4480150003767,None,t,9.754438119435235,1648.4480150003767,None,8.783275670421517,9.754438119435235,9.41272969557066,False,False,False,1658.2803338193378,None,1658.2803338193378,None,1658.2803338193378,None,1658.2803338193378,None,1658.2803338193378,None,1658.2803338193378,None,1658.2803338193378,None,1658.2803338193378,None,1659.2786130746442,None,1659.2786130746442,None,1660.2618621190757,None,1660.2618621190757,None,c,,,,,,,,,,,,,,,,,,,,,,,,,,,,,,,,,,,,,,,,,,,,,,,15_16Exp,001,2021_Apr_29_1043,ComputerHuman,2020.1.3,60.01045332388586,
Computer.xlsx,c,,,,,,,,,0,8,8,1,,,,,,,,,,,,,,,,,,,,,,,,,,,,,,,,,,,,,,,,,,,,,,,,,,,,,,,,,,,,,,,,,,,,,,,,,,,,,,,c,1661.2628703779449,None,1661.2628703779449,None,a,1,3.6122826011987854,1661.2628703779449,None,o,0,1.8793669430315276,1661.2628703779449,None,c,h,1664.961332967627,None,1664.961332967627,None,1666.9605720417483,None,None,None,None,None,None,None,None,,,,,,,,,,,,,,,,,,15_16Exp,001,2021_Apr_29_1043,ComputerHuman,2020.1.3,60.01045332388586,
Computer.xlsx,c,Sychronize.jpg,Number7.jpg,7,Computer,,,,,0,9,9,3,0,0,0,3,,,,,,,,,,,,,,,,,,,,,,,,,1671.9626847980032,None,1671.9626847980032,None,1675.0255914257898,None,1675.0255914257898,None,1675.4591719317157,None,1675.4591719317157,None,v,6.403642307093833,1675.4591719317157,None,t,5.79130581232539,1675.4591719317157,None,6.403642307093833,5.79130581232539,7.304806876745488,False,False,False,1681.9576422204793,None,1681.9576422204793,None,1681.9576422204793,None,1681.9576422204793,None,1681.9576422204793,None,1681.9576422204793,None,1681.9576422204793,None,1681.9576422204793,None,1682.9574070777014,None,1682.9574070777014,None,1683.9406500270268,None,1683.9406500270268,None,c,,,,,,,,,,,,,,,,,,,,,,,,,,,,,,,,,,,,,,,,,,,,,,,15_16Exp,001,2021_Apr_29_1043,ComputerHuman,2020.1.3,60.01045332388586,
Computer.xlsx,c,Sychronize.jpg,Number8.jpg,8,Computer,,,,,0,9,9,3,0,1,1,4,,,,,,,,,,,,,,,,,,,,,,,,,,,,,1685.007050113,None,1685.007050113,None,1685.4573450038577,None,1685.4573450038577,None,v,7.861203847615798,1685.4573450038577,None,t,7.740290736561292,1685.4573450038577,None,7.861203847615798,7.740290736561292,8.062520350260236,False,True,False,1693.4053938481131,None,1693.4053938481131,None,1693.4053938481131,None,1693.4053938481131,None,1693.4053938481131,None,1693.4053938481131,None,1693.4053938481131,None,1693.4053938481131,None,1694.388649629241,None,1694.388649629241,None,1695.371823607629,None,1695.371823607629,None,c,,,,,,,,,,,,,,,,,,,,,,,,,,,,,,,,,,,,,,,,,,,,,,,15_16Exp,001,2021_Apr_29_1043,ComputerHuman,2020.1.3,60.01045332388586,
Computer.xlsx,c,Sychronize.jpg,Number9.jpg,9,Computer,,,,,0,9,9,3,0,2,2,6,,,,,,,,,,,,,,,,,,,,,,,,,,,,,1696.4219353245082,None,1696.4219353245082,None,1696.8721368640038,None,1696.8721368640038,None,v,8.794114052267105,1696.8721368640038,None,t,9.729229722945547,1696.8721368640038,None,8.794114052267105,9.729229722945547,9.61448868081589,False,False,True,1706.6701383107895,None,1706.6701383107895,None,1706.6701383107895,None,1706.6701383107895,None,1706.6701383107895,None,1706.6701383107895,None,1706.6701383107895,None,1706.6701383107895,None,1707.6859887946287,None,1707.6859887946287,None,1708.6526450354556,None,1708.6526450354556,None,c,,,,,,,,,,,,,,,,,,,,,,,,,,,,,,,,,,,,,,,,,,,,,,,15_16Exp,001,2021_Apr_29_1043,ComputerHuman,2020.1.3,60.01045332388586,
Computer.xlsx,c,Sychronize.jpg,Number8.jpg,8,Computer,,,,,0,9,9,3,0,3,3,5,,,,,,,,,,,,,,,,,,,,,,,,,,,,,1709.7196283268452,None,1709.7196283268452,None,1710.1525640347033,None,1710.1525640347033,None,v,7.205910969747492,1710.1525640347033,None,t,8.160192861989344,1710.1525640347033,None,7.205910969747492,8.160192861989344,7.577090797453727,False,False,False,1718.40054727637,None,1718.40054727637,None,1718.40054727637,None,1718.40054727637,None,1718.40054727637,None,1718.40054727637,None,1718.40054727637,None,1718.40054727637,None,1719.4005440684193,None,1719.4005440684193,None,1720.3836708899337,None,1720.3836708899337,None,c,,,,,,,,,,,,,,,,,,,,,,,,,,,,,,,,,,,,,,,,,,,,,,,15_16Exp,001,2021_Apr_29_1043,ComputerHuman,2020.1.3,60.01045332388586,
Computer.xlsx,c,Sychronize.jpg,Number6.jpg,6,Computer,,,,,0,9,9,3,0,4,4,1,,,,,,,,,,,,,,,,,,,,,,,,,,,,,1721.4337165230306,None,1721.4337165230306,None,1721.8835597344457,None,1721.8835597344457,None,v,5.554222224360728,1721.8835597344457,None,t,8.217229261000739,1721.8835597344457,None,5.554222224360728,8.217229261000739,5.752065737569826,False,True,False,1730.1656560018348,None,1730.1656560018348,None,1730.1656560018348,None,1730.1656560018348,None,1730.1656560018348,None,1730.1656560018348,None,1730.1656560018348,None,1730.1656560018348,None,1731.1816129896335,None,1731.1816129896335,None,1732.1814150590824,None,1732.1814150590824,None,c,,,,,,,,,,,,,,,,,,,,,,,,,,,,,,,,,,,,,,,,,,,,,,,15_16Exp,001,2021_Apr_29_1043,ComputerHuman,2020.1.3,60.01045332388586,
Computer.xlsx,c,Sychronize.jpg,Number6.jpg,6,Computer,,,,,0,9,9,3,0,5,5,0,,,,,,,,,,,,,,,,,,,,,,,,,,,,,1733.2312188127055,None,1733.2312188127055,None,1733.6813757616876,None,1733.6813757616876,None,v,5.352131923759771,1733.6813757616876,None,t,5.4073096362021715,1733.6813757616876,None,5.352131923759771,5.4073096362021715,6.3116720631350205,False,False,False,1739.1640013409235,None,1739.1640013409235,None,1739.1640013409235,None,1739.1640013409235,None,1739.1640013409235,None,1739.1640013409235,None,1739.1640013409235,None,1739.1640013409235,None,1740.1799775764255,None,1740.1799775764255,None,1741.1463604998628,None,1741.1463604998628,None,c,,,,,,,,,,,,,,,,,,,,,,,,,,,,,,,,,,,,,,,,,,,,,,,15_16Exp,001,2021_Apr_29_1043,ComputerHuman,2020.1.3,60.01045332388586,
Computer.xlsx,c,Sychronize.jpg,Number10.jpg,10,Computer,,,,,0,9,9,3,0,6,6,8,,,,,,,,,,,,,,,,,,,,,,,,,,,,,1742.196610158617,None,1742.196610158617,None,1742.646568535458,None,1742.646568535458,None,v,9.246665094770833,1742.646568535458,None,t,9.974190433570584,1742.646568535458,None,9.246665094770833,9.974190433570584,9.976680502158034,False,False,True,1752.710826993621,None,1752.710826993621,None,1752.710826993621,None,1752.710826993621,None,1752.710826993621,None,1752.710826993621,None,1752.710826993621,None,1752.710826993621,None,1753.7107913853695,None,1753.7107913853695,None,1754.6938585390028,None,1754.6938585390028,None,c,,,,,,,,,,,,,,,,,,,,,,,,,,,,,,,,,,,,,,,,,,,,,,,15_16Exp,001,2021_Apr_29_1043,ComputerHuman,2020.1.3,60.01045332388586,
Computer.xlsx,c,Sychronize.jpg,Number9.jpg,9,Computer,,,,,0,9,9,3,0,7,7,7,,,,,,,,,,,,,,,,,,,,,,,,,,,,,1755.7436590846753,None,1755.7436590846753,None,1756.1938150712724,None,1756.1938150712724,None,v,7.75921604103587,1756.1938150712724,None,t,9.334340309022082,1756.1938150712724,None,7.75921604103587,9.334340309022082,9.324828960535308,False,False,True,1765.6250457533954,None,1765.6250457533954,None,1765.6250457533954,None,1765.6250457533954,None,1765.6250457533954,None,1765.6250457533954,None,1765.6250457533954,None,1765.6250457533954,None,1766.6247082769935,None,1766.6247082769935,None,1767.60806478777,None,1767.60806478777,None,c,,,,,,,,,,,,,,,,,,,,,,,,,,,,,,,,,,,,,,,,,,,,,,,15_16Exp,001,2021_Apr_29_1043,ComputerHuman,2020.1.3,60.01045332388586,
Computer.xlsx,c,Sychronize.jpg,Number7.jpg,7,Computer,,,,,0,9,9,3,0,8,8,2,,,,,,,,,,,,,,,,,,,,,,,,,,,,,1768.6579808196636,None,1768.6579808196636,None,1769.108303940486,None,1769.108303940486,None,v,6.236403502440226,1769.108303940486,None,t,6.62728297813328,1769.108303940486,None,6.236403502440226,6.62728297813328,7.021805680757475,False,False,False,1775.808131513142,None,1775.808131513142,None,1775.808131513142,None,1775.808131513142,None,1775.808131513142,None,1775.808131513142,None,1775.808131513142,None,1775.808131513142,None,1776.8061214113056,None,1776.8061214113056,None,1777.7894034976287,None,1777.7894034976287,None,c,,,,,,,,,,,,,,,,,,,,,,,,,,,,,,,,,,,,,,,,,,,,,,,15_16Exp,001,2021_Apr_29_1043,ComputerHuman,2020.1.3,60.01045332388586,
Computer.xlsx,c,Sychronize.jpg,Number10.jpg,10,Computer,,,,,0,9,9,3,0,9,9,9,,,,,,,,,,,,,,,,,,,,,,,,,,,,,1778.8394853805673,None,1778.8394853805673,None,1779.2894290008355,None,1779.2894290008355,None,v,9.171052737103764,1779.2894290008355,None,t,9.33867104231149,1779.2894290008355,None,9.171052737103764,9.33867104231149,9.920946940860226,False,False,False,1788.720719030044,None,1788.720719030044,None,1788.720719030044,None,1788.720719030044,None,1788.720719030044,None,1788.720719030044,None,1788.720719030044,None,1788.720719030044,None,1789.720500889404,None,1789.720500889404,None,1790.686996091112,None,1790.686996091112,None,c,,,,,,,,,,,,,,,,,,,,,,,,,,,,,,,,,,,,,,,,,,,,,,,15_16Exp,001,2021_Apr_29_1043,ComputerHuman,2020.1.3,60.01045332388586,
Computer.xlsx,c,,,,,,,,,0,9,9,3,,,,,,,,,,,,,,,,,,,,,,,,,,,,,,,,,,,,,,,,,,,,,,,,,,,,,,,,,,,,,,,,,,,,,,,,,,,,,,,c,1791.6881050796294,None,1791.6881050796294,None,q,0,1.9723878861373123,1791.6881050796294,None,o,0,2.059379806913512,1791.6881050796294,None,h,h,1793.8194886205972,None,1793.8194886205972,None,None,None,1795.8193073713894,None,1795.8193073713894,None,"['space', 'space']",1796.8024890488584,None,"[315.2829871152662, 316.2630535519229]",,,,,,,,,,,,,,,,,15_16Exp,001,2021_Apr_29_1043,ComputerHuman,2020.1.3,60.01045332388586,
Computer.xlsx,c,Sychronize.jpg,Number10.jpg,10,Computer,,,,,1,0,10,9,0,0,0,9,,,,,,,,,,,,,,,,,,,,,,,,,2113.1120909261517,None,2113.1120909261517,None,2116.1919932761357,None,2116.1919932761357,None,2116.641813069511,None,2116.641813069511,None,v,8.579373519330147,2116.641813069511,None,t,10.222196130891007,2116.641813069511,None,8.579373519330147,10.222196130891007,9.667570667390251,False,False,False,2126.941072834914,None,2126.941072834914,None,2126.941072834914,None,2126.941072834914,None,2126.941072834914,None,2126.941072834914,None,2126.941072834914,None,2126.941072834914,None,2127.9560530017598,None,2127.9560530017598,None,2128.93935080704,None,2128.93935080704,None,c,,,,,,,,,,,,,,,,,,,,,,,,,,,,,,,,,,,,,,,,,,,,,,,15_16Exp,001,2021_Apr_29_1043,ComputerHuman,2020.1.3,60.01045332388586,
Computer.xlsx,c,Sychronize.jpg,Number9.jpg,9,Computer,,,,,1,0,10,9,0,1,1,7,,,,,,,,,,,,,,,,,,,,,,,,,,,,,2129.989628695759,None,2129.989628695759,None,2130.4394728695597,None,2130.4394728695597,None,v,8.361418299112302,2130.4394728695597,None,t,7.968355492252158,2130.4394728695597,None,8.361418299112302,7.968355492252158,9.279640087552895,False,False,False,2138.872143921495,None,2138.872143921495,None,2138.872143921495,None,2138.872143921495,None,2138.872143921495,None,2138.872143921495,None,2138.872143921495,None,2138.872143921495,None,2139.8872209684478,None,2139.8872209684478,None,2140.853746004096,None,2140.853746004096,None,c,,,,,,,,,,,,,,,,,,,,,,,,,,,,,,,,,,,,,,,,,,,,,,,15_16Exp,001,2021_Apr_29_1043,ComputerHuman,2020.1.3,60.01045332388586,
Computer.xlsx,c,Sychronize.jpg,Number6.jpg,6,Computer,,,,,1,0,10,9,0,2,2,0,,,,,,,,,,,,,,,,,,,,,,,,,,,,,2141.9203623059393,None,2141.9203623059393,None,2142.353829892004,None,2142.353829892004,None,v,5.310852978020648,2142.353829892004,None,t,6.234255779524119,2142.353829892004,None,5.310852978020648,6.234255779524119,5.853941693819859,False,False,False,2148.6855358320063,None,2148.6855358320063,None,2148.6855358320063,None,2148.6855358320063,None,2148.6855358320063,None,2148.6855358320063,None,2148.6855358320063,None,2148.6855358320063,None,2149.6852224152335,None,2149.6852224152335,None,2150.6684842914683,None,2150.6684842914683,None,c,,,,,,,,,,,,,,,,,,,,,,,,,,,,,,,,,,,,,,,,,,,,,,,15_16Exp,001,2021_Apr_29_1043,ComputerHuman,2020.1.3,60.01045332388586,
Computer.xlsx,c,Sychronize.jpg,Number8.jpg,8,Computer,,,,,1,0,10,9,0,3,3,5,,,,,,,,,,,,,,,,,,,,,,,,,,,,,2151.718669470415,None,2151.718669470415,None,2152.168444994073,None,2152.168444994073,None,v,8.307961972953763,2152.168444994073,None,t,8.835191859504448,2152.168444994073,None,8.307961972953763,8.835191859504448,7.796059541112454,False,False,False,2161.099833346967,None,2161.099833346967,None,2161.099833346967,None,2161.099833346967,None,2161.099833346967,None,2161.099833346967,None,2161.099833346967,None,2161.099833346967,None,2162.0829280889757,None,2162.0829280889757,None,2163.0660943682824,None,2163.0660943682824,None,c,,,,,,,,,,,,,,,,,,,,,,,,,,,,,,,,,,,,,,,,,,,,,,,15_16Exp,001,2021_Apr_29_1043,ComputerHuman,2020.1.3,60.01045332388586,
Computer.xlsx,c,Sychronize.jpg,Number8.jpg,8,Computer,,,,,1,0,10,9,0,4,4,4,,,,,,,,,,,,,,,,,,,,,,,,,,,,,2164.116418772285,None,2164.116418772285,None,2164.582548748819,None,2164.582548748819,None,v,7.6976079916466915,2164.582548748819,None,t,7.733313444039595,2164.582548748819,None,7.6976079916466915,7.733313444039595,7.823754504711183,False,True,True,2172.3822953207227,None,2172.3822953207227,None,2172.3822953207227,None,2172.3822953207227,None,2172.3822953207227,None,2172.3822953207227,None,2172.3822953207227,None,2172.3822953207227,None,2173.3973723676763,None,2173.3973723676763,None,2174.364050422567,None,2174.364050422567,None,c,,,,,,,,,,,,,,,,,,,,,,,,,,,,,,,,,,,,,,,,,,,,,,,15_16Exp,001,2021_Apr_29_1043,ComputerHuman,2020.1.3,60.01045332388586,
Computer.xlsx,c,Sychronize.jpg,Number7.jpg,7,Computer,,,,,1,0,10,9,0,5,5,2,,,,,,,,,,,,,,,,,,,,,,,,,,,,,2175.4307308834213,None,2175.4307308834213,None,2175.864081700085,None,2175.864081700085,None,v,6.651654420315481,2175.864081700085,None,t,7.263231913975687,2175.864081700085,None,6.651654420315481,7.263231913975687,6.779358045674902,False,True,False,2183.197274204388,None,2183.197274204388,None,2183.197274204388,None,2183.197274204388,None,2183.197274204388,None,2183.197274204388,None,2183.197274204388,None,2183.197274204388,None,2184.2121003896054,None,2184.2121003896054,None,2185.1954501636856,None,2185.1954501636856,None,c,,,,,,,,,,,,,,,,,,,,,,,,,,,,,,,,,,,,,,,,,,,,,,,15_16Exp,001,2021_Apr_29_1043,ComputerHuman,2020.1.3,60.01045332388586,
Computer.xlsx,c,Sychronize.jpg,Number10.jpg,10,Computer,,,,,1,0,10,9,0,6,6,8,,,,,,,,,,,,,,,,,,,,,,,,,,,,,2186.245436128902,None,2186.245436128902,None,2186.6954766292783,None,2186.6954766292783,None,v,9.56425284424904,2186.6954766292783,None,t,10.307259431775947,2186.6954766292783,None,9.56425284424904,10.307259431775947,9.61300915405711,False,True,False,2197.060311395763,None,2197.060311395763,None,2197.060311395763,None,2197.060311395763,None,2197.060311395763,None,2197.060311395763,None,2197.060311395763,None,2197.060311395763,None,2198.092732227553,None,2198.092732227553,None,2199.075972289723,None,2199.075972289723,None,c,,,,,,,,,,,,,,,,,,,,,,,,,,,,,,,,,,,,,,,,,,,,,,,15_16Exp,001,2021_Apr_29_1043,ComputerHuman,2020.1.3,60.01045332388586,
Computer.xlsx,c,Sychronize.jpg,Number6.jpg,6,Computer,,,,,1,0,10,9,0,7,7,1,,,,,,,,,,,,,,,,,,,,,,,,,,,,,2200.126150731974,None,2200.126150731974,None,2200.5761434338865,None,2200.5761434338865,None,v,5.6792880274474555,2200.5761434338865,None,t,5.2103392247345255,2200.5761434338865,None,5.6792880274474555,5.2103392247345255,6.178147479426324,False,False,False,2206.3412633871785,None,2206.3412633871785,None,2206.3412633871785,None,2206.3412633871785,None,2206.3412633871785,None,2206.3412633871785,None,2206.3412633871785,None,2206.3412633871785,None,2207.324224999238,None,2207.324224999238,None,2208.307556808795,None,2208.307556808795,None,c,,,,,,,,,,,,,,,,,,,,,,,,,,,,,,,,,,,,,,,,,,,,,,,15_16Exp,001,2021_Apr_29_1043,ComputerHuman,2020.1.3,60.01045332388586,
Computer.xlsx,c,Sychronize.jpg,Number7.jpg,7,Computer,,,,,1,0,10,9,0,8,8,3,,,,,,,,,,,,,,,,,,,,,,,,,,,,,2209.3746658518476,None,2209.3746658518476,None,2209.8078915584383,None,2209.8078915584383,None,v,6.683290908186791,2209.8078915584383,None,t,7.046306766690577,2209.8078915584383,None,6.683290908186791,7.046306766690577,7.406486046077216,False,False,False,2216.9227198288236,None,2216.9227198288236,None,2216.9227198288236,None,2216.9227198288236,None,2216.9227198288236,None,2216.9227198288236,None,2216.9227198288236,None,2216.9227198288236,None,2217.9390386734485,None,2217.9390386734485,None,2218.9220047766385,None,2218.9220047766385,None,c,,,,,,,,,,,,,,,,,,,,,,,,,,,,,,,,,,,,,,,,,,,,,,,15_16Exp,001,2021_Apr_29_1043,ComputerHuman,2020.1.3,60.01045332388586,
Computer.xlsx,c,Sychronize.jpg,Number9.jpg,9,Computer,,,,,1,0,10,9,0,9,9,6,,,,,,,,,,,,,,,,,,,,,,,,,,,,,2219.9727125307363,None,2219.9727125307363,None,2220.422457258069,None,2220.422457258069,None,v,8.548441497407111,2220.422457258069,None,t,8.668475309206315,2220.422457258069,None,8.548441497407111,8.668475309206315,8.555391767782758,False,True,True,2229.1703858041774,None,2229.1703858041774,None,2229.1703858041774,None,2229.1703858041774,None,2229.1703858041774,None,2229.1703858041774,None,2229.1703858041774,None,2229.1703858041774,None,2230.169991867845,None,2230.169991867845,None,2231.153172582929,None,2231.153172582929,None,c,,,,,,,,,,,,,,,,,,,,,,,,,,,,,,,,,,,,,,,,,,,,,,,15_16Exp,001,2021_Apr_29_1043,ComputerHuman,2020.1.3,60.01045332388586,
Computer.xlsx,c,,,,,,,,,1,0,10,9,,,,,,,,,,,,,,,,,,,,,,,,,,,,,,,,,,,,,,,,,,,,,,,,,,,,,,,,,,,,,,,,,,,,,,,,,,,,,,,c,2232.17015451094,None,2232.17015451094,None,a,1,3.244656596909863,2232.17015451094,None,o,0,2.0724445064647625,2232.17015451094,None,c,h,2235.5028796168426,None,2235.5028796168426,None,2237.502004808718,None,None,None,None,None,None,None,None,,,,,,,,,,,,,,,,,,15_16Exp,001,2021_Apr_29_1043,ComputerHuman,2020.1.3,60.01045332388586,
Human.xlsx,h,Sychronize.jpg,Number10.jpg,10,Human,,,,,1,1,11,4,0,0,0,8,,,,,,,,,,,,,,,,,,,,,,,,,2242.4875809005034,None,2242.4875809005034,None,2245.5842139959677,None,2245.5842139959677,None,2246.0007814567625,None,2246.0007814567625,None,v,9.265552545428818,2246.0007814567625,None,t,9.337205008894216,2246.0007814567625,None,9.265552545428818,9.337205008894216,10.00411827436931,True,False,False,2255.4166547170507,None,2255.4166547170507,None,2255.4166547170507,None,2255.4166547170507,None,2255.4166547170507,None,2255.4166547170507,None,2255.4166547170507,None,2255.4166547170507,None,2256.434596784671,None,2256.434596784671,None,2257.431496300431,None,2257.431496300431,None,h,,,,,,,,,,,,,,,,,,,,,,,,,,,,,,,,,,,,,,,,,,,,,,,15_16Exp,001,2021_Apr_29_1043,ComputerHuman,2020.1.3,60.01045332388586,
Human.xlsx,h,Sychronize.jpg,Number8.jpg,8,Human,,,,,1,1,11,4,0,1,1,5,,,,,,,,,,,,,,,,,,,,,,,,,,,,,2258.466117786322,None,2258.466117786322,None,2258.9150326168374,None,2258.9150326168374,None,v,7.915050260565749,2258.9150326168374,None,t,8.166266795626143,2258.9150326168374,None,7.915050260565749,8.166266795626143,7.748842153600844,True,False,False,2267.164508838706,None,2267.164508838706,None,2267.164508838706,None,2267.164508838706,None,2267.164508838706,None,2267.164508838706,None,2267.164508838706,None,2267.164508838706,None,2268.165094931278,None,2268.165094931278,None,2269.1626315460235,None,2269.1626315460235,None,h,,,,,,,,,,,,,,,,,,,,,,,,,,,,,,,,,,,,,,,,,,,,,,,15_16Exp,001,2021_Apr_29_1043,ComputerHuman,2020.1.3,60.01045332388586,
Human.xlsx,h,Sychronize.jpg,Number10.jpg,10,Human,,,,,1,1,11,4,0,2,2,9,,,,,,,,,,,,,,,,,,,,,,,,,,,,,2270.2125033081993,None,2270.2125033081993,None,2270.662444682902,None,2270.662444682902,None,v,10.007365775337348,2270.662444682902,None,t,7.970513801405559,2270.662444682902,None,10.007365775337348,7.970513801405559,9.335382965122276,False,False,False,2280.728499272597,None,2280.728499272597,None,2280.728499272597,None,2280.728499272597,None,2280.728499272597,None,2280.728499272597,None,2280.728499272597,None,2280.728499272597,None,2281.745973300227,None,2281.745973300227,None,2282.743337968822,None,2282.743337968822,None,h,,,,,,,,,,,,,,,,,,,,,,,,,,,,,,,,,,,,,,,,,,,,,,,15_16Exp,001,2021_Apr_29_1043,ComputerHuman,2020.1.3,60.01045332388586,
Human.xlsx,h,Sychronize.jpg,Number6.jpg,6,Human,,,,,1,1,11,4,0,3,3,1,,,,,,,,,,,,,,,,,,,,,,,,,,,,,2283.7931792554664,None,2283.7931792554664,None,2284.2434035714114,None,2284.2434035714114,None,v,5.590221525027573,2284.2434035714114,None,t,5.761310832768231,2284.2434035714114,None,5.590221525027573,5.761310832768231,6.033106189119599,True,False,False,2290.0920049851547,None,2290.0920049851547,None,2290.0920049851547,None,2290.0920049851547,None,2290.0920049851547,None,2290.0920049851547,None,2290.0920049851547,None,2290.0920049851547,None,2291.0777867065735,None,2291.0777867065735,None,2292.0582830086087,None,2292.0582830086087,None,h,,,,,,,,,,,,,,,,,,,,,,,,,,,,,,,,,,,,,,,,,,,,,,,15_16Exp,001,2021_Apr_29_1043,ComputerHuman,2020.1.3,60.01045332388586,
Human.xlsx,h,Sychronize.jpg,Number7.jpg,7,Human,,,,,1,1,11,4,0,4,4,3,,,,,,,,,,,,,,,,,,,,,,,,,,,,,2293.1250035688454,None,2293.1250035688454,None,2293.5583784451383,None,2293.5583784451383,None,v,6.274977825041333,2293.5583784451383,None,t,7.542335484264186,2293.5583784451383,None,6.274977825041333,7.542335484264186,7.02430230765124,False,False,False,2301.1737201480146,None,2301.1737201480146,None,2301.1737201480146,None,2301.1737201480146,None,2301.1737201480146,None,2301.1737201480146,None,2301.1737201480146,None,2301.1737201480146,None,2302.1756259914573,None,2302.1756259914573,None,2303.1724250983634,None,2303.1724250983634,None,h,,,,,,,,,,,,,,,,,,,,,,,,,,,,,,,,,,,,,,,,,,,,,,,15_16Exp,001,2021_Apr_29_1043,ComputerHuman,2020.1.3,60.01045332388586,
Human.xlsx,h,Sychronize.jpg,Number6.jpg,6,Human,,,,,1,1,11,4,0,5,5,0,,,,,,,,,,,,,,,,,,,,,,,,,,,,,2304.2228752540295,None,2304.2228752540295,None,2304.672937889265,None,2304.672937889265,None,v,5.8762452863174985,2304.672937889265,None,t,5.359306184447632,2304.672937889265,None,5.8762452863174985,5.359306184447632,6.337666628236479,False,False,False,2310.6379930419553,None,2310.6379930419553,None,2310.6379930419553,None,2310.6379930419553,None,2310.6379930419553,None,2310.6379930419553,None,2310.6379930419553,None,2310.6379930419553,None,2311.60570822727,None,2311.60570822727,None,2312.604385910039,None,2312.604385910039,None,h,,,,,,,,,,,,,,,,,,,,,,,,,,,,,,,,,,,,,,,,,,,,,,,15_16Exp,001,2021_Apr_29_1043,ComputerHuman,2020.1.3,60.01045332388586,
Human.xlsx,h,Sychronize.jpg,Number7.jpg,7,Human,,,,,1,1,11,4,0,6,6,2,,,,,,,,,,,,,,,,,,,,,,,,,,,,,2313.6546519293415,None,2313.6546519293415,None,2314.104351103775,None,2314.104351103775,None,v,6.400596037218747,2314.104351103775,None,t,6.960209864127137,2314.104351103775,None,6.400596037218747,6.960209864127137,7.3405428071944,False,False,False,2321.1527366224454,None,2321.1527366224454,None,2321.1527366224454,None,2321.1527366224454,None,2321.1527366224454,None,2321.1527366224454,None,2321.1527366224454,None,2321.1527366224454,None,2322.137826388922,None,2322.137826388922,None,2323.135642416164,None,2323.135642416164,None,h,,,,,,,,,,,,,,,,,,,,,,,,,,,,,,,,,,,,,,,,,,,,,,,15_16Exp,001,2021_Apr_29_1043,ComputerHuman,2020.1.3,60.01045332388586,
Human.xlsx,h,Sychronize.jpg,Number9.jpg,9,Human,,,,,1,1,11,4,0,7,7,7,,,,,,,,,,,,,,,,,,,,,,,,,,,,,2324.1857477171425,None,2324.1857477171425,None,2324.6193368845343,None,2324.6193368845343,None,v,8.741324338240247,2324.6193368845343,None,t,9.032216164542206,2324.6193368845343,None,8.741324338240247,9.032216164542206,8.42977912921228,True,False,False,2333.7352042101147,None,2333.7352042101147,None,2333.7352042101147,None,2333.7352042101147,None,2333.7352042101147,None,2333.7352042101147,None,2333.7352042101147,None,2333.7352042101147,None,2334.7354557134404,None,2334.7354557134404,None,2335.733199561794,None,2335.733199561794,None,h,,,,,,,,,,,,,,,,,,,,,,,,,,,,,,,,,,,,,,,,,,,,,,,15_16Exp,001,2021_Apr_29_1043,ComputerHuman,2020.1.3,60.01045332388586,
Human.xlsx,h,Sychronize.jpg,Number9.jpg,9,Human,,,,,1,1,11,4,0,8,8,6,,,,,,,,,,,,,,,,,,,,,,,,,,,,,2336.7837190091923,None,2336.7837190091923,None,2337.2332523325813,None,2337.2332523325813,None,v,8.539508317413947,2337.2332523325813,None,t,8.942221281223738,2337.2332523325813,None,8.539508317413947,8.942221281223738,9.40834279481083,False,False,False,2346.231722460947,None,2346.231722460947,None,2346.231722460947,None,2346.231722460947,None,2346.231722460947,None,2346.231722460947,None,2346.231722460947,None,2346.231722460947,None,2347.233545860059,None,2347.233545860059,None,2348.2475386197148,None,2348.2475386197148,None,h,,,,,,,,,,,,,,,,,,,,,,,,,,,,,,,,,,,,,,,,,,,,,,,15_16Exp,001,2021_Apr_29_1043,ComputerHuman,2020.1.3,60.01045332388586,
Human.xlsx,h,Sychronize.jpg,Number8.jpg,8,Human,,,,,1,1,11,4,0,9,9,4,,,,,,,,,,,,,,,,,,,,,,,,,,,,,2349.297945468048,None,2349.297945468048,None,2349.747857650401,None,2349.747857650401,None,v,7.620297986529749,2349.747857650401,None,t,7.871623591910065,2349.747857650401,None,7.620297986529749,7.871623591910065,7.810777309800059,True,False,False,2357.697531000832,None,2357.697531000832,None,2357.697531000832,None,2357.697531000832,None,2357.697531000832,None,2357.697531000832,None,2357.697531000832,None,2357.697531000832,None,2358.698356727313,None,2358.698356727313,None,2359.6787285608652,None,2359.6787285608652,None,h,,,,,,,,,,,,,,,,,,,,,,,,,,,,,,,,,,,,,,,,,,,,,,,15_16Exp,001,2021_Apr_29_1043,ComputerHuman,2020.1.3,60.01045332388586,
Human.xlsx,h,,,,,,,,,1,1,11,4,,,,,,,,,,,,,,,,,,,,,,,,,,,,,,,,,,,,,,,,,,,,,,,,,,,,,,,,,,,,,,,,,,,,,,,,,,,,,,,h,2360.679073415553,None,2360.679073415553,None,a,0,2.048991821330219,2360.679073415553,None,o,0,1.4485074207918842,2360.679073415553,None,c,h,2362.8119310098145,None,2362.8119310098145,None,2364.8111283805783,None,None,None,None,None,None,None,None,,,,,,,,,,,,,,,,,,15_16Exp,001,2021_Apr_29_1043,ComputerHuman,2020.1.3,60.01045332388586,
