Condition,CorrectTuringReply,Sychronize,NumberImage,Number,Partner,trials.thisRepN,trials.thisTrialN,trials.thisN,trials.thisIndex,Block.thisRepN,Block.thisTrialN,Block.thisN,Block.thisIndex,trials_loop.thisRepN,trials_loop.thisTrialN,trials_loop.thisN,trials_loop.thisIndex,key_resp_Istr.keys,key_resp_Istr.rt,key_resp_Istr.started,key_resp_Istr.stopped,key_respPrLeft.keys,key_respPrLeft.rt,key_respPrRight.keys,key_respPrRight.rt,RTPrLeft,RTPrRight,CompPr,SychronizedRTsPr,SychronizedRTsLeftCPr,SychronizedRTsRightCPr,CreditLeftPr.started,CreditLeftPr.stopped,CreditRightPr.started,CreditRightPr.stopped,text_StartExp.started,text_StartExp.stopped,key_startExp.keys,key_startExp.rt,key_startExp.started,key_startExp.stopped,SychroLeft.started,SychroLeft.stopped,SychroRight.started,SychroRight.stopped,NumberLeft.started,NumberLeft.stopped,NumberRight.started,NumberRight.stopped,CrossLeft.started,CrossLeft.stopped,CrossRight.started,CrossRight.stopped,key_respLeft.keys,key_respLeft.rt,key_respLeft.started,key_respLeft.stopped,key_respRight.keys,key_respRight.rt,key_respRight.started,key_respRight.stopped,RTLeft,RTRight,Comp,SychronizedRTs,SychronizedRTsLeftC,SychronizedRTsRightC,FeedbackLeftLeft.started,FeedbackLeftLeft.stopped,FeedbackLeftRight.started,FeedbackLeftRight.stopped,FeedbackRightLeft.started,FeedbackRightLeft.stopped,FeedbackRightRight.started,FeedbackRightRight.stopped,textLeftLeft.started,textLeftLeft.stopped,textLeftRight.started,textLeftRight.stopped,textRightLeft.started,textRightLeft.stopped,textRightRight.started,textRightRight.stopped,CreditLeft.started,CreditLeft.stopped,CreditRight.started,CreditRight.stopped,BlankLeft.started,BlankLeft.stopped,BlankRight.started,BlankRight.stopped,CorrectTuringReply,TuringtextLeft.started,TuringtextLeft.stopped,TuringtextRight.started,TuringtextRight.stopped,keyTuringLeft.keys,keyTuringLeft.corr,keyTuringLeft.rt,keyTuringLeft.started,keyTuringLeft.stopped,keyTuringRight.keys,keyTuringRight.corr,keyTuringRight.rt,keyTuringRight.started,keyTuringRight.stopped,RespTuringLeft,RespTuringRight,ScoreLeft.started,ScoreLeft.stopped,ScoreRight.started,ScoreRight.stopped,BlockText.started,BlockText.stopped,text_Pause.started,text_Pause.stopped,text_LongPause.started,text_LongPause.stopped,key_respPause.keys,key_respPause.started,key_respPause.stopped,key_respPause.rt,QuestImageLeft.started,QuestImageLeft.stopped,QuestImageRight.started,QuestImageRight.stopped,respQuestLeft.keys,respQuestLeft.rt,respQuestLeft.started,respQuestLeft.stopped,respQuestRight.keys,respQuestRight.rt,respQuestRight.started,respQuestRight.stopped,RespInclusionLeft,RespInclusionRight,EndText.started,EndText.stopped,participant,session,date,expName,psychopyVersion,frameRate,
,,,,,,,,,,,,,,,,,,"['v', 't']","[44.175231413533766, 55.158995334033534]",27.33639275580572,None,,,,,,,,,,,,,,,,,,,,,,,,,,,,,,,,,,,,,,,,,,,,,,,,,,,,,,,,,,,,,,,,,,,,,,,,,,,,,,,,,,,,,,,,,,,,,,,,,,,,,,,,,,,,,,,,,,,,,,17_18Exp,001,2021_Apr_29_1521,ComputerHuman,2020.1.3,59.99693977088485,
,,,,,,,,,,,,,,,,,,,,,,v,5.167947761732648,t,7.487231233892089,5.167947761732648,7.487231233892089,6,False,False,False,153.46239752602924,None,153.46239752602924,None,154.47880779724437,None,"['space', 'space']","[1.4196910422797373, 1.9157232885991107]",155.46204785941518,None,,,,,,,,,,,,,,,,,,,,,,,,,,,,,,,,,,,,,,,,,,,,,,,,,,,,,,,,,,,,,,,,,,,,,,,,,,,,,,,,,,,,,,,,,,,,,,,,,,17_18Exp,001,2021_Apr_29_1521,ComputerHuman,2020.1.3,59.99693977088485,
Human.xlsx,h,Sychronize.jpg,Number6.jpg,6,Human,,,,,0,0,0,8,0,0,0,1,,,,,,,,,,,,,,,,,,,,,,,,,157.46454556973913,None,157.46454556973913,None,160.51125878376843,None,160.51125878376843,None,160.94456885946056,None,160.94456885946056,None,v,4.429002118853532,160.94456885946056,None,t,6.428255307957443,160.94456885946056,None,4.429002118853532,6.428255307957443,5.635090348478031,False,False,False,167.45970701787155,None,167.45970701787155,None,167.45970701787155,None,167.45970701787155,None,167.45970701787155,None,167.45970701787155,None,167.45970701787155,None,167.45970701787155,None,168.44588780834238,None,168.44588780834238,None,169.45934259468413,None,169.45934259468413,None,h,,,,,,,,,,,,,,,,,,,,,,,,,,,,,,,,,,,,,,,,,,,,,,,17_18Exp,001,2021_Apr_29_1521,ComputerHuman,2020.1.3,59.99693977088485,
Human.xlsx,h,Sychronize.jpg,Number7.jpg,7,Human,,,,,0,0,0,8,0,1,1,3,,,,,,,,,,,,,,,,,,,,,,,,,,,,,170.5096602619924,None,170.5096602619924,None,170.94292670955474,None,170.94292670955474,None,v,5.358175061071961,170.94292670955474,None,t,7.041232109659177,170.94292670955474,None,5.358175061071961,7.041232109659177,7.173918196622838,False,False,False,178.0743400844658,None,178.0743400844658,None,178.0743400844658,None,178.0743400844658,None,178.0743400844658,None,178.0743400844658,None,178.0743400844658,None,178.0743400844658,None,179.05953025979397,None,179.05953025979397,None,180.05732960569367,None,180.05732960569367,None,h,,,,,,,,,,,,,,,,,,,,,,,,,,,,,,,,,,,,,,,,,,,,,,,17_18Exp,001,2021_Apr_29_1521,ComputerHuman,2020.1.3,59.99693977088485,
Human.xlsx,h,Sychronize.jpg,Number7.jpg,7,Human,,,,,0,0,0,8,0,2,2,2,,,,,,,,,,,,,,,,,,,,,,,,,,,,,181.09065957068015,None,181.09065957068015,None,181.54056405395022,None,181.54056405395022,None,v,3.6568901164646377,181.54056405395022,None,t,8.020217146175128,181.54056405395022,None,3.6568901164646377,8.020217146175128,7.430143899199997,False,False,False,189.64048209081375,None,189.64048209081375,None,189.64048209081375,None,189.64048209081375,None,189.64048209081375,None,189.64048209081375,None,189.64048209081375,None,189.64048209081375,None,190.64122408978437,None,190.64122408978437,None,191.63842226574343,None,191.63842226574343,None,h,,,,,,,,,,,,,,,,,,,,,,,,,,,,,,,,,,,,,,,,,,,,,,,17_18Exp,001,2021_Apr_29_1521,ComputerHuman,2020.1.3,59.99693977088485,
Human.xlsx,h,Sychronize.jpg,Number10.jpg,10,Human,,,,,0,0,0,8,0,3,3,8,,,,,,,,,,,,,,,,,,,,,,,,,,,,,192.68854521044705,None,192.68854521044705,None,193.1385626135816,None,193.1385626135816,None,v,8.034215359344671,193.1385626135816,None,t,11.217172159482288,193.1385626135816,None,8.034215359344671,11.217172159482288,10.063044982495317,False,False,False,204.43596369241277,None,204.43596369241277,None,204.43596369241277,None,204.43596369241277,None,204.43596369241277,None,204.43596369241277,None,204.43596369241277,None,204.43596369241277,None,205.43799079638848,None,205.43799079638848,None,206.43561915852115,None,206.43561915852115,None,h,,,,,,,,,,,,,,,,,,,,,,,,,,,,,,,,,,,,,,,,,,,,,,,17_18Exp,001,2021_Apr_29_1521,ComputerHuman,2020.1.3,59.99693977088485,
Human.xlsx,h,Sychronize.jpg,Number6.jpg,6,Human,,,,,0,0,0,8,0,4,4,0,,,,,,,,,,,,,,,,,,,,,,,,,,,,,207.48542868645382,None,207.48542868645382,None,207.93581051277215,None,207.93581051277215,None,v,4.320736994566687,207.93581051277215,None,t,6.76827080235671,207.93581051277215,None,4.320736994566687,6.76827080235671,6.1369337799116295,False,False,False,214.80072852557714,None,214.80072852557714,None,214.80072852557714,None,214.80072852557714,None,214.80072852557714,None,214.80072852557714,None,214.80072852557714,None,214.80072852557714,None,215.76944812021975,None,215.76944812021975,None,216.76699532120256,None,216.76699532120256,None,h,,,,,,,,,,,,,,,,,,,,,,,,,,,,,,,,,,,,,,,,,,,,,,,17_18Exp,001,2021_Apr_29_1521,ComputerHuman,2020.1.3,59.99693977088485,
Human.xlsx,h,Sychronize.jpg,Number8.jpg,8,Human,,,,,0,0,0,8,0,5,5,5,,,,,,,,,,,,,,,,,,,,,,,,,,,,,217.81698834391136,None,217.81698834391136,None,218.26726655342645,None,218.26726655342645,None,v,6.837002747608494,218.26726655342645,None,t,8.180337508481898,218.26726655342645,None,6.837002747608494,8.180337508481898,8.530100119620963,False,False,False,226.5318249549673,None,226.5318249549673,None,226.5318249549673,None,226.5318249549673,None,226.5318249549673,None,226.5318249549673,None,226.5318249549673,None,226.5318249549673,None,227.51747194246127,None,227.51747194246127,None,228.51475673308596,None,228.51475673308596,None,h,,,,,,,,,,,,,,,,,,,,,,,,,,,,,,,,,,,,,,,,,,,,,,,17_18Exp,001,2021_Apr_29_1521,ComputerHuman,2020.1.3,59.99693977088485,
Human.xlsx,h,Sychronize.jpg,Number9.jpg,9,Human,,,,,0,0,0,8,0,6,6,7,,,,,,,,,,,,,,,,,,,,,,,,,,,,,229.56468110565038,None,229.56468110565038,None,230.0148617934683,None,230.0148617934683,None,v,6.76516711016302,230.0148617934683,None,t,9.076232775310928,230.0148617934683,None,6.76516711016302,9.076232775310928,9.14446399768942,False,False,False,239.16423359654436,None,239.16423359654436,None,239.16423359654436,None,239.16423359654436,None,239.16423359654436,None,239.16423359654436,None,239.16423359654436,None,239.16423359654436,None,240.16521330465184,None,240.16521330465184,None,241.16236656930414,None,241.16236656930414,None,h,,,,,,,,,,,,,,,,,,,,,,,,,,,,,,,,,,,,,,,,,,,,,,,17_18Exp,001,2021_Apr_29_1521,ComputerHuman,2020.1.3,59.99693977088485,
Human.xlsx,h,Sychronize.jpg,Number8.jpg,8,Human,,,,,0,0,0,8,0,7,7,4,,,,,,,,,,,,,,,,,,,,,,,,,,,,,242.2126171904456,None,242.2126171904456,None,242.6625043507811,None,242.6625043507811,None,v,6.785242785721493,242.6625043507811,None,t,9.040277102772961,242.6625043507811,None,6.785242785721493,9.040277102772961,7.455583878280194,False,False,False,251.79355041535018,None,251.79355041535018,None,251.79355041535018,None,251.79355041535018,None,251.79355041535018,None,251.79355041535018,None,251.79355041535018,None,251.79355041535018,None,252.7627210478422,None,252.7627210478422,None,253.7599737589626,None,253.7599737589626,None,h,,,,,,,,,,,,,,,,,,,,,,,,,,,,,,,,,,,,,,,,,,,,,,,17_18Exp,001,2021_Apr_29_1521,ComputerHuman,2020.1.3,59.99693977088485,
Human.xlsx,h,Sychronize.jpg,Number9.jpg,9,Human,,,,,0,0,0,8,0,8,8,6,,,,,,,,,,,,,,,,,,,,,,,,,,,,,254.8267350601709,None,254.8267350601709,None,255.27649454407583,None,255.27649454407583,None,v,7.126971004938241,255.27649454407583,None,t,8.998183337585942,255.27649454407583,None,7.126971004938241,8.998183337585942,9.593807058181834,False,False,False,264.3427762566753,None,264.3427762566753,None,264.3427762566753,None,264.3427762566753,None,264.3427762566753,None,264.3427762566753,None,264.3427762566753,None,264.3427762566753,None,265.32638812031655,None,265.32638812031655,None,266.3242391142194,None,266.3242391142194,None,h,,,,,,,,,,,,,,,,,,,,,,,,,,,,,,,,,,,,,,,,,,,,,,,17_18Exp,001,2021_Apr_29_1521,ComputerHuman,2020.1.3,59.99693977088485,
Human.xlsx,h,Sychronize.jpg,Number10.jpg,10,Human,,,,,0,0,0,8,0,9,9,9,,,,,,,,,,,,,,,,,,,,,,,,,,,,,267.3738539195547,None,267.3738539195547,None,267.82437176297753,None,267.82437176297753,None,v,7.842785399330751,267.82437176297753,None,t,9.342171237192815,267.82437176297753,None,7.842785399330751,9.342171237192815,10.411458345362634,False,False,False,277.2405841036416,None,277.2405841036416,None,277.2405841036416,None,277.2405841036416,None,277.2405841036416,None,277.2405841036416,None,277.2405841036416,None,277.2405841036416,None,278.24140148944934,None,278.24140148944934,None,279.23847968805785,None,279.23847968805785,None,h,,,,,,,,,,,,,,,,,,,,,,,,,,,,,,,,,,,,,,,,,,,,,,,17_18Exp,001,2021_Apr_29_1521,ComputerHuman,2020.1.3,59.99693977088485,
Human.xlsx,h,,,,,,,,,0,0,0,8,,,,,,,,,,,,,,,,,,,,,,,,,,,,,,,,,,,,,,,,,,,,,,,,,,,,,,,,,,,,,,,,,,,,,,,,,,,,,,,h,280.23936315764877,None,280.23936315764877,None,q,1,9.4075473453413,280.23936315764877,None,o,0,5.455400023416587,280.23936315764877,None,h,h,289.7533300933028,None,289.7533300933028,None,291.73614991394425,None,None,None,None,None,None,None,None,,,,,,,,,,,,,,,,,,17_18Exp,001,2021_Apr_29_1521,ComputerHuman,2020.1.3,59.99693977088485,
Human.xlsx,h,Sychronize.jpg,Number9.jpg,9,Human,,,,,0,1,1,6,0,0,0,6,,,,,,,,,,,,,,,,,,,,,,,,,296.73862965974695,None,296.73862965974695,None,299.801325525179,None,299.801325525179,None,300.23471515804704,None,300.23471515804704,None,v,6.079781089450989,300.23471515804704,None,t,8.139159933980409,300.23471515804704,None,6.079781089450989,8.139159933980409,9.65844126553526,False,False,False,308.46619285236375,None,308.46619285236375,None,308.46619285236375,None,308.46619285236375,None,308.46619285236375,None,308.46619285236375,None,308.46619285236375,None,308.46619285236375,None,309.46859624894205,None,309.46859624894205,None,310.4659233845159,None,310.4659233845159,None,h,,,,,,,,,,,,,,,,,,,,,,,,,,,,,,,,,,,,,,,,,,,,,,,17_18Exp,001,2021_Apr_29_1521,ComputerHuman,2020.1.3,59.99693977088485,
Human.xlsx,h,Sychronize.jpg,Number8.jpg,8,Human,,,,,0,1,1,6,0,1,1,5,,,,,,,,,,,,,,,,,,,,,,,,,,,,,311.51601072097037,None,311.51601072097037,None,311.966043201468,None,311.966043201468,None,v,5.880225711403909,311.966043201468,None,t,7.939290818365407,311.966043201468,None,5.880225711403909,7.939290818365407,8.026161126346793,False,False,False,319.9973438169145,None,319.9973438169145,None,319.9973438169145,None,319.9973438169145,None,319.9973438169145,None,319.9973438169145,None,319.9973438169145,None,319.9973438169145,None,320.96613751521727,None,320.96613751521727,None,321.98033494211995,None,321.98033494211995,None,h,,,,,,,,,,,,,,,,,,,,,,,,,,,,,,,,,,,,,,,,,,,,,,,17_18Exp,001,2021_Apr_29_1521,ComputerHuman,2020.1.3,59.99693977088485,
Human.xlsx,h,Sychronize.jpg,Number10.jpg,10,Human,,,,,0,1,1,6,0,2,2,8,,,,,,,,,,,,,,,,,,,,,,,,,,,,,323.0300373245045,None,323.0300373245045,None,323.4805497144116,None,323.4805497144116,None,v,7.337384012538678,323.4805497144116,None,t,9.268041915081994,323.4805497144116,None,7.337384012538678,9.268041915081994,10.383802624999687,False,False,False,332.8449100250036,None,332.8449100250036,None,332.8449100250036,None,332.8449100250036,None,332.8449100250036,None,332.8449100250036,None,332.8449100250036,None,332.8449100250036,None,333.8141444957182,None,333.8141444957182,None,334.81117970778723,None,334.81117970778723,None,h,,,,,,,,,,,,,,,,,,,,,,,,,,,,,,,,,,,,,,,,,,,,,,,17_18Exp,001,2021_Apr_29_1521,ComputerHuman,2020.1.3,59.99693977088485,
Human.xlsx,h,Sychronize.jpg,Number7.jpg,7,Human,,,,,0,1,1,6,0,3,3,2,,,,,,,,,,,,,,,,,,,,,,,,,,,,,335.87795865272346,None,335.87795865272346,None,336.3115218357161,None,336.3115218357161,None,v,6.0422326694497315,336.3115218357161,None,t,6.581236376234301,336.3115218357161,None,6.0422326694497315,6.581236376234301,7.325777975604579,False,False,False,342.97632596627227,None,342.97632596627227,None,342.97632596627227,None,342.97632596627227,None,342.97632596627227,None,342.97632596627227,None,342.97632596627227,None,342.97632596627227,None,343.96189211341334,None,343.96189211341334,None,344.95925646121395,None,344.95925646121395,None,h,,,,,,,,,,,,,,,,,,,,,,,,,,,,,,,,,,,,,,,,,,,,,,,17_18Exp,001,2021_Apr_29_1521,ComputerHuman,2020.1.3,59.99693977088485,
Human.xlsx,h,Sychronize.jpg,Number7.jpg,7,Human,,,,,0,1,1,6,0,4,4,3,,,,,,,,,,,,,,,,,,,,,,,,,,,,,345.9930528622135,None,345.9930528622135,None,346.4593948842812,None,346.4593948842812,None,v,5.8901411658662255,346.4593948842812,None,t,7.405243716024415,346.4593948842812,None,5.8901411658662255,7.405243716024415,7.3333188655882555,False,False,False,353.9421449319998,None,353.9421449319998,None,353.9421449319998,None,353.9421449319998,None,353.9421449319998,None,353.9421449319998,None,353.9421449319998,None,353.9421449319998,None,354.9436648589872,None,354.9436648589872,None,355.9405255585443,None,355.9405255585443,None,h,,,,,,,,,,,,,,,,,,,,,,,,,,,,,,,,,,,,,,,,,,,,,,,17_18Exp,001,2021_Apr_29_1521,ComputerHuman,2020.1.3,59.99693977088485,
Human.xlsx,h,Sychronize.jpg,Number6.jpg,6,Human,,,,,0,1,1,6,0,5,5,1,,,,,,,,,,,,,,,,,,,,,,,,,,,,,356.9902244121804,None,356.9902244121804,None,357.4406039929345,None,357.4406039929345,None,v,4.632720454374066,357.4406039929345,None,t,5.204279406079877,357.4406039929345,None,4.632720454374066,5.204279406079877,5.62615725963779,False,False,False,362.73922569696515,None,362.73922569696515,None,362.73922569696515,None,362.73922569696515,None,362.73922569696515,None,362.73922569696515,None,362.73922569696515,None,362.73922569696515,None,363.72452237625475,None,363.72452237625475,None,364.7055678794313,None,364.7055678794313,None,h,,,,,,,,,,,,,,,,,,,,,,,,,,,,,,,,,,,,,,,,,,,,,,,17_18Exp,001,2021_Apr_29_1521,ComputerHuman,2020.1.3,59.99693977088485,
Human.xlsx,h,Sychronize.jpg,Number9.jpg,9,Human,,,,,0,1,1,6,0,6,6,7,,,,,,,,,,,,,,,,,,,,,,,,,,,,,365.7725797215826,None,365.7725797215826,None,366.20581184407274,None,366.20581184407274,None,v,8.363247472538205,366.20581184407274,None,t,7.686243505904713,366.20581184407274,None,8.363247472538205,7.686243505904713,8.869315285939402,False,False,False,374.6376802667728,None,374.6376802667728,None,374.6376802667728,None,374.6376802667728,None,374.6376802667728,None,374.6376802667728,None,374.6376802667728,None,374.6376802667728,None,375.6388970424305,None,375.6388970424305,None,376.63656422076383,None,376.63656422076383,None,h,,,,,,,,,,,,,,,,,,,,,,,,,,,,,,,,,,,,,,,,,,,,,,,17_18Exp,001,2021_Apr_29_1521,ComputerHuman,2020.1.3,59.99693977088485,
Human.xlsx,h,Sychronize.jpg,Number10.jpg,10,Human,,,,,0,1,1,6,0,7,7,9,,,,,,,,,,,,,,,,,,,,,,,,,,,,,377.67065447003915,None,377.67065447003915,None,378.1366914160062,None,378.1366914160062,None,v,7.516105676306324,378.1366914160062,None,t,7.91126263330807,378.1366914160062,None,7.516105676306324,7.91126263330807,9.63505148210672,False,False,False,386.1030557333288,None,386.1030557333288,None,386.1030557333288,None,386.1030557333288,None,386.1030557333288,None,386.1030557333288,None,386.1030557333288,None,386.1030557333288,None,387.10377271028483,None,387.10377271028483,None,388.11770548126515,None,388.11770548126515,None,h,,,,,,,,,,,,,,,,,,,,,,,,,,,,,,,,,,,,,,,,,,,,,,,17_18Exp,001,2021_Apr_29_1521,ComputerHuman,2020.1.3,59.99693977088485,
Human.xlsx,h,Sychronize.jpg,Number8.jpg,8,Human,,,,,0,1,1,6,0,8,8,4,,,,,,,,,,,,,,,,,,,,,,,,,,,,,389.1682791430285,None,389.1682791430285,None,389.61793950125866,None,389.61793950125866,None,v,5.842680820143869,389.61793950125866,None,t,6.282256023328955,389.61793950125866,None,5.842680820143869,6.282256023328955,7.419165914685893,False,False,False,395.9679467993483,None,395.9679467993483,None,395.9679467993483,None,395.9679467993483,None,395.9679467993483,None,395.9679467993483,None,395.9679467993483,None,395.9679467993483,None,396.96851460660037,None,396.96851460660037,None,397.9491244700839,None,397.9491244700839,None,h,,,,,,,,,,,,,,,,,,,,,,,,,,,,,,,,,,,,,,,,,,,,,,,17_18Exp,001,2021_Apr_29_1521,ComputerHuman,2020.1.3,59.99693977088485,
Human.xlsx,h,Sychronize.jpg,Number6.jpg,6,Human,,,,,0,1,1,6,0,9,9,0,,,,,,,,,,,,,,,,,,,,,,,,,,,,,399.0004359604827,None,399.0004359604827,None,399.4493905695854,None,399.4493905695854,None,v,4.247018290130654,399.4493905695854,None,t,4.514433050873777,399.4493905695854,None,4.247018290130654,4.514433050873777,6.375791287657017,True,False,False,404.0480172459429,None,404.0480172459429,None,404.0480172459429,None,404.0480172459429,None,404.0480172459429,None,404.0480172459429,None,404.0480172459429,None,404.0480172459429,None,405.03356157901726,None,405.03356157901726,None,406.03095640234824,None,406.03095640234824,None,h,,,,,,,,,,,,,,,,,,,,,,,,,,,,,,,,,,,,,,,,,,,,,,,17_18Exp,001,2021_Apr_29_1521,ComputerHuman,2020.1.3,59.99693977088485,
Human.xlsx,h,,,,,,,,,0,1,1,6,,,,,,,,,,,,,,,,,,,,,,,,,,,,,,,,,,,,,,,,,,,,,,,,,,,,,,,,,,,,,,,,,,,,,,,,,,,,,,,h,407.0320419728232,None,407.0320419728232,None,q,1,4.520285315124056,407.0320419728232,None,o,0,2.5753545988372935,407.0320419728232,None,h,h,411.6468825938209,None,411.6468825938209,None,413.64617684468976,None,None,None,None,None,None,None,None,,,,,,,,,,,,,,,,,,17_18Exp,001,2021_Apr_29_1521,ComputerHuman,2020.1.3,59.99693977088485,
Human.xlsx,h,Sychronize.jpg,Number9.jpg,9,Human,,,,,0,2,2,0,0,0,0,6,,,,,,,,,,,,,,,,,,,,,,,,,418.63207308994606,None,418.63207308994606,None,421.7276783580419,None,421.7276783580419,None,422.161730753498,None,422.161730753498,None,v,6.954131118563964,422.161730753498,None,t,6.54529417708909,422.161730753498,None,6.954131118563964,6.54529417708909,9.394995886378084,False,False,False,429.2098253110489,None,429.2098253110489,None,429.2098253110489,None,429.2098253110489,None,429.2098253110489,None,429.2098253110489,None,429.2098253110489,None,429.2098253110489,None,430.2120846706457,None,430.2120846706457,None,431.19288027446964,None,431.19288027446964,None,h,,,,,,,,,,,,,,,,,,,,,,,,,,,,,,,,,,,,,,,,,,,,,,,17_18Exp,001,2021_Apr_29_1521,ComputerHuman,2020.1.3,59.99693977088485,
Human.xlsx,h,Sychronize.jpg,Number7.jpg,7,Human,,,,,0,2,2,0,0,1,1,2,,,,,,,,,,,,,,,,,,,,,,,,,,,,,432.259336178784,None,432.259336178784,None,432.6931832654045,None,432.6931832654045,None,v,4.946485289143311,432.6931832654045,None,t,5.193312064620841,432.6931832654045,None,4.946485289143311,5.193312064620841,7.2467465193098075,True,False,False,437.99148192880966,None,437.99148192880966,None,437.99148192880966,None,437.99148192880966,None,437.99148192880966,None,437.99148192880966,None,437.99148192880966,None,437.99148192880966,None,438.9607135123697,None,438.9607135123697,None,439.95786292748016,None,439.95786292748016,None,h,,,,,,,,,,,,,,,,,,,,,,,,,,,,,,,,,,,,,,,,,,,,,,,17_18Exp,001,2021_Apr_29_1521,ComputerHuman,2020.1.3,59.99693977088485,
Human.xlsx,h,Sychronize.jpg,Number9.jpg,9,Human,,,,,0,2,2,0,0,2,2,7,,,,,,,,,,,,,,,,,,,,,,,,,,,,,441.00816102628596,None,441.00816102628596,None,441.4579224349618,None,441.4579224349618,None,v,6.849526586691354,441.4579224349618,None,t,6.621245294336404,441.4579224349618,None,6.849526586691354,6.621245294336404,9.431415021547329,True,False,False,448.40630683084964,None,448.40630683084964,None,448.40630683084964,None,448.40630683084964,None,448.40630683084964,None,448.40630683084964,None,448.40630683084964,None,448.40630683084964,None,449.3746668142303,None,449.3746668142303,None,450.37255983228897,None,450.37255983228897,None,h,,,,,,,,,,,,,,,,,,,,,,,,,,,,,,,,,,,,,,,,,,,,,,,17_18Exp,001,2021_Apr_29_1521,ComputerHuman,2020.1.3,59.99693977088485,
Human.xlsx,h,Sychronize.jpg,Number8.jpg,8,Human,,,,,0,2,2,0,0,3,3,5,,,,,,,,,,,,,,,,,,,,,,,,,,,,,451.4221473700418,None,451.4221473700418,None,451.87283170609953,None,451.87283170609953,None,v,5.9543816595032695,451.87283170609953,None,t,6.3933136685955105,451.87283170609953,None,5.9543816595032695,6.3933136685955105,8.093625716803222,False,False,False,458.33901493461235,None,458.33901493461235,None,458.33901493461235,None,458.33901493461235,None,458.33901493461235,None,458.33901493461235,None,458.33901493461235,None,458.33901493461235,None,459.3390466933233,None,459.3390466933233,None,460.3373278733998,None,460.3373278733998,None,h,,,,,,,,,,,,,,,,,,,,,,,,,,,,,,,,,,,,,,,,,,,,,,,17_18Exp,001,2021_Apr_29_1521,ComputerHuman,2020.1.3,59.99693977088485,
Human.xlsx,h,Sychronize.jpg,Number10.jpg,10,Human,,,,,0,2,2,0,0,4,4,8,,,,,,,,,,,,,,,,,,,,,,,,,,,,,461.38704533315104,None,461.38704533315104,None,461.8375753667897,None,461.8375753667897,None,v,8.129382100600196,461.8375753667897,None,t,7.112352053325594,461.8375753667897,None,8.129382100600196,7.112352053325594,9.374542701367318,False,False,False,470.0203239709299,None,470.0203239709299,None,470.0203239709299,None,470.0203239709299,None,470.0203239709299,None,470.0203239709299,None,470.0203239709299,None,470.0203239709299,None,471.0212093652917,None,471.0212093652917,None,472.03509914973256,None,472.03509914973256,None,h,,,,,,,,,,,,,,,,,,,,,,,,,,,,,,,,,,,,,,,,,,,,,,,17_18Exp,001,2021_Apr_29_1521,ComputerHuman,2020.1.3,59.99693977088485,
Human.xlsx,h,Sychronize.jpg,Number6.jpg,6,Human,,,,,0,2,2,0,0,5,5,0,,,,,,,,,,,,,,,,,,,,,,,,,,,,,473.08536260267283,None,473.08536260267283,None,473.5354210675723,None,473.5354210675723,None,v,4.863363760745415,473.5354210675723,None,t,4.358360480615374,473.5354210675723,None,4.863363760745415,4.358360480615374,5.7567813688189755,False,False,False,478.48366944635563,None,478.48366944635563,None,478.48366944635563,None,478.48366944635563,None,478.48366944635563,None,478.48366944635563,None,478.48366944635563,None,478.48366944635563,None,479.4690524195139,None,479.4690524195139,None,480.45021533368345,None,480.45021533368345,None,h,,,,,,,,,,,,,,,,,,,,,,,,,,,,,,,,,,,,,,,,,,,,,,,17_18Exp,001,2021_Apr_29_1521,ComputerHuman,2020.1.3,59.99693977088485,
Human.xlsx,h,Sychronize.jpg,Number10.jpg,10,Human,,,,,0,2,2,0,0,6,6,9,,,,,,,,,,,,,,,,,,,,,,,,,,,,,481.5166106077304,None,481.5166106077304,None,481.95034734084766,None,481.95034734084766,None,v,9.324166614536807,481.95034734084766,None,t,1.1556555366842076,481.95034734084766,None,9.324166614536807,1.1556555366842076,10.380952555012822,False,False,False,491.36469169188786,None,491.36469169188786,None,491.36469169188786,None,491.36469169188786,None,491.36469169188786,None,491.36469169188786,None,491.36469169188786,None,491.36469169188786,None,492.3494314709569,None,492.3494314709569,None,493.34775082564374,None,493.34775082564374,None,h,,,,,,,,,,,,,,,,,,,,,,,,,,,,,,,,,,,,,,,,,,,,,,,17_18Exp,001,2021_Apr_29_1521,ComputerHuman,2020.1.3,59.99693977088485,
Human.xlsx,h,Sychronize.jpg,Number8.jpg,8,Human,,,,,0,2,2,0,0,7,7,4,,,,,,,,,,,,,,,,,,,,,,,,,,,,,494.381320424538,None,494.381320424538,None,494.84803168171857,None,494.84803168171857,None,v,6.054271145607345,494.84803168171857,None,t,5.533310877679469,494.84803168171857,None,6.054271145607345,5.533310877679469,7.549868281612398,False,False,False,500.9962062776358,None,500.9962062776358,None,500.9962062776358,None,500.9962062776358,None,500.9962062776358,None,500.9962062776358,None,500.9962062776358,None,500.9962062776358,None,501.9649650092797,None,501.9649650092797,None,502.9625442897668,None,502.9625442897668,None,h,,,,,,,,,,,,,,,,,,,,,,,,,,,,,,,,,,,,,,,,,,,,,,,17_18Exp,001,2021_Apr_29_1521,ComputerHuman,2020.1.3,59.99693977088485,
Human.xlsx,h,Sychronize.jpg,Number6.jpg,6,Human,,,,,0,2,2,0,0,8,8,1,,,,,,,,,,,,,,,,,,,,,,,,,,,,,504.0296661646207,None,504.0296661646207,None,504.478948305481,None,504.478948305481,None,v,4.919142322331027,504.478948305481,None,t,5.1142614255186345,504.478948305481,None,4.919142322331027,5.1142614255186345,6.09441500600539,True,False,False,509.66257845444125,None,509.66257845444125,None,509.66257845444125,None,509.66257845444125,None,509.66257845444125,None,509.66257845444125,None,509.66257845444125,None,509.66257845444125,None,510.6630609302083,None,510.6630609302083,None,511.66088690209654,None,511.66088690209654,None,h,,,,,,,,,,,,,,,,,,,,,,,,,,,,,,,,,,,,,,,,,,,,,,,17_18Exp,001,2021_Apr_29_1521,ComputerHuman,2020.1.3,59.99693977088485,
Human.xlsx,h,Sychronize.jpg,Number7.jpg,7,Human,,,,,0,2,2,0,0,9,9,3,,,,,,,,,,,,,,,,,,,,,,,,,,,,,512.6945886685535,None,512.6945886685535,None,513.16078729523,None,513.16078729523,None,v,5.225189790377044,513.16078729523,None,t,5.424260447089182,513.16078729523,None,5.225189790377044,5.424260447089182,7.010202063668973,True,False,False,518.6762395120058,None,518.6762395120058,None,518.6762395120058,None,518.6762395120058,None,518.6762395120058,None,518.6762395120058,None,518.6762395120058,None,518.6762395120058,None,519.6448654344931,None,519.6448654344931,None,520.642856936629,None,520.642856936629,None,h,,,,,,,,,,,,,,,,,,,,,,,,,,,,,,,,,,,,,,,,,,,,,,,17_18Exp,001,2021_Apr_29_1521,ComputerHuman,2020.1.3,59.99693977088485,
Human.xlsx,h,,,,,,,,,0,2,2,0,,,,,,,,,,,,,,,,,,,,,,,,,,,,,,,,,,,,,,,,,,,,,,,,,,,,,,,,,,,,,,,,,,,,,,,,,,,,,,,h,521.6596274606964,None,521.6596274606964,None,a,0,2.758172173915227,521.6596274606964,None,o,0,2.6973818311307696,521.6596274606964,None,c,h,524.5256063427587,None,524.5256063427587,None,526.5080463420527,None,None,None,None,None,None,None,None,,,,,,,,,,,,,,,,,,17_18Exp,001,2021_Apr_29_1521,ComputerHuman,2020.1.3,59.99693977088485,
Computer.xlsx,c,Sychronize.jpg,Number9.jpg,9,Computer,,,,,0,3,3,7,0,0,0,6,,,,,,,,,,,,,,,,,,,,,,,,,531.5105937756125,None,531.5105937756125,None,534.590439665666,None,534.590439665666,None,535.0069153790755,None,535.0069153790755,None,v,7.070497601256648,535.0069153790755,None,t,6.434220812861895,535.0069153790755,None,7.070497601256648,6.434220812861895,8.466178960420903,False,False,False,542.1564180665337,None,542.1564180665337,None,542.1564180665337,None,542.1564180665337,None,542.1564180665337,None,542.1564180665337,None,542.1564180665337,None,542.1564180665337,None,543.1882040449054,None,543.1882040449054,None,544.171278576825,None,544.171278576825,None,c,,,,,,,,,,,,,,,,,,,,,,,,,,,,,,,,,,,,,,,,,,,,,,,17_18Exp,001,2021_Apr_29_1521,ComputerHuman,2020.1.3,59.99693977088485,
Computer.xlsx,c,Sychronize.jpg,Number7.jpg,7,Computer,,,,,0,3,3,7,0,1,1,2,,,,,,,,,,,,,,,,,,,,,,,,,,,,,545.2379705862986,None,545.2379705862986,None,545.6712780956295,None,545.6712780956295,None,v,4.353966871494777,545.6712780956295,None,t,4.805544942584675,545.6712780956295,None,4.353966871494777,4.805544942584675,6.8468768355571035,False,False,False,550.5701140907622,None,550.5701140907622,None,550.5701140907622,None,550.5701140907622,None,550.5701140907622,None,550.5701140907622,None,550.5701140907622,None,550.5701140907622,None,551.5532611223643,None,551.5532611223643,None,552.536443120629,None,552.536443120629,None,c,,,,,,,,,,,,,,,,,,,,,,,,,,,,,,,,,,,,,,,,,,,,,,,17_18Exp,001,2021_Apr_29_1521,ComputerHuman,2020.1.3,59.99693977088485,
Computer.xlsx,c,Sychronize.jpg,Number10.jpg,10,Computer,,,,,0,3,3,7,0,2,2,9,,,,,,,,,,,,,,,,,,,,,,,,,,,,,553.6039021510915,None,553.6039021510915,None,554.0366979923019,None,554.0366979923019,None,v,6.848332266687066,554.0366979923019,None,t,7.8792729500819405,554.0366979923019,None,6.848332266687066,7.8792729500819405,9.970404443947992,False,False,False,561.9863710219397,None,561.9863710219397,None,561.9863710219397,None,561.9863710219397,None,561.9863710219397,None,561.9863710219397,None,561.9863710219397,None,561.9863710219397,None,563.0011259906532,None,563.0011259906532,None,563.9675374648505,None,563.9675374648505,None,c,,,,,,,,,,,,,,,,,,,,,,,,,,,,,,,,,,,,,,,,,,,,,,,17_18Exp,001,2021_Apr_29_1521,ComputerHuman,2020.1.3,59.99693977088485,
Computer.xlsx,c,Sychronize.jpg,Number6.jpg,6,Computer,,,,,0,3,3,7,0,3,3,0,,,,,,,,,,,,,,,,,,,,,,,,,,,,,565.0346545277789,None,565.0346545277789,None,565.4675953683582,None,565.4675953683582,None,v,4.585177664324874,565.4675953683582,None,t,5.084316810785822,565.4675953683582,None,4.585177664324874,5.084316810785822,6.2897276335191865,False,False,False,570.6494749386875,None,570.6494749386875,None,570.6494749386875,None,570.6494749386875,None,570.6494749386875,None,570.6494749386875,None,570.6494749386875,None,570.6494749386875,None,571.6494980359312,None,571.6494980359312,None,572.6327095473425,None,572.6327095473425,None,c,,,,,,,,,,,,,,,,,,,,,,,,,,,,,,,,,,,,,,,,,,,,,,,17_18Exp,001,2021_Apr_29_1521,ComputerHuman,2020.1.3,59.99693977088485,
Computer.xlsx,c,Sychronize.jpg,Number8.jpg,8,Computer,,,,,0,3,3,7,0,4,4,5,,,,,,,,,,,,,,,,,,,,,,,,,,,,,573.6998400836637,None,573.6998400836637,None,574.1325791441486,None,574.1325791441486,None,v,6.704019722481462,574.1325791441486,None,t,5.571315147462883,574.1325791441486,None,6.704019722481462,5.571315147462883,7.521896115961832,False,False,False,580.9160546698913,None,580.9160546698913,None,580.9160546698913,None,580.9160546698913,None,580.9160546698913,None,580.9160546698913,None,580.9160546698913,None,580.9160546698913,None,581.9141748108486,None,581.9141748108486,None,582.8973074066744,None,582.8973074066744,None,c,,,,,,,,,,,,,,,,,,,,,,,,,,,,,,,,,,,,,,,,,,,,,,,17_18Exp,001,2021_Apr_29_1521,ComputerHuman,2020.1.3,59.99693977088485,
Computer.xlsx,c,Sychronize.jpg,Number8.jpg,8,Computer,,,,,0,3,3,7,0,5,5,4,,,,,,,,,,,,,,,,,,,,,,,,,,,,,583.9640841060464,None,583.9640841060464,None,584.3972164612751,None,584.3972164612751,None,v,7.091163218923612,584.3972164612751,None,t,6.182279601762275,584.3972164612751,None,7.091163218923612,6.182279601762275,8.565239029501287,False,False,False,591.563737647386,None,591.563737647386,None,591.563737647386,None,591.563737647386,None,591.563737647386,None,591.563737647386,None,591.563737647386,None,591.563737647386,None,592.578801220945,None,592.578801220945,None,593.561888905464,None,593.561888905464,None,c,,,,,,,,,,,,,,,,,,,,,,,,,,,,,,,,,,,,,,,,,,,,,,,17_18Exp,001,2021_Apr_29_1521,ComputerHuman,2020.1.3,59.99693977088485,
Computer.xlsx,c,Sychronize.jpg,Number6.jpg,6,Computer,,,,,0,3,3,7,0,6,6,1,,,,,,,,,,,,,,,,,,,,,,,,,,,,,594.6118921936104,None,594.6118921936104,None,595.0620135343415,None,595.0620135343415,None,v,4.502169055787817,595.0620135343415,None,t,3.9293298110060277,595.0620135343415,None,4.502169055787817,3.9293298110060277,5.7790567432472155,False,False,False,599.6608926764093,None,599.6608926764093,None,599.6608926764093,None,599.6608926764093,None,599.6608926764093,None,599.6608926764093,None,599.6608926764093,None,599.6608926764093,None,600.6438029612582,None,600.6438029612582,None,601.6270834436073,None,601.6270834436073,None,c,,,,,,,,,,,,,,,,,,,,,,,,,,,,,,,,,,,,,,,,,,,,,,,17_18Exp,001,2021_Apr_29_1521,ComputerHuman,2020.1.3,59.99693977088485,
Computer.xlsx,c,Sychronize.jpg,Number9.jpg,9,Computer,,,,,0,3,3,7,0,7,7,7,,,,,,,,,,,,,,,,,,,,,,,,,,,,,602.6766090679121,None,602.6766090679121,None,603.1272731938843,None,603.1272731938843,None,v,6.612675575146568,603.1272731938843,None,t,6.984168443068484,603.1272731938843,None,6.612675575146568,6.984168443068484,9.170180317380181,False,False,False,610.1932652285432,None,610.1932652285432,None,610.1932652285432,None,610.1932652285432,None,610.1932652285432,None,610.1932652285432,None,610.1932652285432,None,610.1932652285432,None,611.2085738895257,None,611.2085738895257,None,612.1917507550716,None,612.1917507550716,None,c,,,,,,,,,,,,,,,,,,,,,,,,,,,,,,,,,,,,,,,,,,,,,,,17_18Exp,001,2021_Apr_29_1521,ComputerHuman,2020.1.3,59.99693977088485,
Computer.xlsx,c,Sychronize.jpg,Number10.jpg,10,Computer,,,,,0,3,3,7,0,8,8,8,,,,,,,,,,,,,,,,,,,,,,,,,,,,,613.2256722661441,None,613.2256722661441,None,613.6753332659646,None,613.6753332659646,None,v,7.564429281530465,613.6753332659646,None,t,7.695257205457892,613.6753332659646,None,7.564429281530465,7.695257205457892,10.564234145925834,False,False,False,621.4564724412958,None,621.4564724412958,None,621.4564724412958,None,621.4564724412958,None,621.4564724412958,None,621.4564724412958,None,621.4564724412958,None,621.4564724412958,None,622.4563293667015,None,622.4563293667015,None,623.439592526116,None,623.439592526116,None,c,,,,,,,,,,,,,,,,,,,,,,,,,,,,,,,,,,,,,,,,,,,,,,,17_18Exp,001,2021_Apr_29_1521,ComputerHuman,2020.1.3,59.99693977088485,
Computer.xlsx,c,Sychronize.jpg,Number7.jpg,7,Computer,,,,,0,3,3,7,0,9,9,3,,,,,,,,,,,,,,,,,,,,,,,,,,,,,624.4892868886236,None,624.4892868886236,None,624.9398974418182,None,624.9398974418182,None,v,6.427567202554201,624.9398974418182,None,t,6.011209220934688,624.9398974418182,None,6.427567202554201,6.011209220934688,7.325829926375203,False,False,False,631.4547619620462,None,631.4547619620462,None,631.4547619620462,None,631.4547619620462,None,631.4547619620462,None,631.4547619620462,None,631.4547619620462,None,631.4547619620462,None,632.4378692150603,None,632.4378692150603,None,633.4210152842788,None,633.4210152842788,None,c,,,,,,,,,,,,,,,,,,,,,,,,,,,,,,,,,,,,,,,,,,,,,,,17_18Exp,001,2021_Apr_29_1521,ComputerHuman,2020.1.3,59.99693977088485,
Computer.xlsx,c,,,,,,,,,0,3,3,7,,,,,,,,,,,,,,,,,,,,,,,,,,,,,,,,,,,,,,,,,,,,,,,,,,,,,,,,,,,,,,,,,,,,,,,,,,,,,,,c,634.4219914636415,None,634.4219914636415,None,q,0,4.925344253199,634.4219914636415,None,l,1,12.832090733674704,634.4219914636415,None,h,c,647.3520315149071,None,647.3520315149071,None,649.3346595001058,None,None,None,None,None,None,None,None,,,,,,,,,,,,,,,,,,17_18Exp,001,2021_Apr_29_1521,ComputerHuman,2020.1.3,59.99693977088485,
Computer.xlsx,c,Sychronize.jpg,Number8.jpg,8,Computer,,,,,0,4,4,9,0,0,0,4,,,,,,,,,,,,,,,,,,,,,,,,,654.3530789107717,None,654.3530789107717,None,657.4339455707013,None,657.4339455707013,None,657.8665447645435,None,657.8665447645435,None,v,5.716203198007861,657.8665447645435,None,t,5.907317174885975,657.8665447645435,None,5.716203198007861,5.907317174885975,8.029288959180525,False,False,False,663.8502711520232,None,663.8502711520232,None,663.8502711520232,None,663.8502711520232,None,663.8502711520232,None,663.8502711520232,None,663.8502711520232,None,663.8502711520232,None,664.8817257490955,None,664.8817257490955,None,665.8482151764911,None,665.8482151764911,None,c,,,,,,,,,,,,,,,,,,,,,,,,,,,,,,,,,,,,,,,,,,,,,,,17_18Exp,001,2021_Apr_29_1521,ComputerHuman,2020.1.3,59.99693977088485,
Computer.xlsx,c,Sychronize.jpg,Number7.jpg,7,Computer,,,,,0,4,4,9,0,1,1,2,,,,,,,,,,,,,,,,,,,,,,,,,,,,,666.9146547202581,None,666.9146547202581,None,667.3484180793675,None,667.3484180793675,None,v,4.346189836891426,667.3484180793675,None,t,5.397330022726237,667.3484180793675,None,4.346189836891426,5.397330022726237,6.8900408413734535,False,False,False,672.8303003764522,None,672.8303003764522,None,672.8303003764522,None,672.8303003764522,None,672.8303003764522,None,672.8303003764522,None,672.8303003764522,None,672.8303003764522,None,673.8300995587451,None,673.8300995587451,None,674.8131458606986,None,674.8131458606986,None,c,,,,,,,,,,,,,,,,,,,,,,,,,,,,,,,,,,,,,,,,,,,,,,,17_18Exp,001,2021_Apr_29_1521,ComputerHuman,2020.1.3,59.99693977088485,
Computer.xlsx,c,Sychronize.jpg,Number10.jpg,10,Computer,,,,,0,4,4,9,0,2,2,8,,,,,,,,,,,,,,,,,,,,,,,,,,,,,675.8631087286703,None,675.8631087286703,None,676.3131011097903,None,676.3131011097903,None,v,4.8013139765607775,676.3131011097903,None,t,8.256200086296303,676.3131011097903,None,4.8013139765607775,8.256200086296303,10.479559857118831,False,False,False,684.6612901414846,None,684.6612901414846,None,684.6612901414846,None,684.6612901414846,None,684.6612901414846,None,684.6612901414846,None,684.6612901414846,None,684.6612901414846,None,685.6444583455632,None,685.6444583455632,None,686.6268393185674,None,686.6268393185674,None,c,,,,,,,,,,,,,,,,,,,,,,,,,,,,,,,,,,,,,,,,,,,,,,,17_18Exp,001,2021_Apr_29_1521,ComputerHuman,2020.1.3,59.99693977088485,
Computer.xlsx,c,Sychronize.jpg,Number7.jpg,7,Computer,,,,,0,4,4,9,0,3,3,3,,,,,,,,,,,,,,,,,,,,,,,,,,,,,687.7111400895956,None,687.7111400895956,None,688.144177168695,None,688.144177168695,None,v,6.725963066863187,688.144177168695,None,t,5.413317165261105,688.144177168695,None,6.725963066863187,5.413317165261105,6.524039848481182,False,True,False,694.9594851880902,None,694.9594851880902,None,694.9594851880902,None,694.9594851880902,None,694.9594851880902,None,694.9594851880902,None,694.9594851880902,None,694.9594851880902,None,695.9591400126046,None,695.9591400126046,None,696.9423066127092,None,696.9423066127092,None,c,,,,,,,,,,,,,,,,,,,,,,,,,,,,,,,,,,,,,,,,,,,,,,,17_18Exp,001,2021_Apr_29_1521,ComputerHuman,2020.1.3,59.99693977088485,
Computer.xlsx,c,Sychronize.jpg,Number6.jpg,6,Computer,,,,,0,4,4,9,0,4,4,1,,,,,,,,,,,,,,,,,,,,,,,,,,,,,697.9919602342452,None,697.9919602342452,None,698.4256324875569,None,698.4256324875569,None,v,5.080303343809646,698.4256324875569,None,t,4.823343614814803,698.4256324875569,None,5.080303343809646,4.823343614814803,6.164426367343502,False,False,False,703.5910353820909,None,703.5910353820909,None,703.5910353820909,None,703.5910353820909,None,703.5910353820909,None,703.5910353820909,None,703.5910353820909,None,703.5910353820909,None,704.5907543656176,None,704.5907543656176,None,705.5740091843618,None,705.5740091843618,None,c,,,,,,,,,,,,,,,,,,,,,,,,,,,,,,,,,,,,,,,,,,,,,,,17_18Exp,001,2021_Apr_29_1521,ComputerHuman,2020.1.3,59.99693977088485,
Computer.xlsx,c,Sychronize.jpg,Number8.jpg,8,Computer,,,,,0,4,4,9,0,5,5,5,,,,,,,,,,,,,,,,,,,,,,,,,,,,,706.6242995840876,None,706.6242995840876,None,707.0742691887572,None,707.0742691887572,None,v,6.0954390962542675,707.0742691887572,None,t,5.5183727349867695,707.0742691887572,None,6.0954390962542675,5.5183727349867695,8.190815458925167,False,False,False,713.2556951548722,None,713.2556951548722,None,713.2556951548722,None,713.2556951548722,None,713.2556951548722,None,713.2556951548722,None,713.2556951548722,None,713.2556951548722,None,714.2389929601522,None,714.2389929601522,None,715.2222201905206,None,715.2222201905206,None,c,,,,,,,,,,,,,,,,,,,,,,,,,,,,,,,,,,,,,,,,,,,,,,,17_18Exp,001,2021_Apr_29_1521,ComputerHuman,2020.1.3,59.99693977088485,
Computer.xlsx,c,Sychronize.jpg,Number10.jpg,10,Computer,,,,,0,4,4,9,0,6,6,9,,,,,,,,,,,,,,,,,,,,,,,,,,,,,716.2895303720725,None,716.2895303720725,None,716.7222729613059,None,716.7222729613059,None,v,5.83522746775634,716.7222729613059,None,t,7.082242549935472,716.7222729613059,None,5.83522746775634,7.082242549935472,10.732448700340875,False,False,False,723.8717734031998,None,723.8717734031998,None,723.8717734031998,None,723.8717734031998,None,723.8717734031998,None,723.8717734031998,None,723.8717734031998,None,723.8717734031998,None,724.886948934236,None,724.886948934236,None,725.8700420722707,None,725.8700420722707,None,c,,,,,,,,,,,,,,,,,,,,,,,,,,,,,,,,,,,,,,,,,,,,,,,17_18Exp,001,2021_Apr_29_1521,ComputerHuman,2020.1.3,59.99693977088485,
Computer.xlsx,c,Sychronize.jpg,Number6.jpg,6,Computer,,,,,0,4,4,9,0,7,7,0,,,,,,,,,,,,,,,,,,,,,,,,,,,,,726.9199240998896,None,726.9199240998896,None,727.3700630843487,None,727.3700630843487,None,v,6.5912355582077,727.3700630843487,None,t,4.430321228130197,727.3700630843487,None,6.5912355582077,4.430321228130197,5.671659553813713,False,False,False,734.0518626163066,None,734.0518626163066,None,734.0518626163066,None,734.0518626163066,None,734.0518626163066,None,734.0518626163066,None,734.0518626163066,None,734.0518626163066,None,735.03505648399,None,735.03505648399,None,736.0181759272164,None,736.0181759272164,None,c,,,,,,,,,,,,,,,,,,,,,,,,,,,,,,,,,,,,,,,,,,,,,,,17_18Exp,001,2021_Apr_29_1521,ComputerHuman,2020.1.3,59.99693977088485,
Computer.xlsx,c,Sychronize.jpg,Number9.jpg,9,Computer,,,,,0,4,4,9,0,8,8,7,,,,,,,,,,,,,,,,,,,,,,,,,,,,,737.084757583194,None,737.084757583194,None,737.5186139728685,None,737.5186139728685,None,v,7.194403088615218,737.5186139728685,None,t,5.94523547159406,737.5186139728685,None,7.194403088615218,5.94523547159406,8.578113603662521,False,False,False,744.799874569133,None,744.799874569133,None,744.799874569133,None,744.799874569133,None,744.799874569133,None,744.799874569133,None,744.799874569133,None,744.799874569133,None,745.7997151339878,None,745.7997151339878,None,746.7827595111703,None,746.7827595111703,None,c,,,,,,,,,,,,,,,,,,,,,,,,,,,,,,,,,,,,,,,,,,,,,,,17_18Exp,001,2021_Apr_29_1521,ComputerHuman,2020.1.3,59.99693977088485,
Computer.xlsx,c,Sychronize.jpg,Number9.jpg,9,Computer,,,,,0,4,4,9,0,9,9,6,,,,,,,,,,,,,,,,,,,,,,,,,,,,,747.8324898027277,None,747.8324898027277,None,748.266427353552,None,748.266427353552,None,v,6.510367615097493,748.266427353552,None,t,5.981262039840658,748.266427353552,None,6.510367615097493,5.981262039840658,8.637619380536194,False,False,False,754.8491095531172,None,754.8491095531172,None,754.8491095531172,None,754.8491095531172,None,754.8491095531172,None,754.8491095531172,None,754.8491095531172,None,754.8491095531172,None,755.8643421856723,None,755.8643421856723,None,756.8475248255272,None,756.8475248255272,None,c,,,,,,,,,,,,,,,,,,,,,,,,,,,,,,,,,,,,,,,,,,,,,,,17_18Exp,001,2021_Apr_29_1521,ComputerHuman,2020.1.3,59.99693977088485,
Computer.xlsx,c,,,,,,,,,0,4,4,9,,,,,,,,,,,,,,,,,,,,,,,,,,,,,,,,,,,,,,,,,,,,,,,,,,,,,,,,,,,,,,,,,,,,,,,,,,,,,,,c,757.8484929850129,None,757.8484929850129,None,a,1,3.7241422341139696,757.8484929850129,None,l,0,2.6313272414372477,757.8484929850129,None,c,c,761.6640306936715,None,761.6640306936715,None,None,None,763.6629367825226,None,763.6629367825226,None,"['space', 'space']",764.6461139688581,None,"[10.218257729957259, 18.186145823809056]",,,,,,,,,,,,,,,,,17_18Exp,001,2021_Apr_29_1521,ComputerHuman,2020.1.3,59.99693977088485,
Human.xlsx,h,Sychronize.jpg,Number10.jpg,10,Human,,,,,0,5,5,4,0,0,0,8,,,,,,,,,,,,,,,,,,,,,,,,,782.8955840956223,None,782.8955840956223,None,785.9586729350012,None,785.9586729350012,None,786.3924189711761,None,786.3924189711761,None,v,7.411563057881722,786.3924189711761,None,t,7.13542844586118,786.3924189711761,None,7.411563057881722,7.13542844586118,9.283593945209981,True,False,False,793.8749720507294,None,793.8749720507294,None,793.8749720507294,None,793.8749720507294,None,793.8749720507294,None,793.8749720507294,None,793.8749720507294,None,793.8749720507294,None,794.891558117637,None,794.891558117637,None,795.8900032239908,None,795.8900032239908,None,h,,,,,,,,,,,,,,,,,,,,,,,,,,,,,,,,,,,,,,,,,,,,,,,17_18Exp,001,2021_Apr_29_1521,ComputerHuman,2020.1.3,59.99693977088485,
Human.xlsx,h,Sychronize.jpg,Number8.jpg,8,Human,,,,,0,5,5,4,0,1,1,4,,,,,,,,,,,,,,,,,,,,,,,,,,,,,796.9402503163838,None,796.9402503163838,None,797.3733108135202,None,797.3733108135202,None,v,6.266413559365901,797.3733108135202,None,t,6.04125392372589,797.3733108135202,None,6.266413559365901,6.04125392372589,8.562088358844944,True,False,False,803.7386242062312,None,803.7386242062312,None,803.7386242062312,None,803.7386242062312,None,803.7386242062312,None,803.7386242062312,None,803.7386242062312,None,803.7386242062312,None,804.7239680423954,None,804.7239680423954,None,805.7216384286803,None,805.7216384286803,None,h,,,,,,,,,,,,,,,,,,,,,,,,,,,,,,,,,,,,,,,,,,,,,,,17_18Exp,001,2021_Apr_29_1521,ComputerHuman,2020.1.3,59.99693977088485,
Human.xlsx,h,Sychronize.jpg,Number9.jpg,9,Human,,,,,0,5,5,4,0,2,2,6,,,,,,,,,,,,,,,,,,,,,,,,,,,,,806.7714081780287,None,806.7714081780287,None,807.2214714548536,None,807.2214714548536,None,v,7.042087028490641,807.2214714548536,None,t,6.589406384784525,807.2214714548536,None,7.042087028490641,6.589406384784525,9.388901551323054,False,False,False,814.3378850944173,None,814.3378850944173,None,814.3378850944173,None,814.3378850944173,None,814.3378850944173,None,814.3378850944173,None,814.3378850944173,None,814.3378850944173,None,815.3217936934889,None,815.3217936934889,None,816.3195904730273,None,816.3195904730273,None,h,,,,,,,,,,,,,,,,,,,,,,,,,,,,,,,,,,,,,,,,,,,,,,,17_18Exp,001,2021_Apr_29_1521,ComputerHuman,2020.1.3,59.99693977088485,
Human.xlsx,h,Sychronize.jpg,Number7.jpg,7,Human,,,,,0,5,5,4,0,3,3,2,,,,,,,,,,,,,,,,,,,,,,,,,,,,,817.3859565547245,None,817.3859565547245,None,817.8198642716088,None,817.8198642716088,None,v,5.195419367359136,817.8198642716088,None,t,5.346275809966755,817.8198642716088,None,5.195419367359136,5.346275809966755,6.930334077552162,True,False,False,823.2516030931038,None,823.2516030931038,None,823.2516030931038,None,823.2516030931038,None,823.2516030931038,None,823.2516030931038,None,823.2516030931038,None,823.2516030931038,None,824.2373325249282,None,824.2373325249282,None,825.2345104907981,None,825.2345104907981,None,h,,,,,,,,,,,,,,,,,,,,,,,,,,,,,,,,,,,,,,,,,,,,,,,17_18Exp,001,2021_Apr_29_1521,ComputerHuman,2020.1.3,59.99693977088485,
Human.xlsx,h,Sychronize.jpg,Number8.jpg,8,Human,,,,,0,5,5,4,0,4,4,5,,,,,,,,,,,,,,,,,,,,,,,,,,,,,826.2693847631963,None,826.2693847631963,None,826.7348539019113,None,826.7348539019113,None,v,5.812308906391991,826.7348539019113,None,t,6.191297792447585,826.7348539019113,None,5.812308906391991,6.191297792447585,8.254198556427522,False,False,False,833.0163923066902,None,833.0163923066902,None,833.0163923066902,None,833.0163923066902,None,833.0163923066902,None,833.0163923066902,None,833.0163923066902,None,833.0163923066902,None,833.9851696444457,None,833.9851696444457,None,834.982682199563,None,834.982682199563,None,h,,,,,,,,,,,,,,,,,,,,,,,,,,,,,,,,,,,,,,,,,,,,,,,17_18Exp,001,2021_Apr_29_1521,ComputerHuman,2020.1.3,59.99693977088485,
Human.xlsx,h,Sychronize.jpg,Number9.jpg,9,Human,,,,,0,5,5,4,0,5,5,7,,,,,,,,,,,,,,,,,,,,,,,,,,,,,836.0497508224362,None,836.0497508224362,None,836.4827150810561,None,836.4827150810561,None,v,6.956160147310584,836.4827150810561,None,t,6.551225036128017,836.4827150810561,None,6.956160147310584,6.551225036128017,9.380493942681044,False,False,False,843.5311211306107,None,843.5311211306107,None,843.5311211306107,None,843.5311211306107,None,843.5311211306107,None,843.5311211306107,None,843.5311211306107,None,843.5311211306107,None,844.5170815348756,None,844.5170815348756,None,845.5140278867148,None,845.5140278867148,None,h,,,,,,,,,,,,,,,,,,,,,,,,,,,,,,,,,,,,,,,,,,,,,,,17_18Exp,001,2021_Apr_29_1521,ComputerHuman,2020.1.3,59.99693977088485,
Human.xlsx,h,Sychronize.jpg,Number7.jpg,7,Human,,,,,0,5,5,4,0,6,6,3,,,,,,,,,,,,,,,,,,,,,,,,,,,,,846.564448208439,None,846.564448208439,None,846.9975343691804,None,846.9975343691804,None,v,4.997198175959056,846.9975343691804,None,t,5.040349281658564,846.9975343691804,None,4.997198175959056,5.040349281658564,7.292007848291951,True,False,False,852.1294221999779,None,852.1294221999779,None,852.1294221999779,None,852.1294221999779,None,852.1294221999779,None,852.1294221999779,None,852.1294221999779,None,852.1294221999779,None,853.097567250672,None,853.097567250672,None,854.0957204335209,None,854.0957204335209,None,h,,,,,,,,,,,,,,,,,,,,,,,,,,,,,,,,,,,,,,,,,,,,,,,17_18Exp,001,2021_Apr_29_1521,ComputerHuman,2020.1.3,59.99693977088485,
Human.xlsx,h,Sychronize.jpg,Number6.jpg,6,Human,,,,,0,5,5,4,0,7,7,0,,,,,,,,,,,,,,,,,,,,,,,,,,,,,855.1794992709911,None,855.1794992709911,None,855.6123050568531,None,855.6123050568531,None,v,4.430214082582097,855.6123050568531,None,t,5.049308766847389,855.6123050568531,None,4.430214082582097,5.049308766847389,6.18025306678251,False,False,False,860.7443677209594,None,860.7443677209594,None,860.7443677209594,None,860.7443677209594,None,860.7443677209594,None,860.7443677209594,None,860.7443677209594,None,860.7443677209594,None,861.729710273943,None,861.729710273943,None,862.7274217219965,None,862.7274217219965,None,h,,,,,,,,,,,,,,,,,,,,,,,,,,,,,,,,,,,,,,,,,,,,,,,17_18Exp,001,2021_Apr_29_1521,ComputerHuman,2020.1.3,59.99693977088485,
Human.xlsx,h,Sychronize.jpg,Number10.jpg,10,Human,,,,,0,5,5,4,0,8,8,9,,,,,,,,,,,,,,,,,,,,,,,,,,,,,863.7772610838692,None,863.7772610838692,None,864.2113532579133,None,864.2113532579133,None,v,6.994916039911914,864.2113532579133,None,t,6.974264537231647,864.2113532579133,None,6.994916039911914,6.974264537231647,9.767125966882602,True,False,False,871.292418810779,None,871.292418810779,None,871.292418810779,None,871.292418810779,None,871.292418810779,None,871.292418810779,None,871.292418810779,None,871.292418810779,None,872.2768230382171,None,872.2768230382171,None,873.2754516393434,None,873.2754516393434,None,h,,,,,,,,,,,,,,,,,,,,,,,,,,,,,,,,,,,,,,,,,,,,,,,17_18Exp,001,2021_Apr_29_1521,ComputerHuman,2020.1.3,59.99693977088485,
Human.xlsx,h,Sychronize.jpg,Number6.jpg,6,Human,,,,,0,5,5,4,0,9,9,1,,,,,,,,,,,,,,,,,,,,,,,,,,,,,874.3256724265411,None,874.3256724265411,None,874.7756564669871,None,874.7756564669871,None,v,4.318423741402512,874.7756564669871,None,t,4.5493057192943525,874.7756564669871,None,4.318423741402512,4.5493057192943525,6.097285706915287,True,False,False,879.4242123278309,None,879.4242123278309,None,879.4242123278309,None,879.4242123278309,None,879.4242123278309,None,879.4242123278309,None,879.4242123278309,None,879.4242123278309,None,880.4088863439138,None,880.4088863439138,None,881.3905070326291,None,881.3905070326291,None,h,,,,,,,,,,,,,,,,,,,,,,,,,,,,,,,,,,,,,,,,,,,,,,,17_18Exp,001,2021_Apr_29_1521,ComputerHuman,2020.1.3,59.99693977088485,
Human.xlsx,h,,,,,,,,,0,5,5,4,,,,,,,,,,,,,,,,,,,,,,,,,,,,,,,,,,,,,,,,,,,,,,,,,,,,,,,,,,,,,,,,,,,,,,,,,,,,,,,h,882.3910838221454,None,882.3910838221454,None,a,0,4.858865572434297,882.3910838221454,None,o,0,1.6383414253905357,882.3910838221454,None,c,h,887.3395776091456,None,887.3395776091456,None,889.3390322575469,None,None,None,None,None,None,None,None,,,,,,,,,,,,,,,,,,17_18Exp,001,2021_Apr_29_1521,ComputerHuman,2020.1.3,59.99693977088485,
Computer.xlsx,c,Sychronize.jpg,Number9.jpg,9,Computer,,,,,0,6,6,5,0,0,0,7,,,,,,,,,,,,,,,,,,,,,,,,,894.3406250050102,None,894.3406250050102,None,897.42129180962,None,897.42129180962,None,897.8379795685614,None,897.8379795685614,None,v,6.835672731296654,897.8379795685614,None,t,6.219342658845562,897.8379795685614,None,6.835672731296654,6.219342658845562,9.655379953259207,False,False,False,904.786097062959,None,904.786097062959,None,904.786097062959,None,904.786097062959,None,904.786097062959,None,904.786097062959,None,904.786097062959,None,904.786097062959,None,905.7858933580974,None,905.7858933580974,None,906.7690522591183,None,906.7690522591183,None,c,,,,,,,,,,,,,,,,,,,,,,,,,,,,,,,,,,,,,,,,,,,,,,,17_18Exp,001,2021_Apr_29_1521,ComputerHuman,2020.1.3,59.99693977088485,
Computer.xlsx,c,Sychronize.jpg,Number7.jpg,7,Computer,,,,,0,6,6,5,0,1,1,2,,,,,,,,,,,,,,,,,,,,,,,,,,,,,907.8191116864036,None,907.8191116864036,None,908.2692150626099,None,908.2692150626099,None,v,4.7041762704684515,908.2692150626099,None,t,4.951303630918119,908.2692150626099,None,4.7041762704684515,4.951303630918119,7.28834039962526,False,False,False,913.3178052485273,None,913.3178052485273,None,913.3178052485273,None,913.3178052485273,None,913.3178052485273,None,913.3178052485273,None,913.3178052485273,None,913.3178052485273,None,914.3176345855572,None,914.3176345855572,None,915.2840778184654,None,915.2840778184654,None,c,,,,,,,,,,,,,,,,,,,,,,,,,,,,,,,,,,,,,,,,,,,,,,,17_18Exp,001,2021_Apr_29_1521,ComputerHuman,2020.1.3,59.99693977088485,
Computer.xlsx,c,Sychronize.jpg,Number8.jpg,8,Computer,,,,,0,6,6,5,0,2,2,4,,,,,,,,,,,,,,,,,,,,,,,,,,,,,916.3509510771473,None,916.3509510771473,None,916.784099792927,None,916.784099792927,None,v,6.169096849629568,916.784099792927,None,t,6.89635432455907,916.784099792927,None,6.169096849629568,6.89635432455907,8.475254001045059,False,False,False,923.7492806972805,None,923.7492806972805,None,923.7492806972805,None,923.7492806972805,None,923.7492806972805,None,923.7492806972805,None,923.7492806972805,None,923.7492806972805,None,924.7656178272227,None,924.7656178272227,None,925.7486952462968,None,925.7486952462968,None,c,,,,,,,,,,,,,,,,,,,,,,,,,,,,,,,,,,,,,,,,,,,,,,,17_18Exp,001,2021_Apr_29_1521,ComputerHuman,2020.1.3,59.99693977088485,
Computer.xlsx,c,Sychronize.jpg,Number7.jpg,7,Computer,,,,,0,6,6,5,0,3,3,3,,,,,,,,,,,,,,,,,,,,,,,,,,,,,926.7986433576953,None,926.7986433576953,None,927.2486755173995,None,927.2486755173995,None,v,5.528235899852007,927.2486755173995,None,t,5.535392196015891,927.2486755173995,None,5.528235899852007,5.535392196015891,6.899886159695252,False,False,False,932.8653247809343,None,932.8653247809343,None,932.8653247809343,None,932.8653247809343,None,932.8653247809343,None,932.8653247809343,None,932.8653247809343,None,932.8653247809343,None,933.8637945885057,None,933.8637945885057,None,934.8470522944044,None,934.8470522944044,None,c,,,,,,,,,,,,,,,,,,,,,,,,,,,,,,,,,,,,,,,,,,,,,,,17_18Exp,001,2021_Apr_29_1521,ComputerHuman,2020.1.3,59.99693977088485,
Computer.xlsx,c,Sychronize.jpg,Number10.jpg,10,Computer,,,,,0,6,6,5,0,4,4,9,,,,,,,,,,,,,,,,,,,,,,,,,,,,,935.9136317048178,None,935.9136317048178,None,936.3473883272309,None,936.3473883272309,None,v,8.0412908151593,936.3473883272309,None,t,7.680217691526195,936.3473883272309,None,8.0412908151593,7.680217691526195,9.588185005176527,False,False,False,944.463027888316,None,944.463027888316,None,944.463027888316,None,944.463027888316,None,944.463027888316,None,944.463027888316,None,944.463027888316,None,944.463027888316,None,945.4783019034367,None,945.4783019034367,None,946.4614251962048,None,946.4614251962048,None,c,,,,,,,,,,,,,,,,,,,,,,,,,,,,,,,,,,,,,,,,,,,,,,,17_18Exp,001,2021_Apr_29_1521,ComputerHuman,2020.1.3,59.99693977088485,
Computer.xlsx,c,Sychronize.jpg,Number6.jpg,6,Computer,,,,,0,6,6,5,0,5,5,0,,,,,,,,,,,,,,,,,,,,,,,,,,,,,947.5280937876414,None,947.5280937876414,None,947.9451305716066,None,947.9451305716066,None,v,4.011385337420506,947.9451305716066,None,t,4.64232345444907,947.9451305716066,None,4.011385337420506,4.64232345444907,5.750547597753598,False,False,False,952.6770094201456,None,952.6770094201456,None,952.6770094201456,None,952.6770094201456,None,952.6770094201456,None,952.6770094201456,None,952.6770094201456,None,952.6770094201456,None,953.6600602132312,None,953.6600602132312,None,954.6599411982643,None,954.6599411982643,None,c,,,,,,,,,,,,,,,,,,,,,,,,,,,,,,,,,,,,,,,,,,,,,,,17_18Exp,001,2021_Apr_29_1521,ComputerHuman,2020.1.3,59.99693977088485,
Computer.xlsx,c,Sychronize.jpg,Number9.jpg,9,Computer,,,,,0,6,6,5,0,6,6,6,,,,,,,,,,,,,,,,,,,,,,,,,,,,,955.7104673823596,None,955.7104673823596,None,956.1601963907342,None,956.1601963907342,None,v,5.744098894698254,956.1601963907342,None,t,6.423310252128431,956.1601963907342,None,5.744098894698254,6.423310252128431,9.497039040210476,False,False,False,962.6589531494865,None,962.6589531494865,None,962.6589531494865,None,962.6589531494865,None,962.6589531494865,None,962.6589531494865,None,962.6589531494865,None,962.6589531494865,None,963.6749034005879,None,963.6749034005879,None,964.6413325185131,None,964.6413325185131,None,c,,,,,,,,,,,,,,,,,,,,,,,,,,,,,,,,,,,,,,,,,,,,,,,17_18Exp,001,2021_Apr_29_1521,ComputerHuman,2020.1.3,59.99693977088485,
Computer.xlsx,c,Sychronize.jpg,Number10.jpg,10,Computer,,,,,0,6,6,5,0,7,7,8,,,,,,,,,,,,,,,,,,,,,,,,,,,,,965.6928653575014,None,965.6928653575014,None,966.1416586066916,None,966.1416586066916,None,v,7.758395447279327,966.1416586066916,None,t,7.061257099594513,966.1416586066916,None,7.758395447279327,7.061257099594513,9.98497923770173,False,False,False,973.9745757084347,None,973.9745757084347,None,973.9745757084347,None,973.9745757084347,None,973.9745757084347,None,973.9745757084347,None,973.9745757084347,None,973.9745757084347,None,974.9893794379968,None,974.9893794379968,None,975.972555020362,None,975.972555020362,None,c,,,,,,,,,,,,,,,,,,,,,,,,,,,,,,,,,,,,,,,,,,,,,,,17_18Exp,001,2021_Apr_29_1521,ComputerHuman,2020.1.3,59.99693977088485,
Computer.xlsx,c,Sychronize.jpg,Number6.jpg,6,Computer,,,,,0,6,6,5,0,8,8,1,,,,,,,,,,,,,,,,,,,,,,,,,,,,,977.0227956968556,None,977.0227956968556,None,977.4727633767507,None,977.4727633767507,None,v,5.291148141554004,977.4727633767507,None,t,5.186210945204948,977.4727633767507,None,5.291148141554004,5.186210945204948,6.315569124872613,False,False,False,982.8545229697265,None,982.8545229697265,None,982.8545229697265,None,982.8545229697265,None,982.8545229697265,None,982.8545229697265,None,982.8545229697265,None,982.8545229697265,None,983.8377043264009,None,983.8377043264009,None,984.8208840791012,None,984.8208840791012,None,c,,,,,,,,,,,,,,,,,,,,,,,,,,,,,,,,,,,,,,,,,,,,,,,17_18Exp,001,2021_Apr_29_1521,ComputerHuman,2020.1.3,59.99693977088485,
Computer.xlsx,c,Sychronize.jpg,Number8.jpg,8,Computer,,,,,0,6,6,5,0,9,9,5,,,,,,,,,,,,,,,,,,,,,,,,,,,,,985.8874458457831,None,985.8874458457831,None,986.3209698917781,None,986.3209698917781,None,v,7.190684753091773,986.3209698917781,None,t,5.758254618245701,986.3209698917781,None,7.190684753091773,5.758254618245701,8.146112256438089,False,False,False,993.6025031638419,None,993.6025031638419,None,993.6025031638419,None,993.6025031638419,None,993.6025031638419,None,993.6025031638419,None,993.6025031638419,None,993.6025031638419,None,994.6021913510449,None,994.6021913510449,None,995.5855475410244,None,995.5855475410244,None,c,,,,,,,,,,,,,,,,,,,,,,,,,,,,,,,,,,,,,,,,,,,,,,,17_18Exp,001,2021_Apr_29_1521,ComputerHuman,2020.1.3,59.99693977088485,
Computer.xlsx,c,,,,,,,,,0,6,6,5,,,,,,,,,,,,,,,,,,,,,,,,,,,,,,,,,,,,,,,,,,,,,,,,,,,,,,,,,,,,,,,,,,,,,,,,,,,,,,,c,996.586203887713,None,996.586203887713,None,q,0,2.4772978149048868,996.586203887713,None,l,0,1.968348113965476,996.586203887713,None,h,c,999.1518438497951,None,999.1518438497951,None,1001.134363406265,None,None,None,None,None,None,None,None,,,,,,,,,,,,,,,,,,17_18Exp,001,2021_Apr_29_1521,ComputerHuman,2020.1.3,59.99693977088485,
Human.xlsx,h,Sychronize.jpg,Number6.jpg,6,Human,,,,,0,7,7,2,0,0,0,0,,,,,,,,,,,,,,,,,,,,,,,,,1006.1532944850514,None,1006.1532944850514,None,1009.2159595541598,None,1009.2159595541598,None,1009.6656308194215,None,1009.6656308194215,None,v,4.705553764451906,1009.6656308194215,None,t,5.044412471870601,1009.6656308194215,None,4.705553764451906,5.044412471870601,5.887471477821223,False,False,False,1014.7834607691693,None,1014.7834607691693,None,1014.7834607691693,None,1014.7834607691693,None,1014.7834607691693,None,1014.7834607691693,None,1014.7834607691693,None,1014.7834607691693,None,1015.7999534847149,None,1015.7999534847149,None,1016.781494295461,None,1016.781494295461,None,h,,,,,,,,,,,,,,,,,,,,,,,,,,,,,,,,,,,,,,,,,,,,,,,17_18Exp,001,2021_Apr_29_1521,ComputerHuman,2020.1.3,59.99693977088485,
Human.xlsx,h,Sychronize.jpg,Number8.jpg,8,Human,,,,,0,7,7,2,0,1,1,4,,,,,,,,,,,,,,,,,,,,,,,,,,,,,1017.8475986083904,None,1017.8475986083904,None,1018.281702010263,None,1018.281702010263,None,v,5.39723891693211,1018.281702010263,None,t,5.516291416646709,1018.281702010263,None,5.39723891693211,5.516291416646709,7.967594335115695,True,False,False,1023.8967081615083,None,1023.8967081615083,None,1023.8967081615083,None,1023.8967081615083,None,1023.8967081615083,None,1023.8967081615083,None,1023.8967081615083,None,1023.8967081615083,None,1024.8821722958164,None,1024.8821722958164,None,1025.8796691319767,None,1025.8796691319767,None,h,,,,,,,,,,,,,,,,,,,,,,,,,,,,,,,,,,,,,,,,,,,,,,,17_18Exp,001,2021_Apr_29_1521,ComputerHuman,2020.1.3,59.99693977088485,
Human.xlsx,h,Sychronize.jpg,Number7.jpg,7,Human,,,,,0,7,7,2,0,2,2,2,,,,,,,,,,,,,,,,,,,,,,,,,,,,,1026.9137892151884,None,1026.9137892151884,None,1027.3796073789272,None,1027.3796073789272,None,v,5.451190550662432,1027.3796073789272,None,t,5.454249652339058,1027.3796073789272,None,5.451190550662432,5.454249652339058,6.983514958904157,True,False,False,1032.9132506002861,None,1032.9132506002861,None,1032.9132506002861,None,1032.9132506002861,None,1032.9132506002861,None,1032.9132506002861,None,1032.9132506002861,None,1032.9132506002861,None,1033.913659613987,None,1033.913659613987,None,1034.9113232635755,None,1034.9113232635755,None,h,,,,,,,,,,,,,,,,,,,,,,,,,,,,,,,,,,,,,,,,,,,,,,,17_18Exp,001,2021_Apr_29_1521,ComputerHuman,2020.1.3,59.99693977088485,
Human.xlsx,h,Sychronize.jpg,Number9.jpg,9,Human,,,,,0,7,7,2,0,3,3,7,,,,,,,,,,,,,,,,,,,,,,,,,,,,,1035.96129960494,None,1035.96129960494,None,1036.4114430805312,None,1036.4114430805312,None,v,5.811134796480474,1036.4114430805312,None,t,6.466257973759639,1036.4114430805312,None,5.811134796480474,6.466257973759639,8.800732106883082,False,False,False,1042.9764436980586,None,1042.9764436980586,None,1042.9764436980586,None,1042.9764436980586,None,1042.9764436980586,None,1042.9764436980586,None,1042.9764436980586,None,1042.9764436980586,None,1043.9617400565548,None,1043.9617400565548,None,1044.9594239162325,None,1044.9594239162325,None,h,,,,,,,,,,,,,,,,,,,,,,,,,,,,,,,,,,,,,,,,,,,,,,,17_18Exp,001,2021_Apr_29_1521,ComputerHuman,2020.1.3,59.99693977088485,
Human.xlsx,h,Sychronize.jpg,Number8.jpg,8,Human,,,,,0,7,7,2,0,4,4,5,,,,,,,,,,,,,,,,,,,,,,,,,,,,,1045.9935247517424,None,1045.9935247517424,None,1046.4596691640545,None,1046.4596691640545,None,v,5.198744408142375,1046.4596691640545,None,t,6.274312496090715,1046.4596691640545,None,5.198744408142375,6.274312496090715,7.886845633565372,False,False,False,1052.8245895828222,None,1052.8245895828222,None,1052.8245895828222,None,1052.8245895828222,None,1052.8245895828222,None,1052.8245895828222,None,1052.8245895828222,None,1052.8245895828222,None,1053.7932928169175,None,1053.7932928169175,None,1054.8075406086427,None,1054.8075406086427,None,h,,,,,,,,,,,,,,,,,,,,,,,,,,,,,,,,,,,,,,,,,,,,,,,17_18Exp,001,2021_Apr_29_1521,ComputerHuman,2020.1.3,59.99693977088485,
Human.xlsx,h,Sychronize.jpg,Number10.jpg,10,Human,,,,,0,7,7,2,0,5,5,8,,,,,,,,,,,,,,,,,,,,,,,,,,,,,1055.8745386566043,None,1055.8745386566043,None,1056.3078320509558,None,1056.3078320509558,None,v,6.050329857516772,1056.3078320509558,None,t,7.765263669476553,1056.3078320509558,None,6.050329857516772,7.765263669476553,10.277088344690606,False,False,False,1064.1404729481546,None,1064.1404729481546,None,1064.1404729481546,None,1064.1404729481546,None,1064.1404729481546,None,1064.1404729481546,None,1064.1404729481546,None,1064.1404729481546,None,1065.1244271001233,None,1065.1244271001233,None,1066.1220310818317,None,1066.1220310818317,None,h,,,,,,,,,,,,,,,,,,,,,,,,,,,,,,,,,,,,,,,,,,,,,,,17_18Exp,001,2021_Apr_29_1521,ComputerHuman,2020.1.3,59.99693977088485,
Human.xlsx,h,Sychronize.jpg,Number10.jpg,10,Human,,,,,0,7,7,2,0,6,6,9,,,,,,,,,,,,,,,,,,,,,,,,,,,,,1067.138882767049,None,1067.138882767049,None,1067.6219994835192,None,1067.6219994835192,None,v,7.451912339543924,1067.6219994835192,None,t,7.1512789296975825,1067.6219994835192,None,7.451912339543924,7.1512789296975825,10.219798187289506,False,False,False,1075.1703453839982,None,1075.1703453839982,None,1075.1703453839982,None,1075.1703453839982,None,1075.1703453839982,None,1075.1703453839982,None,1075.1703453839982,None,1075.1703453839982,None,1076.1557437553238,None,1076.1557437553238,None,1077.1532665758823,None,1077.1532665758823,None,h,,,,,,,,,,,,,,,,,,,,,,,,,,,,,,,,,,,,,,,,,,,,,,,17_18Exp,001,2021_Apr_29_1521,ComputerHuman,2020.1.3,59.99693977088485,
Human.xlsx,h,Sychronize.jpg,Number6.jpg,6,Human,,,,,0,7,7,2,0,7,7,1,,,,,,,,,,,,,,,,,,,,,,,,,,,,,1078.2034315447381,None,1078.2034315447381,None,1078.6534819897606,None,1078.6534819897606,None,v,4.116181704739574,1078.6534819897606,None,t,4.4393487218731025,1078.6534819897606,None,4.116181704739574,4.4393487218731025,6.395696492024103,False,False,False,1083.1854419994488,None,1083.1854419994488,None,1083.1854419994488,None,1083.1854419994488,None,1083.1854419994488,None,1083.1854419994488,None,1083.1854419994488,None,1083.1854419994488,None,1084.153907203614,None,1084.153907203614,None,1085.15175851831,None,1085.15175851831,None,h,,,,,,,,,,,,,,,,,,,,,,,,,,,,,,,,,,,,,,,,,,,,,,,17_18Exp,001,2021_Apr_29_1521,ComputerHuman,2020.1.3,59.99693977088485,
Human.xlsx,h,Sychronize.jpg,Number7.jpg,7,Human,,,,,0,7,7,2,0,8,8,3,,,,,,,,,,,,,,,,,,,,,,,,,,,,,1086.2192942187903,None,1086.2192942187903,None,1086.6519248505501,None,1086.6519248505501,None,v,5.32958195592073,1086.6519248505501,None,t,5.9092486819354235,1086.6519248505501,None,5.32958195592073,5.9092486819354235,7.174471147588069,False,False,False,1092.6503131761747,None,1092.6503131761747,None,1092.6503131761747,None,1092.6503131761747,None,1092.6503131761747,None,1092.6503131761747,None,1092.6503131761747,None,1092.6503131761747,None,1093.6352791157587,None,1093.6352791157587,None,1094.633253936554,None,1094.633253936554,None,h,,,,,,,,,,,,,,,,,,,,,,,,,,,,,,,,,,,,,,,,,,,,,,,17_18Exp,001,2021_Apr_29_1521,ComputerHuman,2020.1.3,59.99693977088485,
Human.xlsx,h,Sychronize.jpg,Number9.jpg,9,Human,,,,,0,7,7,2,0,9,9,6,,,,,,,,,,,,,,,,,,,,,,,,,,,,,1095.6843094324977,None,1095.6843094324977,None,1096.1335813079131,None,1096.1335813079131,None,v,6.423707717203797,1096.1335813079131,None,t,6.663203363215871,1096.1335813079131,None,6.423707717203797,6.663203363215871,9.054966167745237,True,False,False,1102.8817055390064,None,1102.8817055390064,None,1102.8817055390064,None,1102.8817055390064,None,1102.8817055390064,None,1102.8817055390064,None,1102.8817055390064,None,1102.8817055390064,None,1103.849950356962,None,1103.849950356962,None,1104.8647021177276,None,1104.8647021177276,None,h,,,,,,,,,,,,,,,,,,,,,,,,,,,,,,,,,,,,,,,,,,,,,,,17_18Exp,001,2021_Apr_29_1521,ComputerHuman,2020.1.3,59.99693977088485,
Human.xlsx,h,,,,,,,,,0,7,7,2,,,,,,,,,,,,,,,,,,,,,,,,,,,,,,,,,,,,,,,,,,,,,,,,,,,,,,,,,,,,,,,,,,,,,,,,,,,,,,,h,1105.8650075146215,None,1105.8650075146215,None,q,1,5.056206822988315,1105.8650075146215,None,l,0,2.723619017371675,1105.8650075146215,None,h,c,1111.0140479364054,None,1111.0140479364054,None,1113.013105440521,None,None,None,None,None,None,None,None,,,,,,,,,,,,,,,,,,17_18Exp,001,2021_Apr_29_1521,ComputerHuman,2020.1.3,59.99693977088485,
Computer.xlsx,c,Sychronize.jpg,Number10.jpg,10,Computer,,,,,0,8,8,3,0,0,0,8,,,,,,,,,,,,,,,,,,,,,,,,,1117.9989497169772,None,1117.9989497169772,None,1121.0953601806723,None,1121.0953601806723,None,1121.528488044769,None,1121.528488044769,None,v,6.716216671396978,1121.528488044769,None,t,7.391260580221569,1121.528488044769,None,6.716216671396978,7.391260580221569,10.74737877871402,False,False,False,1129.0101072899051,None,1129.0101072899051,None,1129.0101072899051,None,1129.0101072899051,None,1129.0101072899051,None,1129.0101072899051,None,1129.0101072899051,None,1129.0101072899051,None,1130.026588456829,None,1130.026588456829,None,1130.9930246322474,None,1130.9930246322474,None,c,,,,,,,,,,,,,,,,,,,,,,,,,,,,,,,,,,,,,,,,,,,,,,,17_18Exp,001,2021_Apr_29_1521,ComputerHuman,2020.1.3,59.99693977088485,
Computer.xlsx,c,Sychronize.jpg,Number8.jpg,8,Computer,,,,,0,8,8,3,0,1,1,5,,,,,,,,,,,,,,,,,,,,,,,,,,,,,1132.060169925142,None,1132.060169925142,None,1132.4929933547282,None,1132.4929933547282,None,v,6.3715509318280965,1132.4929933547282,None,t,6.198276047354739,1132.4929933547282,None,6.3715509318280965,6.198276047354739,8.079519097954982,False,False,False,1138.9428821190413,None,1138.9428821190413,None,1138.9428821190413,None,1138.9428821190413,None,1138.9428821190413,None,1138.9428821190413,None,1138.9428821190413,None,1138.9428821190413,None,1139.9579761681343,None,1139.9579761681343,None,1140.9410593615212,None,1140.9410593615212,None,c,,,,,,,,,,,,,,,,,,,,,,,,,,,,,,,,,,,,,,,,,,,,,,,17_18Exp,001,2021_Apr_29_1521,ComputerHuman,2020.1.3,59.99693977088485,
Computer.xlsx,c,Sychronize.jpg,Number6.jpg,6,Computer,,,,,0,8,8,3,0,2,2,1,,,,,,,,,,,,,,,,,,,,,,,,,,,,,1141.9910164551802,None,1141.9910164551802,None,1142.4410114026578,None,1142.4410114026578,None,v,4.727324521092669,1142.4410114026578,None,t,5.286285209262132,1142.4410114026578,None,4.727324521092669,5.286285209262132,6.165247843375547,False,False,False,1147.8231421555174,None,1147.8231421555174,None,1147.8231421555174,None,1147.8231421555174,None,1147.8231421555174,None,1147.8231421555174,None,1147.8231421555174,None,1147.8231421555174,None,1148.8061971189381,None,1148.8061971189381,None,1149.7894391058799,None,1149.7894391058799,None,c,,,,,,,,,,,,,,,,,,,,,,,,,,,,,,,,,,,,,,,,,,,,,,,17_18Exp,001,2021_Apr_29_1521,ComputerHuman,2020.1.3,59.99693977088485,
Computer.xlsx,c,Sychronize.jpg,Number6.jpg,6,Computer,,,,,0,8,8,3,0,3,3,0,,,,,,,,,,,,,,,,,,,,,,,,,,,,,1150.8397529236463,None,1150.8397529236463,None,1151.2897761010863,None,1151.2897761010863,None,v,3.8583369021798717,1151.2897761010863,None,t,4.629312327673688,1151.2897761010863,None,3.8583369021798717,4.629312327673688,6.156078391610011,False,False,False,1155.989501019325,None,1155.989501019325,None,1155.989501019325,None,1155.989501019325,None,1155.989501019325,None,1155.989501019325,None,1155.989501019325,None,1155.989501019325,None,1157.0047323687031,None,1157.0047323687031,None,1157.9878402633076,None,1157.9878402633076,None,c,,,,,,,,,,,,,,,,,,,,,,,,,,,,,,,,,,,,,,,,,,,,,,,17_18Exp,001,2021_Apr_29_1521,ComputerHuman,2020.1.3,59.99693977088485,
Computer.xlsx,c,Sychronize.jpg,Number9.jpg,9,Computer,,,,,0,8,8,3,0,4,4,7,,,,,,,,,,,,,,,,,,,,,,,,,,,,,1159.0545069299733,None,1159.0545069299733,None,1159.487746751547,None,1159.487746751547,None,v,5.98016395835657,1159.487746751547,None,t,6.699254311886762,1159.487746751547,None,5.98016395835657,6.699254311886762,8.518635843453453,False,False,False,1166.2696337001616,None,1166.2696337001616,None,1166.2696337001616,None,1166.2696337001616,None,1166.2696337001616,None,1166.2696337001616,None,1166.2696337001616,None,1166.2696337001616,None,1167.252556816813,None,1167.252556816813,None,1168.235981656937,None,1168.235981656937,None,c,,,,,,,,,,,,,,,,,,,,,,,,,,,,,,,,,,,,,,,,,,,,,,,17_18Exp,001,2021_Apr_29_1521,ComputerHuman,2020.1.3,59.99693977088485,
Computer.xlsx,c,Sychronize.jpg,Number8.jpg,8,Computer,,,,,0,8,8,3,0,5,5,4,,,,,,,,,,,,,,,,,,,,,,,,,,,,,1169.286435662143,None,1169.286435662143,None,1169.736201561951,None,1169.736201561951,None,v,5.903482390756835,1169.736201561951,None,t,6.06227337834207,1169.736201561951,None,5.903482390756835,6.06227337834207,7.962591377891871,False,False,False,1175.884435504955,None,1175.884435504955,None,1175.884435504955,None,1175.884435504955,None,1175.884435504955,None,1175.884435504955,None,1175.884435504955,None,1175.884435504955,None,1176.8842834480965,None,1176.8842834480965,None,1177.867401287349,None,1177.867401287349,None,c,,,,,,,,,,,,,,,,,,,,,,,,,,,,,,,,,,,,,,,,,,,,,,,17_18Exp,001,2021_Apr_29_1521,ComputerHuman,2020.1.3,59.99693977088485,
Computer.xlsx,c,Sychronize.jpg,Number7.jpg,7,Computer,,,,,0,8,8,3,0,6,6,3,,,,,,,,,,,,,,,,,,,,,,,,,,,,,1178.9173545314698,None,1178.9173545314698,None,1179.3673757841425,None,1179.3673757841425,None,v,4.688144858217129,1179.3673757841425,None,t,6.7192433727759635,1179.3673757841425,None,4.688144858217129,6.7192433727759635,7.11996012237918,False,False,False,1186.1825031959197,None,1186.1825031959197,None,1186.1825031959197,None,1186.1825031959197,None,1186.1825031959197,None,1186.1825031959197,None,1186.1825031959197,None,1186.1825031959197,None,1187.1656242431236,None,1187.1656242431236,None,1188.1654965666894,None,1188.1654965666894,None,c,,,,,,,,,,,,,,,,,,,,,,,,,,,,,,,,,,,,,,,,,,,,,,,17_18Exp,001,2021_Apr_29_1521,ComputerHuman,2020.1.3,59.99693977088485,
Computer.xlsx,c,Sychronize.jpg,Number9.jpg,9,Computer,,,,,0,8,8,3,0,7,7,6,,,,,,,,,,,,,,,,,,,,,,,,,,,,,1189.2157856832346,None,1189.2157856832346,None,1189.6657934625182,None,1189.6657934625182,None,v,5.937478967873176,1189.6657934625182,None,t,6.624236708255921,1189.6657934625182,None,5.937478967873176,6.624236708255921,8.721827676941317,False,False,False,1196.3806291111869,None,1196.3806291111869,None,1196.3806291111869,None,1196.3806291111869,None,1196.3806291111869,None,1196.3806291111869,None,1196.3806291111869,None,1196.3806291111869,None,1197.38041353691,None,1197.38041353691,None,1198.3467900444448,None,1198.3467900444448,None,c,,,,,,,,,,,,,,,,,,,,,,,,,,,,,,,,,,,,,,,,,,,,,,,17_18Exp,001,2021_Apr_29_1521,ComputerHuman,2020.1.3,59.99693977088485,
Computer.xlsx,c,Sychronize.jpg,Number7.jpg,7,Computer,,,,,0,8,8,3,0,8,8,2,,,,,,,,,,,,,,,,,,,,,,,,,,,,,1199.413844873132,None,1199.413844873132,None,1199.8468816314344,None,1199.8468816314344,None,v,4.144219513644202,1199.8468816314344,None,t,5.751244604627573,1199.8468816314344,None,4.144219513644202,5.751244604627573,7.030655255698452,False,False,False,1205.6804422480673,None,1205.6804422480673,None,1205.6804422480673,None,1205.6804422480673,None,1205.6804422480673,None,1205.6804422480673,None,1205.6804422480673,None,1205.6804422480673,None,1206.69507659784,None,1206.69507659784,None,1207.678437599745,None,1207.678437599745,None,c,,,,,,,,,,,,,,,,,,,,,,,,,,,,,,,,,,,,,,,,,,,,,,,17_18Exp,001,2021_Apr_29_1521,ComputerHuman,2020.1.3,59.99693977088485,
Computer.xlsx,c,Sychronize.jpg,Number10.jpg,10,Computer,,,,,0,8,8,3,0,9,9,9,,,,,,,,,,,,,,,,,,,,,,,,,,,,,1208.7286141172262,None,1208.7286141172262,None,1209.178581797125,None,1209.178581797125,None,v,6.996212372745504,1209.178581797125,None,t,8.115244020780665,1209.178581797125,None,6.996212372745504,8.115244020780665,10.661726926189406,False,False,False,1217.3764388861346,None,1217.3764388861346,None,1217.3764388861346,None,1217.3764388861346,None,1217.3764388861346,None,1217.3764388861346,None,1217.3764388861346,None,1217.3764388861346,None,1218.3597107070163,None,1218.3597107070163,None,1219.3429652049635,None,1219.3429652049635,None,c,,,,,,,,,,,,,,,,,,,,,,,,,,,,,,,,,,,,,,,,,,,,,,,17_18Exp,001,2021_Apr_29_1521,ComputerHuman,2020.1.3,59.99693977088485,
Computer.xlsx,c,,,,,,,,,0,8,8,3,,,,,,,,,,,,,,,,,,,,,,,,,,,,,,,,,,,,,,,,,,,,,,,,,,,,,,,,,,,,,,,,,,,,,,,,,,,,,,,c,1220.3435455232247,None,1220.3435455232247,None,a,1,3.731110544373223,1220.3435455232247,None,l,0,3.5066390141328156,1220.3435455232247,None,c,c,1224.158919305606,None,1224.158919305606,None,1226.1582164436331,None,None,None,None,None,None,None,None,,,,,,,,,,,,,,,,,,17_18Exp,001,2021_Apr_29_1521,ComputerHuman,2020.1.3,59.99693977088485,
Computer.xlsx,c,Sychronize.jpg,Number8.jpg,8,Computer,,,,,0,9,9,1,0,0,0,5,,,,,,,,,,,,,,,,,,,,,,,,,1231.160100793808,None,1231.160100793808,None,1234.2233529178702,None,1234.2233529178702,None,1234.65711691857,None,1234.65711691857,None,v,5.221160604440229,1234.65711691857,None,t,5.348317028921883,1234.65711691857,None,5.221160604440229,5.348317028921883,8.583219784039699,False,False,False,1240.0734858072246,None,1240.0734858072246,None,1240.0734858072246,None,1240.0734858072246,None,1240.0734858072246,None,1240.0734858072246,None,1240.0734858072246,None,1240.0734858072246,None,1241.1053372277856,None,1241.1053372277856,None,1242.0885833850589,None,1242.0885833850589,None,c,,,,,,,,,,,,,,,,,,,,,,,,,,,,,,,,,,,,,,,,,,,,,,,17_18Exp,001,2021_Apr_29_1521,ComputerHuman,2020.1.3,59.99693977088485,
Computer.xlsx,c,Sychronize.jpg,Number7.jpg,7,Computer,,,,,0,9,9,1,0,1,1,3,,,,,,,,,,,,,,,,,,,,,,,,,,,,,1243.1388734639913,None,1243.1388734639913,None,1243.5887946286057,None,1243.5887946286057,None,v,3.9533737214296707,1243.5887946286057,None,t,5.424258201528573,1243.5887946286057,None,3.9533737214296707,5.424258201528573,7.3335352009060095,False,False,False,1249.0885413609067,None,1249.0885413609067,None,1249.0885413609067,None,1249.0885413609067,None,1249.0885413609067,None,1249.0885413609067,None,1249.0885413609067,None,1249.0885413609067,None,1250.0870002614465,None,1250.0870002614465,None,1251.0702133768318,None,1251.0702133768318,None,c,,,,,,,,,,,,,,,,,,,,,,,,,,,,,,,,,,,,,,,,,,,,,,,17_18Exp,001,2021_Apr_29_1521,ComputerHuman,2020.1.3,59.99693977088485,
Computer.xlsx,c,Sychronize.jpg,Number8.jpg,8,Computer,,,,,0,9,9,1,0,2,2,4,,,,,,,,,,,,,,,,,,,,,,,,,,,,,1252.1196706717928,None,1252.1196706717928,None,1252.5705558255577,None,1252.5705558255577,None,v,5.0633348891897185,1252.5705558255577,None,t,5.89432946614761,1252.5705558255577,None,5.0633348891897185,5.89432946614761,7.704750042428685,False,False,False,1258.552100485842,None,1258.552100485842,None,1258.552100485842,None,1258.552100485842,None,1258.552100485842,None,1258.552100485842,None,1258.552100485842,None,1258.552100485842,None,1259.5519124999373,None,1259.5519124999373,None,1260.5350826287868,None,1260.5350826287868,None,c,,,,,,,,,,,,,,,,,,,,,,,,,,,,,,,,,,,,,,,,,,,,,,,17_18Exp,001,2021_Apr_29_1521,ComputerHuman,2020.1.3,59.99693977088485,
Computer.xlsx,c,Sychronize.jpg,Number6.jpg,6,Computer,,,,,0,9,9,1,0,3,3,1,,,,,,,,,,,,,,,,,,,,,,,,,,,,,1261.5852145557546,None,1261.5852145557546,None,1262.0353830533568,None,1262.0353830533568,None,v,4.494353204980143,1262.0353830533568,None,t,1.5333705455595918,1262.0353830533568,None,4.494353204980143,1.5333705455595918,5.906179249810506,False,False,False,1266.617251395859,None,1266.617251395859,None,1266.617251395859,None,1266.617251395859,None,1266.617251395859,None,1266.617251395859,None,1266.617251395859,None,1266.617251395859,None,1267.6004783054304,None,1267.6004783054304,None,1268.5834424838504,None,1268.5834424838504,None,c,,,,,,,,,,,,,,,,,,,,,,,,,,,,,,,,,,,,,,,,,,,,,,,17_18Exp,001,2021_Apr_29_1521,ComputerHuman,2020.1.3,59.99693977088485,
Computer.xlsx,c,Sychronize.jpg,Number7.jpg,7,Computer,,,,,0,9,9,1,0,4,4,2,,,,,,,,,,,,,,,,,,,,,,,,,,,,,1269.6505553764437,None,1269.6505553764437,None,1270.0834304540367,None,1270.0834304540367,None,v,3.8822438331153535,1270.0834304540367,None,t,5.837285047262412,1270.0834304540367,None,3.8822438331153535,5.837285047262412,6.8148100786358405,False,False,False,1276.0154081074543,None,1276.0154081074543,None,1276.0154081074543,None,1276.0154081074543,None,1276.0154081074543,None,1276.0154081074543,None,1276.0154081074543,None,1276.0154081074543,None,1277.0151604536659,None,1277.0151604536659,None,1277.9983969870918,None,1277.9983969870918,None,c,,,,,,,,,,,,,,,,,,,,,,,,,,,,,,,,,,,,,,,,,,,,,,,17_18Exp,001,2021_Apr_29_1521,ComputerHuman,2020.1.3,59.99693977088485,
Computer.xlsx,c,Sychronize.jpg,Number9.jpg,9,Computer,,,,,0,9,9,1,0,5,5,6,,,,,,,,,,,,,,,,,,,,,,,,,,,,,1279.0481728315463,None,1279.0481728315463,None,1279.4986512171745,None,1279.4986512171745,None,v,5.9905699084629305,1279.4986512171745,None,t,5.982269015526981,1279.4986512171745,None,5.9905699084629305,5.982269015526981,9.464751581890255,False,False,False,1285.5486365408033,None,1285.5486365408033,None,1285.5486365408033,None,1285.5486365408033,None,1285.5486365408033,None,1285.5486365408033,None,1285.5486365408033,None,1285.5486365408033,None,1286.5634405911587,None,1286.5634405911587,None,1287.5465616383626,None,1287.5465616383626,None,c,,,,,,,,,,,,,,,,,,,,,,,,,,,,,,,,,,,,,,,,,,,,,,,17_18Exp,001,2021_Apr_29_1521,ComputerHuman,2020.1.3,59.99693977088485,
Computer.xlsx,c,Sychronize.jpg,Number9.jpg,9,Computer,,,,,0,9,9,1,0,6,6,7,,,,,,,,,,,,,,,,,,,,,,,,,,,,,1288.6137438226906,None,1288.6137438226906,None,1289.0631436953336,None,1289.0631436953336,None,v,6.01793725569587,1289.0631436953336,None,t,6.25326545309872,1289.0631436953336,None,6.01793725569587,6.25326545309872,9.551768563581225,False,False,False,1295.4117119067887,None,1295.4117119067887,None,1295.4117119067887,None,1295.4117119067887,None,1295.4117119067887,None,1295.4117119067887,None,1295.4117119067887,None,1295.4117119067887,None,1296.4115389982508,None,1296.4115389982508,None,1297.3780351623464,None,1297.3780351623464,None,c,,,,,,,,,,,,,,,,,,,,,,,,,,,,,,,,,,,,,,,,,,,,,,,17_18Exp,001,2021_Apr_29_1521,ComputerHuman,2020.1.3,59.99693977088485,
Computer.xlsx,c,Sychronize.jpg,Number6.jpg,6,Computer,,,,,0,9,9,1,0,7,7,0,,,,,,,,,,,,,,,,,,,,,,,,,,,,,1298.445078763205,None,1298.445078763205,None,1298.8782319701131,None,1298.8782319701131,None,v,3.85067407061797,1298.8782319701131,None,t,5.302351267382619,1298.8782319701131,None,3.85067407061797,5.302351267382619,6.281987222685306,False,False,False,1304.2934472797388,None,1304.2934472797388,None,1304.2934472797388,None,1304.2934472797388,None,1304.2934472797388,None,1304.2934472797388,None,1304.2934472797388,None,1304.2934472797388,None,1305.2765064134946,None,1305.2765064134946,None,1306.2596547282774,None,1306.2596547282774,None,c,,,,,,,,,,,,,,,,,,,,,,,,,,,,,,,,,,,,,,,,,,,,,,,17_18Exp,001,2021_Apr_29_1521,ComputerHuman,2020.1.3,59.99693977088485,
Computer.xlsx,c,Sychronize.jpg,Number10.jpg,10,Computer,,,,,0,9,9,1,0,8,8,9,,,,,,,,,,,,,,,,,,,,,,,,,,,,,1307.3094276855736,None,1307.3094276855736,None,1307.7596664372977,None,1307.7596664372977,None,v,8.21300535246337,1307.7596664372977,None,t,6.576277847016172,1307.7596664372977,None,8.21300535246337,6.576277847016172,10.303282514954004,False,False,False,1316.0578274796244,None,1316.0578274796244,None,1316.0578274796244,None,1316.0578274796244,None,1316.0578274796244,None,1316.0578274796244,None,1316.0578274796244,None,1316.0578274796244,None,1317.0409838142841,None,1317.0409838142841,None,1318.0241096734135,None,1318.0241096734135,None,c,,,,,,,,,,,,,,,,,,,,,,,,,,,,,,,,,,,,,,,,,,,,,,,17_18Exp,001,2021_Apr_29_1521,ComputerHuman,2020.1.3,59.99693977088485,
Computer.xlsx,c,Sychronize.jpg,Number10.jpg,10,Computer,,,,,0,9,9,1,0,9,9,8,,,,,,,,,,,,,,,,,,,,,,,,,,,,,1319.0740231389464,None,1319.0740231389464,None,1319.5243119346997,None,1319.5243119346997,None,v,8.252061830036837,1319.5243119346997,None,t,6.823295816349855,1319.5243119346997,None,8.252061830036837,6.823295816349855,10.185087550119055,False,False,False,1327.8722674275923,None,1327.8722674275923,None,1327.8722674275923,None,1327.8722674275923,None,1327.8722674275923,None,1327.8722674275923,None,1327.8722674275923,None,1327.8722674275923,None,1328.8721086340374,None,1328.8721086340374,None,1329.855129593183,None,1329.855129593183,None,c,,,,,,,,,,,,,,,,,,,,,,,,,,,,,,,,,,,,,,,,,,,,,,,17_18Exp,001,2021_Apr_29_1521,ComputerHuman,2020.1.3,59.99693977088485,
Computer.xlsx,c,,,,,,,,,0,9,9,1,,,,,,,,,,,,,,,,,,,,,,,,,,,,,,,,,,,,,,,,,,,,,,,,,,,,,,,,,,,,,,,,,,,,,,,,,,,,,,,c,1330.8391241653298,None,1330.8391241653298,None,a,1,2.9530952713212173,1330.8391241653298,None,o,0,2.5483032347365224,1330.8391241653298,None,c,h,1333.871406734448,None,1333.871406734448,None,None,None,1335.8706807752314,None,1335.8706807752314,None,"['space', 'space']",1336.853791556994,None,"[433.765010882973, 436.2414598741525]",,,,,,,,,,,,,,,,,17_18Exp,001,2021_Apr_29_1521,ComputerHuman,2020.1.3,59.99693977088485,
Computer.xlsx,c,Sychronize.jpg,Number8.jpg,8,Computer,,,,,1,0,10,5,0,0,0,4,,,,,,,,,,,,,,,,,,,,,,,,,1773.1575450195742,None,1773.1575450195742,None,1776.2205703415348,None,1776.2205703415348,None,1776.6704305550884,None,1776.6704305550884,None,v,6.220102622341074,1776.6704305550884,None,t,7.8792350962648925,1776.6704305550884,None,6.220102622341074,7.8792350962648925,7.633289430041759,False,False,True,1784.6353962059547,None,1784.6353962059547,None,1784.6353962059547,None,1784.6353962059547,None,1784.6353962059547,None,1784.6353962059547,None,1784.6353962059547,None,1784.6353962059547,None,1785.6350779772583,None,1785.6350779772583,None,1786.6182718449381,None,1786.6182718449381,None,c,,,,,,,,,,,,,,,,,,,,,,,,,,,,,,,,,,,,,,,,,,,,,,,17_18Exp,001,2021_Apr_29_1521,ComputerHuman,2020.1.3,59.99693977088485,
Computer.xlsx,c,Sychronize.jpg,Number9.jpg,9,Computer,,,,,1,0,10,5,0,1,1,6,,,,,,,,,,,,,,,,,,,,,,,,,,,,,1787.6848486889903,None,1787.6848486889903,None,1788.1350855159435,None,1788.1350855159435,None,v,5.811223977507325,1788.1350855159435,None,t,7.278241914762475,1788.1350855159435,None,5.811223977507325,7.278241914762475,8.850613434066954,False,False,False,1795.4848502929635,None,1795.4848502929635,None,1795.4848502929635,None,1795.4848502929635,None,1795.4848502929635,None,1795.4848502929635,None,1795.4848502929635,None,1795.4848502929635,None,1796.4997313341373,None,1796.4997313341373,None,1797.4662027970116,None,1797.4662027970116,None,c,,,,,,,,,,,,,,,,,,,,,,,,,,,,,,,,,,,,,,,,,,,,,,,17_18Exp,001,2021_Apr_29_1521,ComputerHuman,2020.1.3,59.99693977088485,
Computer.xlsx,c,Sychronize.jpg,Number10.jpg,10,Computer,,,,,1,0,10,5,0,2,2,8,,,,,,,,,,,,,,,,,,,,,,,,,,,,,1798.5327539774553,None,1798.5327539774553,None,1798.9665301683672,None,1798.9665301683672,None,v,7.663491757972224,1798.9665301683672,None,t,9.243178694072412,1798.9665301683672,None,7.663491757972224,9.243178694072412,10.261564145683463,False,False,False,1808.2975156026696,None,1808.2975156026696,None,1808.2975156026696,None,1808.2975156026696,None,1808.2975156026696,None,1808.2975156026696,None,1808.2975156026696,None,1808.2975156026696,None,1809.2972692320654,None,1809.2972692320654,None,1810.2805009535623,None,1810.2805009535623,None,c,,,,,,,,,,,,,,,,,,,,,,,,,,,,,,,,,,,,,,,,,,,,,,,17_18Exp,001,2021_Apr_29_1521,ComputerHuman,2020.1.3,59.99693977088485,
Computer.xlsx,c,Sychronize.jpg,Number8.jpg,8,Computer,,,,,1,0,10,5,0,3,3,5,,,,,,,,,,,,,,,,,,,,,,,,,,,,,1811.3306733007084,None,1811.3306733007084,None,1811.7806130714343,None,1811.7806130714343,None,v,6.253157024370012,1811.7806130714343,None,t,7.400226160516468,1811.7806130714343,None,6.253157024370012,7.400226160516468,7.949332930716777,False,False,False,1819.26373459983,None,1819.26373459983,None,1819.26373459983,None,1819.26373459983,None,1819.26373459983,None,1819.26373459983,None,1819.26373459983,None,1819.26373459983,None,1820.2787567908308,None,1820.2787567908308,None,1821.278322434322,None,1821.278322434322,None,c,,,,,,,,,,,,,,,,,,,,,,,,,,,,,,,,,,,,,,,,,,,,,,,17_18Exp,001,2021_Apr_29_1521,ComputerHuman,2020.1.3,59.99693977088485,
Computer.xlsx,c,Sychronize.jpg,Number9.jpg,9,Computer,,,,,1,0,10,5,0,4,4,7,,,,,,,,,,,,,,,,,,,,,,,,,,,,,1822.328283056726,None,1822.328283056726,None,1822.7783594861503,None,1822.7783594861503,None,v,7.131172778616019,1822.7783594861503,None,t,8.638403659628239,1822.7783594861503,None,7.131172778616019,8.638403659628239,9.094225466201904,False,False,False,1831.492973465436,None,1831.492973465436,None,1831.492973465436,None,1831.492973465436,None,1831.492973465436,None,1831.492973465436,None,1831.492973465436,None,1831.492973465436,None,1832.4929028905244,None,1832.4929028905244,None,1833.4760139930804,None,1833.4760139930804,None,c,,,,,,,,,,,,,,,,,,,,,,,,,,,,,,,,,,,,,,,,,,,,,,,17_18Exp,001,2021_Apr_29_1521,ComputerHuman,2020.1.3,59.99693977088485,
Computer.xlsx,c,Sychronize.jpg,Number10.jpg,10,Computer,,,,,1,0,10,5,0,5,5,9,,,,,,,,,,,,,,,,,,,,,,,,,,,,,1834.5262043047478,None,1834.5262043047478,None,1834.976293886768,None,1834.976293886768,None,v,8.436919340896566,1834.976293886768,None,t,9.444186632150377,1834.976293886768,None,8.436919340896566,9.444186632150377,10.350019135750838,False,False,False,1844.5072619981365,None,1844.5072619981365,None,1844.5072619981365,None,1844.5072619981365,None,1844.5072619981365,None,1844.5072619981365,None,1844.5072619981365,None,1844.5072619981365,None,1845.5071288681866,None,1845.5071288681866,None,1846.490195701026,None,1846.490195701026,None,c,,,,,,,,,,,,,,,,,,,,,,,,,,,,,,,,,,,,,,,,,,,,,,,17_18Exp,001,2021_Apr_29_1521,ComputerHuman,2020.1.3,59.99693977088485,
Computer.xlsx,c,Sychronize.jpg,Number6.jpg,6,Computer,,,,,1,0,10,5,0,6,6,0,,,,,,,,,,,,,,,,,,,,,,,,,,,,,1847.540657084519,None,1847.540657084519,None,1847.973490137956,None,1847.973490137956,None,v,4.675599525864527,1847.973490137956,None,t,5.998250704546081,1847.973490137956,None,4.675599525864527,5.998250704546081,6.21638548556373,False,False,True,1854.0226888721008,None,1854.0226888721008,None,1854.0226888721008,None,1854.0226888721008,None,1854.0226888721008,None,1854.0226888721008,None,1854.0226888721008,None,1854.0226888721008,None,1855.0552781212937,None,1855.0552781212937,None,1856.0384232281285,None,1856.0384232281285,None,c,,,,,,,,,,,,,,,,,,,,,,,,,,,,,,,,,,,,,,,,,,,,,,,17_18Exp,001,2021_Apr_29_1521,ComputerHuman,2020.1.3,59.99693977088485,
Computer.xlsx,c,Sychronize.jpg,Number7.jpg,7,Computer,,,,,1,0,10,5,0,7,7,3,,,,,,,,,,,,,,,,,,,,,,,,,,,,,1857.1054915302084,None,1857.1054915302084,None,1857.53856389676,None,1857.53856389676,None,v,5.510247958540276,1857.53856389676,None,t,6.721581968751707,1857.53856389676,None,5.510247958540276,6.721581968751707,7.062324256776067,False,False,False,1864.3381734891736,None,1864.3381734891736,None,1864.3381734891736,None,1864.3381734891736,None,1864.3381734891736,None,1864.3381734891736,None,1864.3381734891736,None,1864.3381734891736,None,1865.3365448126642,None,1865.3365448126642,None,1866.3198220870581,None,1866.3198220870581,None,c,,,,,,,,,,,,,,,,,,,,,,,,,,,,,,,,,,,,,,,,,,,,,,,17_18Exp,001,2021_Apr_29_1521,ComputerHuman,2020.1.3,59.99693977088485,
Computer.xlsx,c,Sychronize.jpg,Number6.jpg,6,Computer,,,,,1,0,10,5,0,8,8,1,,,,,,,,,,,,,,,,,,,,,,,,,,,,,1867.3863626812672,None,1867.3863626812672,None,1867.8197250465528,None,1867.8197250465528,None,v,5.000882186410308,1867.8197250465528,None,t,5.69628054169516,1867.8197250465528,None,5.000882186410308,5.69628054169516,5.565119363593995,False,False,True,1873.6017021385778,None,1873.6017021385778,None,1873.6017021385778,None,1873.6017021385778,None,1873.6017021385778,None,1873.6017021385778,None,1873.6017021385778,None,1873.6017021385778,None,1874.601422726082,None,1874.601422726082,None,1875.5846756200554,None,1875.5846756200554,None,c,,,,,,,,,,,,,,,,,,,,,,,,,,,,,,,,,,,,,,,,,,,,,,,17_18Exp,001,2021_Apr_29_1521,ComputerHuman,2020.1.3,59.99693977088485,
Computer.xlsx,c,Sychronize.jpg,Number7.jpg,7,Computer,,,,,1,0,10,5,0,9,9,2,,,,,,,,,,,,,,,,,,,,,,,,,,,,,1876.6344415198619,None,1876.6344415198619,None,1877.0850530354437,None,1877.0850530354437,None,v,5.299326811571518,1877.0850530354437,None,t,5.934512575968256,1877.0850530354437,None,5.299326811571518,5.934512575968256,7.242436856919275,False,False,False,1883.1165583181355,None,1883.1165583181355,None,1883.1165583181355,None,1883.1165583181355,None,1883.1165583181355,None,1883.1165583181355,None,1883.1165583181355,None,1883.1165583181355,None,1884.0997149735886,None,1884.0997149735886,None,1885.082886706412,None,1885.082886706412,None,c,,,,,,,,,,,,,,,,,,,,,,,,,,,,,,,,,,,,,,,,,,,,,,,17_18Exp,001,2021_Apr_29_1521,ComputerHuman,2020.1.3,59.99693977088485,
Computer.xlsx,c,,,,,,,,,1,0,10,5,,,,,,,,,,,,,,,,,,,,,,,,,,,,,,,,,,,,,,,,,,,,,,,,,,,,,,,,,,,,,,,,,,,,,,,,,,,,,,,c,1886.0840511924762,None,1886.0840511924762,None,a,1,2.636213270972803,1886.0840511924762,None,o,0,2.4513243222027086,1886.0840511924762,None,c,h,1888.8162364002928,None,1888.8162364002928,None,1890.8150626111747,None,None,None,None,None,None,None,None,,,,,,,,,,,,,,,,,,17_18Exp,001,2021_Apr_29_1521,ComputerHuman,2020.1.3,59.99693977088485,
Human.xlsx,h,Sychronize.jpg,Number7.jpg,7,Human,,,,,1,1,11,4,0,0,0,2,,,,,,,,,,,,,,,,,,,,,,,,,1895.8170884319698,None,1895.8170884319698,None,1898.8637884933996,None,1898.8637884933996,None,1899.3137401335443,None,1899.3137401335443,None,v,5.854152451436676,1899.3137401335443,None,t,5.937331722943782,1899.3137401335443,None,5.854152451436676,5.937331722943782,7.278874966036909,True,False,False,1905.362354699886,None,1905.362354699886,None,1905.362354699886,None,1905.362354699886,None,1905.362354699886,None,1905.362354699886,None,1905.362354699886,None,1905.362354699886,None,1906.348073545476,None,1906.348073545476,None,1907.3452845532374,None,1907.3452845532374,None,h,,,,,,,,,,,,,,,,,,,,,,,,,,,,,,,,,,,,,,,,,,,,,,,17_18Exp,001,2021_Apr_29_1521,ComputerHuman,2020.1.3,59.99693977088485,
Human.xlsx,h,Sychronize.jpg,Number10.jpg,10,Human,,,,,1,1,11,4,0,1,1,8,,,,,,,,,,,,,,,,,,,,,,,,,,,,,1908.411454629153,None,1908.411454629153,None,1908.8451676234363,None,1908.8451676234363,None,v,8.74648336437167,1908.8451676234363,None,t,8.09855016673464,1908.8451676234363,None,8.74648336437167,8.09855016673464,10.661387086707581,False,False,False,1917.6766687357922,None,1917.6766687357922,None,1917.6766687357922,None,1917.6766687357922,None,1917.6766687357922,None,1917.6766687357922,None,1917.6766687357922,None,1917.6766687357922,None,1918.6459128303577,None,1918.6459128303577,None,1919.642970818877,None,1919.642970818877,None,h,,,,,,,,,,,,,,,,,,,,,,,,,,,,,,,,,,,,,,,,,,,,,,,17_18Exp,001,2021_Apr_29_1521,ComputerHuman,2020.1.3,59.99693977088485,
Human.xlsx,h,Sychronize.jpg,Number8.jpg,8,Human,,,,,1,1,11,4,0,2,2,4,,,,,,,,,,,,,,,,,,,,,,,,,,,,,1920.709889951253,None,1920.709889951253,None,1921.1599471329719,None,1921.1599471329719,None,v,7.023430871071469,1921.1599471329719,None,t,6.870245777132368,1921.1599471329719,None,7.023430871071469,6.870245777132368,8.08585479946608,True,False,False,1928.274593191767,None,1928.274593191767,None,1928.274593191767,None,1928.274593191767,None,1928.274593191767,None,1928.274593191767,None,1928.274593191767,None,1928.274593191767,None,1929.2605725229405,None,1929.2605725229405,None,1930.257598431952,None,1930.257598431952,None,h,,,,,,,,,,,,,,,,,,,,,,,,,,,,,,,,,,,,,,,,,,,,,,,17_18Exp,001,2021_Apr_29_1521,ComputerHuman,2020.1.3,59.99693977088485,
Human.xlsx,h,Sychronize.jpg,Number6.jpg,6,Human,,,,,1,1,11,4,0,3,3,0,,,,,,,,,,,,,,,,,,,,,,,,,,,,,1931.3245377744206,None,1931.3245377744206,None,1931.757903347654,None,1931.757903347654,None,v,5.365320770997641,1931.757903347654,None,t,5.628285141898232,1931.757903347654,None,5.365320770997641,5.628285141898232,6.244523249946807,True,False,False,1937.472925378257,None,1937.472925378257,None,1937.472925378257,None,1937.472925378257,None,1937.472925378257,None,1937.472925378257,None,1937.472925378257,None,1937.472925378257,None,1938.4584344238756,None,1938.4584344238756,None,1939.4558626098915,None,1939.4558626098915,None,h,,,,,,,,,,,,,,,,,,,,,,,,,,,,,,,,,,,,,,,,,,,,,,,17_18Exp,001,2021_Apr_29_1521,ComputerHuman,2020.1.3,59.99693977088485,
Human.xlsx,h,Sychronize.jpg,Number7.jpg,7,Human,,,,,1,1,11,4,0,4,4,3,,,,,,,,,,,,,,,,,,,,,,,,,,,,,1940.5056929895036,None,1940.5056929895036,None,1940.9558585999548,None,1940.9558585999548,None,v,7.6030796325612755,1940.9558585999548,None,t,6.010288218320056,1940.9558585999548,None,7.6030796325612755,6.010288218320056,6.485995278915486,False,False,False,1948.6539173086567,None,1948.6539173086567,None,1948.6539173086567,None,1948.6539173086567,None,1948.6539173086567,None,1948.6539173086567,None,1948.6539173086567,None,1948.6539173086567,None,1949.6231941243168,None,1949.6231941243168,None,1950.6204243797802,None,1950.6204243797802,None,h,,,,,,,,,,,,,,,,,,,,,,,,,,,,,,,,,,,,,,,,,,,,,,,17_18Exp,001,2021_Apr_29_1521,ComputerHuman,2020.1.3,59.99693977088485,
Human.xlsx,h,Sychronize.jpg,Number10.jpg,10,Human,,,,,1,1,11,4,0,5,5,9,,,,,,,,,,,,,,,,,,,,,,,,,,,,,1951.6867939902259,None,1951.6867939902259,None,1952.1196183821958,None,1952.1196183821958,None,v,9.559070720875752,1952.1196183821958,None,t,9.034238777385326,1952.1196183821958,None,9.559070720875752,9.034238777385326,9.736716244049394,False,False,False,1961.7532113991292,None,1961.7532113991292,None,1961.7532113991292,None,1961.7532113991292,None,1961.7532113991292,None,1961.7532113991292,None,1961.7532113991292,None,1961.7532113991292,None,1962.7535642736948,None,1962.7535642736948,None,1963.7345722438477,None,1963.7345722438477,None,h,,,,,,,,,,,,,,,,,,,,,,,,,,,,,,,,,,,,,,,,,,,,,,,17_18Exp,001,2021_Apr_29_1521,ComputerHuman,2020.1.3,59.99693977088485,
Human.xlsx,h,Sychronize.jpg,Number8.jpg,8,Human,,,,,1,1,11,4,0,6,6,5,,,,,,,,,,,,,,,,,,,,,,,,,,,,,1964.7854176190267,None,1964.7854176190267,None,1965.23467730423,None,1965.23467730423,None,v,7.015729544102214,1965.23467730423,None,t,7.599209240179334,1965.23467730423,None,7.015729544102214,7.599209240179334,7.460802369096816,False,False,False,1972.9007697477427,None,1972.9007697477427,None,1972.9007697477427,None,1972.9007697477427,None,1972.9007697477427,None,1972.9007697477427,None,1972.9007697477427,None,1972.9007697477427,None,1973.9016609164137,None,1973.9016609164137,None,1974.8989967134548,None,1974.8989967134548,None,h,,,,,,,,,,,,,,,,,,,,,,,,,,,,,,,,,,,,,,,,,,,,,,,17_18Exp,001,2021_Apr_29_1521,ComputerHuman,2020.1.3,59.99693977088485,
Human.xlsx,h,Sychronize.jpg,Number6.jpg,6,Human,,,,,1,1,11,4,0,7,7,1,,,,,,,,,,,,,,,,,,,,,,,,,,,,,1975.94895220314,None,1975.94895220314,None,1976.4154366582115,None,1976.4154366582115,None,v,5.798911221569142,1976.4154366582115,None,t,5.470293575595861,1976.4154366582115,None,5.798911221569142,5.470293575595861,5.624630645774414,False,False,False,1982.2824809006634,None,1982.2824809006634,None,1982.2824809006634,None,1982.2824809006634,None,1982.2824809006634,None,1982.2824809006634,None,1982.2824809006634,None,1982.2824809006634,None,1983.2661723214806,None,1983.2661723214806,None,1984.26397102579,None,1984.26397102579,None,h,,,,,,,,,,,,,,,,,,,,,,,,,,,,,,,,,,,,,,,,,,,,,,,17_18Exp,001,2021_Apr_29_1521,ComputerHuman,2020.1.3,59.99693977088485,
Human.xlsx,h,Sychronize.jpg,Number9.jpg,9,Human,,,,,1,1,11,4,0,8,8,7,,,,,,,,,,,,,,,,,,,,,,,,,,,,,1985.31393004422,None,1985.31393004422,None,1985.7641039953414,None,1985.7641039953414,None,v,8.881840272930276,1985.7641039953414,None,t,6.837236286413827,1985.7641039953414,None,8.881840272930276,6.837236286413827,8.32946186134672,False,False,False,1994.7134507764022,None,1994.7134507764022,None,1994.7134507764022,None,1994.7134507764022,None,1994.7134507764022,None,1994.7134507764022,None,1994.7134507764022,None,1994.7134507764022,None,1995.714177698006,None,1995.714177698006,None,1996.6949800385264,None,1996.6949800385264,None,h,,,,,,,,,,,,,,,,,,,,,,,,,,,,,,,,,,,,,,,,,,,,,,,17_18Exp,001,2021_Apr_29_1521,ComputerHuman,2020.1.3,59.99693977088485,
Human.xlsx,h,Sychronize.jpg,Number9.jpg,9,Human,,,,,1,1,11,4,0,9,9,6,,,,,,,,,,,,,,,,,,,,,,,,,,,,,1997.7452390003382,None,1997.7452390003382,None,1998.1952666689103,None,1998.1952666689103,None,v,8.322405770461046,1998.1952666689103,None,t,8.06523142957667,1998.1952666689103,None,8.322405770461046,8.06523142957667,8.901014336512672,True,False,False,2006.609584393962,None,2006.609584393962,None,2006.609584393962,None,2006.609584393962,None,2006.609584393962,None,2006.609584393962,None,2006.609584393962,None,2006.609584393962,None,2007.5956416783338,None,2007.5956416783338,None,2008.5926685497325,None,2008.5926685497325,None,h,,,,,,,,,,,,,,,,,,,,,,,,,,,,,,,,,,,,,,,,,,,,,,,17_18Exp,001,2021_Apr_29_1521,ComputerHuman,2020.1.3,59.99693977088485,
Human.xlsx,h,,,,,,,,,1,1,11,4,,,,,,,,,,,,,,,,,,,,,,,,,,,,,,,,,,,,,,,,,,,,,,,,,,,,,,,,,,,,,,,,,,,,,,,,,,,,,,,h,2009.5933467104878,None,2009.5933467104878,None,q,1,2.8242145734002406,2009.5933467104878,None,o,0,1.6593589552321646,2009.5933467104878,None,h,h,2012.5091004746137,None,2012.5091004746137,None,2014.491585385218,None,None,None,None,None,None,None,None,,,,,,,,,,,,,,,,,,17_18Exp,001,2021_Apr_29_1521,ComputerHuman,2020.1.3,59.99693977088485,
