Condition,CorrectTuringReply,Sychronize,NumberImage,Number,Partner,trials.thisRepN,trials.thisTrialN,trials.thisN,trials.thisIndex,Block.thisRepN,Block.thisTrialN,Block.thisN,Block.thisIndex,trials_loop.thisRepN,trials_loop.thisTrialN,trials_loop.thisN,trials_loop.thisIndex,key_resp_Istr.keys,key_resp_Istr.rt,key_resp_Istr.started,key_resp_Istr.stopped,key_respPrLeft.keys,key_respPrLeft.rt,key_respPrRight.keys,key_respPrRight.rt,RTPrLeft,RTPrRight,CompPr,SychronizedRTsPr,SychronizedRTsLeftCPr,SychronizedRTsRightCPr,CreditLeftPr.started,CreditLeftPr.stopped,CreditRightPr.started,CreditRightPr.stopped,text_StartExp.started,text_StartExp.stopped,key_startExp.keys,key_startExp.rt,key_startExp.started,key_startExp.stopped,SychroLeft.started,SychroLeft.stopped,SychroRight.started,SychroRight.stopped,NumberLeft.started,NumberLeft.stopped,NumberRight.started,NumberRight.stopped,CrossLeft.started,CrossLeft.stopped,CrossRight.started,CrossRight.stopped,key_respLeft.keys,key_respLeft.rt,key_respLeft.started,key_respLeft.stopped,key_respRight.keys,key_respRight.rt,key_respRight.started,key_respRight.stopped,RTLeft,RTRight,Comp,SychronizedRTs,SychronizedRTsLeftC,SychronizedRTsRightC,FeedbackLeftLeft.started,FeedbackLeftLeft.stopped,FeedbackLeftRight.started,FeedbackLeftRight.stopped,FeedbackRightLeft.started,FeedbackRightLeft.stopped,FeedbackRightRight.started,FeedbackRightRight.stopped,textLeftLeft.started,textLeftLeft.stopped,textLeftRight.started,textLeftRight.stopped,textRightLeft.started,textRightLeft.stopped,textRightRight.started,textRightRight.stopped,CreditLeft.started,CreditLeft.stopped,CreditRight.started,CreditRight.stopped,BlankLeft.started,BlankLeft.stopped,BlankRight.started,BlankRight.stopped,CorrectTuringReply,TuringtextLeft.started,TuringtextLeft.stopped,TuringtextRight.started,TuringtextRight.stopped,keyTuringLeft.keys,keyTuringLeft.corr,keyTuringLeft.rt,keyTuringLeft.started,keyTuringLeft.stopped,keyTuringRight.keys,keyTuringRight.corr,keyTuringRight.rt,keyTuringRight.started,keyTuringRight.stopped,RespTuringLeft,RespTuringRight,ScoreLeft.started,ScoreLeft.stopped,ScoreRight.started,ScoreRight.stopped,BlockText.started,BlockText.stopped,text_Pause.started,text_Pause.stopped,text_LongPause.started,text_LongPause.stopped,key_respPause.keys,key_respPause.started,key_respPause.stopped,key_respPause.rt,QuestImageLeft.started,QuestImageLeft.stopped,QuestImageRight.started,QuestImageRight.stopped,respQuestLeft.keys,respQuestLeft.rt,respQuestLeft.started,respQuestLeft.stopped,respQuestRight.keys,respQuestRight.rt,respQuestRight.started,respQuestRight.stopped,RespInclusionLeft,RespInclusionRight,EndText.started,EndText.stopped,participant,session,date,expName,psychopyVersion,frameRate,
,,,,,,,,,,,,,,,,,,"['t', 'v']","[257.26705664339215, 263.38675571805334]",19.16199067764046,None,,,,,,,,,,,,,,,,,,,,,,,,,,,,,,,,,,,,,,,,,,,,,,,,,,,,,,,,,,,,,,,,,,,,,,,,,,,,,,,,,,,,,,,,,,,,,,,,,,,,,,,,,,,,,,,,,,,,,,19_20Exp,001,2021_Apr_30_1054,ComputerHuman,2020.1.3,60.04474294477289,
,,,,,,,,,,,,,,,,,,,,,,v,5.583094329309461,t,4.770175698029561,5.583094329309461,4.770175698029561,6,False,False,False,350.3280866323162,None,350.3280866323162,None,351.32789962055585,None,"['space', 'space']","[18.042083740851012, 22.389723206555573]",352.3110146719232,None,,,,,,,,,,,,,,,,,,,,,,,,,,,,,,,,,,,,,,,,,,,,,,,,,,,,,,,,,,,,,,,,,,,,,,,,,,,,,,,,,,,,,,,,,,,,,,,,,,19_20Exp,001,2021_Apr_30_1054,ComputerHuman,2020.1.3,60.04474294477289,
Computer.xlsx,c,Sychronize.jpg,Number7.jpg,7,Computer,,,,,0,0,0,3,0,0,0,3,,,,,,,,,,,,,,,,,,,,,,,,,374.79129198823057,None,374.79129198823057,None,377.82174667701247,None,377.82174667701247,None,378.2716068351997,None,378.2716068351997,None,v,5.3203986205398905,378.2716068351997,None,t,6.584071088848759,378.2716068351997,None,5.3203986205398905,6.584071088848759,7.287578522853487,False,False,False,384.93736421197946,None,384.93736421197946,None,384.93736421197946,None,384.93736421197946,None,384.93736421197946,None,384.93736421197946,None,384.93736421197946,None,384.93736421197946,None,385.9523023778079,None,385.9523023778079,None,386.95212787626815,None,386.95212787626815,None,c,,,,,,,,,,,,,,,,,,,,,,,,,,,,,,,,,,,,,,,,,,,,,,,19_20Exp,001,2021_Apr_30_1054,ComputerHuman,2020.1.3,60.04474294477289,
Computer.xlsx,c,Sychronize.jpg,Number6.jpg,6,Computer,,,,,0,0,0,3,0,1,1,1,,,,,,,,,,,,,,,,,,,,,,,,,,,,,388.00246515502613,None,388.00246515502613,None,388.43535728388406,None,388.43535728388406,None,v,4.603825368867547,388.43535728388406,None,t,6.335035899522154,388.43535728388406,None,4.603825368867547,6.335035899522154,6.137609053413341,False,False,True,394.86672605279136,None,394.86672605279136,None,394.86672605279136,None,394.86672605279136,None,394.86672605279136,None,394.86672605279136,None,394.86672605279136,None,394.86672605279136,None,395.86659966748493,None,395.86659966748493,None,396.849740701618,None,396.849740701618,None,c,,,,,,,,,,,,,,,,,,,,,,,,,,,,,,,,,,,,,,,,,,,,,,,19_20Exp,001,2021_Apr_30_1054,ComputerHuman,2020.1.3,60.04474294477289,
Computer.xlsx,c,Sychronize.jpg,Number7.jpg,7,Computer,,,,,0,0,0,3,0,2,2,2,,,,,,,,,,,,,,,,,,,,,,,,,,,,,397.9161285935211,None,397.9161285935211,None,398.33318117911085,None,398.33318117911085,None,v,5.025129825617114,398.33318117911085,None,t,7.443960787193646,398.33318117911085,None,5.025129825617114,7.443960787193646,6.7749253567831165,False,False,False,405.86407998072764,None,405.86407998072764,None,405.86407998072764,None,405.86407998072764,None,405.86407998072764,None,405.86407998072764,None,405.86407998072764,None,405.86407998072764,None,406.86380186889846,None,406.86380186889846,None,407.84695413015334,None,407.84695413015334,None,c,,,,,,,,,,,,,,,,,,,,,,,,,,,,,,,,,,,,,,,,,,,,,,,19_20Exp,001,2021_Apr_30_1054,ComputerHuman,2020.1.3,60.04474294477289,
Computer.xlsx,c,Sychronize.jpg,Number8.jpg,8,Computer,,,,,0,0,0,3,0,3,3,5,,,,,,,,,,,,,,,,,,,,,,,,,,,,,408.8970774520599,None,408.8970774520599,None,409.3470639955526,None,409.3470639955526,None,v,5.942243839598632,409.3470639955526,None,t,7.129023038372907,409.3470639955526,None,5.942243839598632,7.129023038372907,7.985012712096079,False,False,False,416.5462937508887,None,416.5462937508887,None,416.5462937508887,None,416.5462937508887,None,416.5462937508887,None,416.5462937508887,None,416.5462937508887,None,416.5462937508887,None,417.5444727118406,None,417.5444727118406,None,418.5275791022864,None,418.5275791022864,None,c,,,,,,,,,,,,,,,,,,,,,,,,,,,,,,,,,,,,,,,,,,,,,,,19_20Exp,001,2021_Apr_30_1054,ComputerHuman,2020.1.3,60.04474294477289,
Computer.xlsx,c,Sychronize.jpg,Number9.jpg,9,Computer,,,,,0,0,0,3,0,4,4,7,,,,,,,,,,,,,,,,,,,,,,,,,,,,,419.5941405334038,None,419.5941405334038,None,420.02732777515985,None,420.02732777515985,None,v,7.289079122655494,420.02732777515985,None,t,8.971864192893918,420.02732777515985,None,7.289079122655494,8.971864192893918,9.460201831621488,False,False,False,429.09154819113473,None,429.09154819113473,None,429.09154819113473,None,429.09154819113473,None,429.09154819113473,None,429.09154819113473,None,429.09154819113473,None,429.09154819113473,None,430.0911860362844,None,430.0911860362844,None,431.05771862974007,None,431.05771862974007,None,c,,,,,,,,,,,,,,,,,,,,,,,,,,,,,,,,,,,,,,,,,,,,,,,19_20Exp,001,2021_Apr_30_1054,ComputerHuman,2020.1.3,60.04474294477289,
Computer.xlsx,c,Sychronize.jpg,Number6.jpg,6,Computer,,,,,0,0,0,3,0,5,5,0,,,,,,,,,,,,,,,,,,,,,,,,,,,,,432.12452737829744,None,432.12452737829744,None,432.5576103682147,None,432.5576103682147,None,v,4.1819409511172125,432.5576103682147,None,t,5.9250522301717865,432.5576103682147,None,4.1819409511172125,5.9250522301717865,6.122034988003453,False,False,True,438.5725029840082,None,438.5725029840082,None,438.5725029840082,None,438.5725029840082,None,438.5725029840082,None,438.5725029840082,None,438.5725029840082,None,438.5725029840082,None,439.57221460738265,None,439.57221460738265,None,440.5553312626248,None,440.5553312626248,None,c,,,,,,,,,,,,,,,,,,,,,,,,,,,,,,,,,,,,,,,,,,,,,,,19_20Exp,001,2021_Apr_30_1054,ComputerHuman,2020.1.3,60.04474294477289,
Computer.xlsx,c,Sychronize.jpg,Number8.jpg,8,Computer,,,,,0,0,0,3,0,6,6,4,,,,,,,,,,,,,,,,,,,,,,,,,,,,,441.60541833696834,None,441.60541833696834,None,442.0554356748512,None,442.0554356748512,None,v,7.351006639719344,442.0554356748512,None,t,7.097980048443787,442.0554356748512,None,7.351006639719344,7.097980048443787,7.94973103340619,False,False,False,449.50306003205833,None,449.50306003205833,None,449.50306003205833,None,449.50306003205833,None,449.50306003205833,None,449.50306003205833,None,449.50306003205833,None,449.50306003205833,None,450.4861256840927,None,450.4861256840927,None,451.4692593404038,None,451.4692593404038,None,c,,,,,,,,,,,,,,,,,,,,,,,,,,,,,,,,,,,,,,,,,,,,,,,19_20Exp,001,2021_Apr_30_1054,ComputerHuman,2020.1.3,60.04474294477289,
Computer.xlsx,c,Sychronize.jpg,Number10.jpg,10,Computer,,,,,0,0,0,3,0,7,7,8,,,,,,,,,,,,,,,,,,,,,,,,,,,,,452.5197230044673,None,452.5197230044673,None,452.969351883959,None,452.969351883959,None,v,9.104048788578439,452.969351883959,None,t,8.930838688403128,452.969351883959,None,9.104048788578439,8.930838688403128,9.791519488633195,False,False,False,462.16654247332235,None,462.16654247332235,None,462.16654247332235,None,462.16654247332235,None,462.16654247332235,None,462.16654247332235,None,462.16654247332235,None,462.16654247332235,None,463.1663176101242,None,463.1663176101242,None,464.1326003199406,None,464.1326003199406,None,c,,,,,,,,,,,,,,,,,,,,,,,,,,,,,,,,,,,,,,,,,,,,,,,19_20Exp,001,2021_Apr_30_1054,ComputerHuman,2020.1.3,60.04474294477289,
Computer.xlsx,c,Sychronize.jpg,Number9.jpg,9,Computer,,,,,0,0,0,3,0,8,8,6,,,,,,,,,,,,,,,,,,,,,,,,,,,,,465.18287504759473,None,465.18287504759473,None,465.6324933415158,None,465.6324933415158,None,v,8.083900917768915,465.6324933415158,None,t,7.958913869055323,465.6324933415158,None,8.083900917768915,7.958913869055323,8.408751245476875,False,False,False,473.8135640303567,None,473.8135640303567,None,473.8135640303567,None,473.8135640303567,None,473.8135640303567,None,473.8135640303567,None,473.8135640303567,None,473.8135640303567,None,474.81330773122,None,474.81330773122,None,475.7963891012246,None,475.7963891012246,None,c,,,,,,,,,,,,,,,,,,,,,,,,,,,,,,,,,,,,,,,,,,,,,,,19_20Exp,001,2021_Apr_30_1054,ComputerHuman,2020.1.3,60.04474294477289,
Computer.xlsx,c,Sychronize.jpg,Number10.jpg,10,Computer,,,,,0,0,0,3,0,9,9,9,,,,,,,,,,,,,,,,,,,,,,,,,,,,,476.8461473813063,None,476.8461473813063,None,477.2965592723026,None,477.2965592723026,None,v,9.39469938741604,477.2965592723026,None,t,9.601778183522583,477.2965592723026,None,9.39469938741604,9.601778183522583,9.81266497584122,False,False,True,486.9615031639637,None,486.9615031639637,None,486.9615031639637,None,486.9615031639637,None,486.9615031639637,None,486.9615031639637,None,486.9615031639637,None,486.9615031639637,None,487.9766171144315,None,487.9766171144315,None,488.97644068824184,None,488.97644068824184,None,c,,,,,,,,,,,,,,,,,,,,,,,,,,,,,,,,,,,,,,,,,,,,,,,19_20Exp,001,2021_Apr_30_1054,ComputerHuman,2020.1.3,60.04474294477289,
Computer.xlsx,c,,,,,,,,,0,0,0,3,,,,,,,,,,,,,,,,,,,,,,,,,,,,,,,,,,,,,,,,,,,,,,,,,,,,,,,,,,,,,,,,,,,,,,,,,,,,,,,c,489.9775656457791,None,489.9775656457791,None,a,1,12.484393178914615,489.9775656457791,None,o,0,5.148129673890253,489.9775656457791,None,c,h,502.5560250987105,None,502.5560250987105,None,504.5391722275667,None,None,None,None,None,None,None,None,,,,,,,,,,,,,,,,,,19_20Exp,001,2021_Apr_30_1054,ComputerHuman,2020.1.3,60.04474294477289,
Computer.xlsx,c,Sychronize.jpg,Number6.jpg,6,Computer,,,,,0,1,1,7,0,0,0,0,,,,,,,,,,,,,,,,,,,,,,,,,509.55666889391387,None,509.55666889391387,None,512.6203619559697,None,512.6203619559697,None,513.0705778535089,None,513.0705778535089,None,v,6.025994955493843,513.0705778535089,None,t,5.193135673984216,513.0705778535089,None,6.025994955493843,5.193135673984216,6.1032713220989505,False,True,False,519.185446058334,None,519.185446058334,None,519.185446058334,None,519.185446058334,None,519.185446058334,None,519.185446058334,None,519.185446058334,None,519.185446058334,None,520.1851086031506,None,520.1851086031506,None,521.1682400140376,None,521.1682400140376,None,c,,,,,,,,,,,,,,,,,,,,,,,,,,,,,,,,,,,,,,,,,,,,,,,19_20Exp,001,2021_Apr_30_1054,ComputerHuman,2020.1.3,60.04474294477289,
Computer.xlsx,c,Sychronize.jpg,Number6.jpg,6,Computer,,,,,0,1,1,7,0,1,1,1,,,,,,,,,,,,,,,,,,,,,,,,,,,,,522.2346545302557,None,522.2346545302557,None,522.6848101221162,None,522.6848101221162,None,v,4.918990226309688,522.6848101221162,None,t,5.8381668228312265,522.6848101221162,None,4.918990226309688,5.8381668228312265,6.277074666614169,False,False,False,528.6162124119996,None,528.6162124119996,None,528.6162124119996,None,528.6162124119996,None,528.6162124119996,None,528.6162124119996,None,528.6162124119996,None,528.6162124119996,None,529.6160314949616,None,529.6160314949616,None,530.5991430178051,None,530.5991430178051,None,c,,,,,,,,,,,,,,,,,,,,,,,,,,,,,,,,,,,,,,,,,,,,,,,19_20Exp,001,2021_Apr_30_1054,ComputerHuman,2020.1.3,60.04474294477289,
Computer.xlsx,c,Sychronize.jpg,Number9.jpg,9,Computer,,,,,0,1,1,7,0,2,2,7,,,,,,,,,,,,,,,,,,,,,,,,,,,,,531.6490658554053,None,531.6490658554053,None,532.0826928795354,None,532.0826928795354,None,v,8.16803151035856,532.0826928795354,None,None,,532.0826928795354,None,8.16803151035856,13,9.190850191957358,False,False,False,545.1621677453791,None,545.1621677453791,None,545.1621677453791,None,545.1621677453791,None,545.1621677453791,None,545.1621677453791,None,545.1621677453791,None,545.1621677453791,None,546.1619082384937,None,546.1619082384937,None,547.1449706827793,None,547.1449706827793,None,c,,,,,,,,,,,,,,,,,,,,,,,,,,,,,,,,,,,,,,,,,,,,,,,19_20Exp,001,2021_Apr_30_1054,ComputerHuman,2020.1.3,60.04474294477289,
Computer.xlsx,c,Sychronize.jpg,Number7.jpg,7,Computer,,,,,0,1,1,7,0,3,3,2,,,,,,,,,,,,,,,,,,,,,,,,,,,,,548.1954596880591,None,548.1954596880591,None,548.6285134874611,None,548.6285134874611,None,v,5.465045641454708,548.6285134874611,None,t,5.8081089325860376,548.6285134874611,None,5.465045641454708,5.8081089325860376,7.339849585362113,False,False,False,554.4949120290908,None,554.4949120290908,None,554.4949120290908,None,554.4949120290908,None,554.4949120290908,None,554.4949120290908,None,554.4949120290908,None,554.4949120290908,None,555.5262190167546,None,555.5262190167546,None,556.5092974997847,None,556.5092974997847,None,c,,,,,,,,,,,,,,,,,,,,,,,,,,,,,,,,,,,,,,,,,,,,,,,19_20Exp,001,2021_Apr_30_1054,ComputerHuman,2020.1.3,60.04474294477289,
Computer.xlsx,c,Sychronize.jpg,Number8.jpg,8,Computer,,,,,0,1,1,7,0,4,4,5,,,,,,,,,,,,,,,,,,,,,,,,,,,,,557.5594987699892,None,557.5594987699892,None,558.0094317440758,None,558.0094317440758,None,v,6.591281787588741,558.0094317440758,None,t,7.430189600414451,558.0094317440758,None,6.591281787588741,7.430189600414451,7.8819816792673745,False,False,False,565.523638061994,None,565.523638061994,None,565.523638061994,None,565.523638061994,None,565.523638061994,None,565.523638061994,None,565.523638061994,None,565.523638061994,None,566.5067236020709,None,566.5067236020709,None,567.4898460312611,None,567.4898460312611,None,c,,,,,,,,,,,,,,,,,,,,,,,,,,,,,,,,,,,,,,,,,,,,,,,19_20Exp,001,2021_Apr_30_1054,ComputerHuman,2020.1.3,60.04474294477289,
Computer.xlsx,c,Sychronize.jpg,Number9.jpg,9,Computer,,,,,0,1,1,7,0,5,5,6,,,,,,,,,,,,,,,,,,,,,,,,,,,,,568.5398846685962,None,568.5398846685962,None,568.9898362476265,None,568.9898362476265,None,v,7.398058542058607,568.9898362476265,None,t,6.709003285055587,568.9898362476265,None,7.398058542058607,6.709003285055587,9.229842692635797,False,False,False,576.455914784226,None,576.455914784226,None,576.455914784226,None,576.455914784226,None,576.455914784226,None,576.455914784226,None,576.455914784226,None,576.455914784226,None,577.4706518241987,None,577.4706518241987,None,578.4537543653455,None,578.4537543653455,None,c,,,,,,,,,,,,,,,,,,,,,,,,,,,,,,,,,,,,,,,,,,,,,,,19_20Exp,001,2021_Apr_30_1054,ComputerHuman,2020.1.3,60.04474294477289,
Computer.xlsx,c,Sychronize.jpg,Number8.jpg,8,Computer,,,,,0,1,1,7,0,6,6,4,,,,,,,,,,,,,,,,,,,,,,,,,,,,,579.5198609376698,None,579.5198609376698,None,579.953948273766,None,579.953948273766,None,v,6.448880511674361,579.953948273766,None,t,6.348041075866604,579.953948273766,None,6.448880511674361,6.348041075866604,8.225978474890676,False,False,False,586.470060636077,None,586.470060636077,None,586.470060636077,None,586.470060636077,None,586.470060636077,None,586.470060636077,None,586.470060636077,None,586.470060636077,None,587.4848396975608,None,587.4848396975608,None,588.4845314328918,None,588.4845314328918,None,c,,,,,,,,,,,,,,,,,,,,,,,,,,,,,,,,,,,,,,,,,,,,,,,19_20Exp,001,2021_Apr_30_1054,ComputerHuman,2020.1.3,60.04474294477289,
Computer.xlsx,c,Sychronize.jpg,Number10.jpg,10,Computer,,,,,0,1,1,7,0,7,7,9,,,,,,,,,,,,,,,,,,,,,,,,,,,,,589.5342297280699,None,589.5342297280699,None,589.9843449022933,None,589.9843449022933,None,v,7.101591652924071,589.9843449022933,None,t,7.82493967026312,589.9843449022933,None,7.101591652924071,7.82493967026312,10.010798457682414,False,False,False,597.8988571111463,None,597.8988571111463,None,597.8988571111463,None,597.8988571111463,None,597.8988571111463,None,597.8988571111463,None,597.8988571111463,None,597.8988571111463,None,598.8819237255052,None,598.8819237255052,None,599.8649858490157,None,599.8649858490157,None,c,,,,,,,,,,,,,,,,,,,,,,,,,,,,,,,,,,,,,,,,,,,,,,,19_20Exp,001,2021_Apr_30_1054,ComputerHuman,2020.1.3,60.04474294477289,
Computer.xlsx,c,Sychronize.jpg,Number7.jpg,7,Computer,,,,,0,1,1,7,0,8,8,3,,,,,,,,,,,,,,,,,,,,,,,,,,,,,600.932043839663,None,600.932043839663,None,601.3653128790161,None,601.3653128790161,None,v,5.2398379316946375,601.3653128790161,None,t,8.242895878716809,601.3653128790161,None,5.2398379316946375,8.242895878716809,6.828550307697581,False,False,False,609.695810455401,None,609.695810455401,None,609.695810455401,None,609.695810455401,None,609.695810455401,None,609.695810455401,None,609.695810455401,None,609.695810455401,None,610.6955785351561,None,610.6955785351561,None,611.6786762646793,None,611.6786762646793,None,c,,,,,,,,,,,,,,,,,,,,,,,,,,,,,,,,,,,,,,,,,,,,,,,19_20Exp,001,2021_Apr_30_1054,ComputerHuman,2020.1.3,60.04474294477289,
Computer.xlsx,c,Sychronize.jpg,Number10.jpg,10,Computer,,,,,0,1,1,7,0,9,9,8,,,,,,,,,,,,,,,,,,,,,,,,,,,,,612.729088925536,None,612.729088925536,None,613.1789622354931,None,613.1789622354931,None,v,8.221035069997015,613.1789622354931,None,t,8.63189670022075,613.1789622354931,None,8.221035069997015,8.63189670022075,9.521087504491486,False,False,False,621.9092425189688,None,621.9092425189688,None,621.9092425189688,None,621.9092425189688,None,621.9092425189688,None,621.9092425189688,None,621.9092425189688,None,621.9092425189688,None,622.9091668160941,None,622.9091668160941,None,623.8922315058039,None,623.8922315058039,None,c,,,,,,,,,,,,,,,,,,,,,,,,,,,,,,,,,,,,,,,,,,,,,,,19_20Exp,001,2021_Apr_30_1054,ComputerHuman,2020.1.3,60.04474294477289,
Computer.xlsx,c,,,,,,,,,0,1,1,7,,,,,,,,,,,,,,,,,,,,,,,,,,,,,,,,,,,,,,,,,,,,,,,,,,,,,,,,,,,,,,,,,,,,,,,,,,,,,,,c,624.8927566142979,None,624.8927566142979,None,q,0,5.654382378423179,624.8927566142979,None,l,1,8.27389299783681,624.8927566142979,None,h,c,633.240288620415,None,633.240288620415,None,635.2392945390325,None,None,None,None,None,None,None,None,,,,,,,,,,,,,,,,,,19_20Exp,001,2021_Apr_30_1054,ComputerHuman,2020.1.3,60.04474294477289,
Computer.xlsx,c,Sychronize.jpg,Number7.jpg,7,Computer,,,,,0,2,2,5,0,0,0,2,,,,,,,,,,,,,,,,,,,,,,,,,640.2576832803466,None,640.2576832803466,None,643.3207254901522,None,643.3207254901522,None,643.7707742639745,None,643.7707742639745,None,v,6.050726699473671,643.7707742639745,None,t,6.114051511956859,643.7707742639745,None,6.050726699473671,6.114051511956859,7.349890552418955,False,False,False,649.9536974278021,None,649.9536974278021,None,649.9536974278021,None,649.9536974278021,None,649.9536974278021,None,649.9536974278021,None,649.9536974278021,None,649.9536974278021,None,650.9853640041179,None,650.9853640041179,None,651.9517503242237,None,651.9517503242237,None,c,,,,,,,,,,,,,,,,,,,,,,,,,,,,,,,,,,,,,,,,,,,,,,,19_20Exp,001,2021_Apr_30_1054,ComputerHuman,2020.1.3,60.04474294477289,
Computer.xlsx,c,Sychronize.jpg,Number7.jpg,7,Computer,,,,,0,2,2,5,0,1,1,3,,,,,,,,,,,,,,,,,,,,,,,,,,,,,653.001732184403,None,653.001732184403,None,653.4515686052487,None,653.4515686052487,None,v,5.069213277130075,653.4515686052487,None,t,6.1040343537079025,653.4515686052487,None,5.069213277130075,6.1040343537079025,7.1333808992246555,False,False,False,659.6346948195819,None,659.6346948195819,None,659.6346948195819,None,659.6346948195819,None,659.6346948195819,None,659.6346948195819,None,659.6346948195819,None,659.6346948195819,None,660.6496201544146,None,660.6496201544146,None,661.6326983166696,None,661.6326983166696,None,c,,,,,,,,,,,,,,,,,,,,,,,,,,,,,,,,,,,,,,,,,,,,,,,19_20Exp,001,2021_Apr_30_1054,ComputerHuman,2020.1.3,60.04474294477289,
Computer.xlsx,c,Sychronize.jpg,Number9.jpg,9,Computer,,,,,0,2,2,5,0,2,2,6,,,,,,,,,,,,,,,,,,,,,,,,,,,,,662.6825242802538,None,662.6825242802538,None,663.132781878528,None,663.132781878528,None,v,8.090898621982888,663.132781878528,None,t,8.78988314491562,663.132781878528,None,8.090898621982888,8.78988314491562,8.79384299338376,False,False,True,672.0133811245146,None,672.0133811245146,None,672.0133811245146,None,672.0133811245146,None,672.0133811245146,None,672.0133811245146,None,672.0133811245146,None,672.0133811245146,None,673.0131087866334,None,673.0131087866334,None,673.9962026668586,None,673.9962026668586,None,c,,,,,,,,,,,,,,,,,,,,,,,,,,,,,,,,,,,,,,,,,,,,,,,19_20Exp,001,2021_Apr_30_1054,ComputerHuman,2020.1.3,60.04474294477289,
Computer.xlsx,c,Sychronize.jpg,Number6.jpg,6,Computer,,,,,0,2,2,5,0,3,3,0,,,,,,,,,,,,,,,,,,,,,,,,,,,,,675.0459837219573,None,675.0459837219573,None,675.4960010598402,None,675.4960010598402,None,v,5.162874733235185,675.4960010598402,None,t,5.67812838116788,675.4960010598402,None,5.162874733235185,5.67812838116788,6.157195998588914,False,False,False,681.2610559075351,None,681.2610559075351,None,681.2610559075351,None,681.2610559075351,None,681.2610559075351,None,681.2610559075351,None,681.2610559075351,None,681.2610559075351,None,682.2440718394614,None,682.2440718394614,None,683.2271987594991,None,683.2271987594991,None,c,,,,,,,,,,,,,,,,,,,,,,,,,,,,,,,,,,,,,,,,,,,,,,,19_20Exp,001,2021_Apr_30_1054,ComputerHuman,2020.1.3,60.04474294477289,
Computer.xlsx,c,Sychronize.jpg,Number8.jpg,8,Computer,,,,,0,2,2,5,0,4,4,5,,,,,,,,,,,,,,,,,,,,,,,,,,,,,684.2939943562865,None,684.2939943562865,None,684.7270738176799,None,684.7270738176799,None,v,7.558815198699449,684.7270738176799,None,t,7.445984555972245,684.7270738176799,None,7.558815198699449,7.445984555972245,7.823708038025313,False,True,False,692.3591386039429,None,692.3591386039429,None,692.3591386039429,None,692.3591386039429,None,692.3591386039429,None,692.3591386039429,None,692.3591386039429,None,692.3591386039429,None,693.3745159105952,None,693.3745159105952,None,694.357765045866,None,694.357765045866,None,c,,,,,,,,,,,,,,,,,,,,,,,,,,,,,,,,,,,,,,,,,,,,,,,19_20Exp,001,2021_Apr_30_1054,ComputerHuman,2020.1.3,60.04474294477289,
Computer.xlsx,c,Sychronize.jpg,Number8.jpg,8,Computer,,,,,0,2,2,5,0,5,5,4,,,,,,,,,,,,,,,,,,,,,,,,,,,,,695.4079483526771,None,695.4079483526771,None,695.857969539858,None,695.857969539858,None,v,6.539095562367947,695.857969539858,None,t,8.565876737116014,695.857969539858,None,6.539095562367947,8.565876737116014,8.3174620531467,False,False,True,704.5217615288907,None,704.5217615288907,None,704.5217615288907,None,704.5217615288907,None,704.5217615288907,None,704.5217615288907,None,704.5217615288907,None,704.5217615288907,None,705.5215543083118,None,705.5215543083118,None,706.5046603779824,None,706.5046603779824,None,c,,,,,,,,,,,,,,,,,,,,,,,,,,,,,,,,,,,,,,,,,,,,,,,19_20Exp,001,2021_Apr_30_1054,ComputerHuman,2020.1.3,60.04474294477289,
Computer.xlsx,c,Sychronize.jpg,Number10.jpg,10,Computer,,,,,0,2,2,5,0,6,6,8,,,,,,,,,,,,,,,,,,,,,,,,,,,,,707.5545841779071,None,707.5545841779071,None,708.0048789860689,None,708.0048789860689,None,v,9.058935008119988,708.0048789860689,None,t,9.91774786516271,708.0048789860689,None,9.058935008119988,9.91774786516271,10.438286217732966,False,False,False,718.0183743064449,None,718.0183743064449,None,718.0183743064449,None,718.0183743064449,None,718.0183743064449,None,718.0183743064449,None,718.0183743064449,None,718.0183743064449,None,719.0013283288176,None,719.0013283288176,None,719.9845835588117,None,719.9845835588117,None,c,,,,,,,,,,,,,,,,,,,,,,,,,,,,,,,,,,,,,,,,,,,,,,,19_20Exp,001,2021_Apr_30_1054,ComputerHuman,2020.1.3,60.04474294477289,
Computer.xlsx,c,Sychronize.jpg,Number9.jpg,9,Computer,,,,,0,2,2,5,0,7,7,7,,,,,,,,,,,,,,,,,,,,,,,,,,,,,721.0680886403666,None,721.0680886403666,None,721.4848008837994,None,721.4848008837994,None,v,7.414036339303493,721.4848008837994,None,t,8.848838041079034,721.4848008837994,None,7.414036339303493,8.848838041079034,8.911470997430927,False,False,True,730.4169104823136,None,730.4169104823136,None,730.4169104823136,None,730.4169104823136,None,730.4169104823136,None,730.4169104823136,None,730.4169104823136,None,730.4169104823136,None,731.4316459184124,None,731.4316459184124,None,732.3981990414609,None,732.3981990414609,None,c,,,,,,,,,,,,,,,,,,,,,,,,,,,,,,,,,,,,,,,,,,,,,,,19_20Exp,001,2021_Apr_30_1054,ComputerHuman,2020.1.3,60.04474294477289,
Computer.xlsx,c,Sychronize.jpg,Number10.jpg,10,Computer,,,,,0,2,2,5,0,8,8,9,,,,,,,,,,,,,,,,,,,,,,,,,,,,,733.46504532068,None,733.46504532068,None,733.8980150770617,None,733.8980150770617,None,v,7.847761841324427,733.8980150770617,None,t,9.48680027368573,733.8980150770617,None,7.847761841324427,9.48680027368573,9.789972975035958,False,False,False,743.478664139388,None,743.478664139388,None,743.478664139388,None,743.478664139388,None,743.478664139388,None,743.478664139388,None,743.478664139388,None,743.478664139388,None,744.4783144947592,None,744.4783144947592,None,745.4614869648317,None,745.4614869648317,None,c,,,,,,,,,,,,,,,,,,,,,,,,,,,,,,,,,,,,,,,,,,,,,,,19_20Exp,001,2021_Apr_30_1054,ComputerHuman,2020.1.3,60.04474294477289,
Computer.xlsx,c,Sychronize.jpg,Number6.jpg,6,Computer,,,,,0,2,2,5,0,9,9,1,,,,,,,,,,,,,,,,,,,,,,,,,,,,,746.5119089281593,None,746.5119089281593,None,746.9616991574208,None,746.9616991574208,None,v,4.571183636888236,746.9616991574208,None,t,5.4101193571286785,746.9616991574208,None,4.571183636888236,5.4101193571286785,6.412171704850373,False,False,False,752.4597079472946,None,752.4597079472946,None,752.4597079472946,None,752.4597079472946,None,752.4597079472946,None,752.4597079472946,None,752.4597079472946,None,752.4597079472946,None,753.4427716746791,None,753.4427716746791,None,754.4258661964536,None,754.4258661964536,None,c,,,,,,,,,,,,,,,,,,,,,,,,,,,,,,,,,,,,,,,,,,,,,,,19_20Exp,001,2021_Apr_30_1054,ComputerHuman,2020.1.3,60.04474294477289,
Computer.xlsx,c,,,,,,,,,0,2,2,5,,,,,,,,,,,,,,,,,,,,,,,,,,,,,,,,,,,,,,,,,,,,,,,,,,,,,,,,,,,,,,,,,,,,,,,,,,,,,,,c,755.4428945314617,None,755.4428945314617,None,q,0,7.86100342876216,755.4428945314617,None,l,0,1.9044321787250738,755.4428945314617,None,h,c,763.3737652973537,None,763.3737652973537,None,765.3730798014144,None,None,None,None,None,None,None,None,,,,,,,,,,,,,,,,,,19_20Exp,001,2021_Apr_30_1054,ComputerHuman,2020.1.3,60.04474294477289,
Human.xlsx,h,Sychronize.jpg,Number8.jpg,8,Human,,,,,0,3,3,4,0,0,0,4,,,,,,,,,,,,,,,,,,,,,,,,,770.3747443023162,None,770.3747443023162,None,773.4714101360373,None,773.4714101360373,None,773.9045008245516,None,773.9045008245516,None,v,7.153884054633636,773.9045008245516,None,t,6.937025794471992,773.9045008245516,None,7.153884054633636,6.937025794471992,8.245536488651728,True,False,False,781.1523029552031,None,781.1523029552031,None,781.1523029552031,None,781.1523029552031,None,781.1523029552031,None,781.1523029552031,None,781.1523029552031,None,781.1523029552031,None,782.1544585624601,None,782.1544585624601,None,783.1352675631474,None,783.1352675631474,None,h,,,,,,,,,,,,,,,,,,,,,,,,,,,,,,,,,,,,,,,,,,,,,,,19_20Exp,001,2021_Apr_30_1054,ComputerHuman,2020.1.3,60.04474294477289,
Human.xlsx,h,Sychronize.jpg,Number6.jpg,6,Human,,,,,0,3,3,4,0,1,1,1,,,,,,,,,,,,,,,,,,,,,,,,,,,,,784.2028743996302,None,784.2028743996302,None,784.6352151164524,None,784.6352151164524,None,v,4.982490823432272,784.6352151164524,None,t,5.3421160428824805,784.6352151164524,None,4.982490823432272,5.3421160428824805,6.110275713269498,False,False,False,790.0518744320284,None,790.0518744320284,None,790.0518744320284,None,790.0518744320284,None,790.0518744320284,None,790.0518744320284,None,790.0518744320284,None,790.0518744320284,None,791.0522766837398,None,791.0522766837398,None,792.0496373479486,None,792.0496373479486,None,h,,,,,,,,,,,,,,,,,,,,,,,,,,,,,,,,,,,,,,,,,,,,,,,19_20Exp,001,2021_Apr_30_1054,ComputerHuman,2020.1.3,60.04474294477289,
Human.xlsx,h,Sychronize.jpg,Number7.jpg,7,Human,,,,,0,3,3,4,0,2,2,2,,,,,,,,,,,,,,,,,,,,,,,,,,,,,793.0994931435976,None,793.0994931435976,None,793.5496012607741,None,793.5496012607741,None,v,6.031353820797449,793.5496012607741,None,t,5.734198869525244,793.5496012607741,None,6.031353820797449,5.734198869525244,6.887243294943585,True,False,False,799.6643225506991,None,799.6643225506991,None,799.6643225506991,None,799.6643225506991,None,799.6643225506991,None,799.6643225506991,None,799.6643225506991,None,799.6643225506991,None,800.6328458731191,None,800.6328458731191,None,801.6306023735419,None,801.6306023735419,None,h,,,,,,,,,,,,,,,,,,,,,,,,,,,,,,,,,,,,,,,,,,,,,,,19_20Exp,001,2021_Apr_30_1054,ComputerHuman,2020.1.3,60.04474294477289,
Human.xlsx,h,Sychronize.jpg,Number9.jpg,9,Human,,,,,0,3,3,4,0,3,3,6,,,,,,,,,,,,,,,,,,,,,,,,,,,,,802.6807776609799,None,802.6807776609799,None,803.1307038987948,None,803.1307038987948,None,v,8.14116885878866,803.1307038987948,None,t,8.132896074389464,803.1307038987948,None,8.14116885878866,8.132896074389464,8.731829610300274,True,False,False,811.3613481013813,None,811.3613481013813,None,811.3613481013813,None,811.3613481013813,None,811.3613481013813,None,811.3613481013813,None,811.3613481013813,None,811.3613481013813,None,812.3632320123074,None,812.3632320123074,None,813.3609679831375,None,813.3609679831375,None,h,,,,,,,,,,,,,,,,,,,,,,,,,,,,,,,,,,,,,,,,,,,,,,,19_20Exp,001,2021_Apr_30_1054,ComputerHuman,2020.1.3,60.04474294477289,
Human.xlsx,h,Sychronize.jpg,Number10.jpg,10,Human,,,,,0,3,3,4,0,4,4,9,,,,,,,,,,,,,,,,,,,,,,,,,,,,,814.4113700584226,None,814.4113700584226,None,814.8442852830726,None,814.8442852830726,None,v,8.394572360559323,814.8442852830726,None,t,8.57387461743565,814.8442852830726,None,8.394572360559323,8.57387461743565,9.960257112593236,True,False,False,823.5083447983629,None,823.5083447983629,None,823.5083447983629,None,823.5083447983629,None,823.5083447983629,None,823.5083447983629,None,823.5083447983629,None,823.5083447983629,None,824.4931108780861,None,824.4931108780861,None,825.4911868702989,None,825.4911868702989,None,h,,,,,,,,,,,,,,,,,,,,,,,,,,,,,,,,,,,,,,,,,,,,,,,19_20Exp,001,2021_Apr_30_1054,ComputerHuman,2020.1.3,60.04474294477289,
Human.xlsx,h,Sychronize.jpg,Number6.jpg,6,Human,,,,,0,3,3,4,0,5,5,0,,,,,,,,,,,,,,,,,,,,,,,,,,,,,826.541838187673,None,826.541838187673,None,826.9909640921383,None,826.9909640921383,None,v,4.9951117114596855,826.9909640921383,None,t,4.602220532095089,826.9909640921383,None,4.9951117114596855,4.602220532095089,5.668651977384797,False,False,False,832.0727835016492,None,832.0727835016492,None,832.0727835016492,None,832.0727835016492,None,832.0727835016492,None,832.0727835016492,None,832.0727835016492,None,832.0727835016492,None,833.0421017042449,None,833.0421017042449,None,834.0390408702492,None,834.0390408702492,None,h,,,,,,,,,,,,,,,,,,,,,,,,,,,,,,,,,,,,,,,,,,,,,,,19_20Exp,001,2021_Apr_30_1054,ComputerHuman,2020.1.3,60.04474294477289,
Human.xlsx,h,Sychronize.jpg,Number10.jpg,10,Human,,,,,0,3,3,4,0,6,6,8,,,,,,,,,,,,,,,,,,,,,,,,,,,,,835.1064446562273,None,835.1064446562273,None,835.5388338100588,None,835.5388338100588,None,v,9.27419356390783,835.5388338100588,None,t,8.849803252721358,835.5388338100588,None,9.27419356390783,8.849803252721358,10.720734925463825,False,False,False,844.9028886099572,None,844.9028886099572,None,844.9028886099572,None,844.9028886099572,None,844.9028886099572,None,844.9028886099572,None,844.9028886099572,None,844.9028886099572,None,845.8875449846687,None,845.8875449846687,None,846.8857682125558,None,846.8857682125558,None,h,,,,,,,,,,,,,,,,,,,,,,,,,,,,,,,,,,,,,,,,,,,,,,,19_20Exp,001,2021_Apr_30_1054,ComputerHuman,2020.1.3,60.04474294477289,
Human.xlsx,h,Sychronize.jpg,Number7.jpg,7,Human,,,,,0,3,3,4,0,7,7,3,,,,,,,,,,,,,,,,,,,,,,,,,,,,,847.9203378016205,None,847.9203378016205,None,848.3692683541781,None,848.3692683541781,None,v,5.834932128845139,848.3692683541781,None,t,6.126087948134227,848.3692683541781,None,5.834932128845139,6.126087948134227,7.140945063881837,True,False,False,854.5671344954585,None,854.5671344954585,None,854.5671344954585,None,854.5671344954585,None,854.5671344954585,None,854.5671344954585,None,854.5671344954585,None,854.5671344954585,None,855.5691993234218,None,855.5691993234218,None,856.5665888573708,None,856.5665888573708,None,h,,,,,,,,,,,,,,,,,,,,,,,,,,,,,,,,,,,,,,,,,,,,,,,19_20Exp,001,2021_Apr_30_1054,ComputerHuman,2020.1.3,60.04474294477289,
Human.xlsx,h,Sychronize.jpg,Number9.jpg,9,Human,,,,,0,3,3,4,0,8,8,7,,,,,,,,,,,,,,,,,,,,,,,,,,,,,857.6167497099391,None,857.6167497099391,None,858.0668777151591,None,858.0668777151591,None,v,7.780393019809708,858.0668777151591,None,t,7.467931973910709,858.0668777151591,None,7.780393019809708,7.467931973910709,8.733109954688063,False,False,False,865.9309224106487,None,865.9309224106487,None,865.9309224106487,None,865.9309224106487,None,865.9309224106487,None,865.9309224106487,None,865.9309224106487,None,865.9309224106487,None,866.9002383678203,None,866.9002383678203,None,867.8971345499899,None,867.8971345499899,None,h,,,,,,,,,,,,,,,,,,,,,,,,,,,,,,,,,,,,,,,,,,,,,,,19_20Exp,001,2021_Apr_30_1054,ComputerHuman,2020.1.3,60.04474294477289,
Human.xlsx,h,Sychronize.jpg,Number8.jpg,8,Human,,,,,0,3,3,4,0,9,9,5,,,,,,,,,,,,,,,,,,,,,,,,,,,,,868.9475555509939,None,868.9475555509939,None,869.3973473841293,None,869.3973473841293,None,v,7.296955108516158,869.3973473841293,None,t,6.9319601174165655,869.3973473841293,None,7.296955108516158,6.9319601174165655,8.405637013197516,False,False,False,876.7781074987229,None,876.7781074987229,None,876.7781074987229,None,876.7781074987229,None,876.7781074987229,None,876.7781074987229,None,876.7781074987229,None,876.7781074987229,None,877.7632235438509,None,877.7632235438509,None,878.7613906361316,None,878.7613906361316,None,h,,,,,,,,,,,,,,,,,,,,,,,,,,,,,,,,,,,,,,,,,,,,,,,19_20Exp,001,2021_Apr_30_1054,ComputerHuman,2020.1.3,60.04474294477289,
Human.xlsx,h,,,,,,,,,0,3,3,4,,,,,,,,,,,,,,,,,,,,,,,,,,,,,,,,,,,,,,,,,,,,,,,,,,,,,,,,,,,,,,,,,,,,,,,,,,,,,,,h,879.7616299341994,None,879.7616299341994,None,a,0,5.127970575961626,879.7616299341994,None,o,0,1.8274211848083723,879.7616299341994,None,c,h,884.9767268194432,None,884.9767268194432,None,886.9589404933708,None,None,None,None,None,None,None,None,,,,,,,,,,,,,,,,,,19_20Exp,001,2021_Apr_30_1054,ComputerHuman,2020.1.3,60.04474294477289,
Computer.xlsx,c,Sychronize.jpg,Number8.jpg,8,Computer,,,,,0,4,4,1,0,0,0,4,,,,,,,,,,,,,,,,,,,,,,,,,891.977675671566,None,891.977675671566,None,895.0402909299942,None,895.0402909299942,None,895.490348043963,None,895.490348043963,None,v,7.017770608103092,895.490348043963,None,t,6.669022865155057,895.490348043963,None,7.017770608103092,6.669022865155057,8.422174124477008,False,False,False,902.6050965997542,None,902.6050965997542,None,902.6050965997542,None,902.6050965997542,None,902.6050965997542,None,902.6050965997542,None,902.6050965997542,None,902.6050965997542,None,903.6047216139082,None,903.6047216139082,None,904.5878456469723,None,904.5878456469723,None,c,,,,,,,,,,,,,,,,,,,,,,,,,,,,,,,,,,,,,,,,,,,,,,,19_20Exp,001,2021_Apr_30_1054,ComputerHuman,2020.1.3,60.04474294477289,
Computer.xlsx,c,Sychronize.jpg,Number10.jpg,10,Computer,,,,,0,4,4,1,0,1,1,8,,,,,,,,,,,,,,,,,,,,,,,,,,,,,905.6542726734119,None,905.6542726734119,None,906.1044885709512,None,906.1044885709512,None,v,9.598518789869559,906.1044885709512,None,t,9.345840560124088,906.1044885709512,None,9.598518789869559,9.345840560124088,10.025541382034582,False,False,False,915.8015920699313,None,915.8015920699313,None,915.8015920699313,None,915.8015920699313,None,915.8015920699313,None,915.8015920699313,None,915.8015920699313,None,915.8015920699313,None,916.7846019071353,None,916.7846019071353,None,917.7678619487529,None,917.7678619487529,None,c,,,,,,,,,,,,,,,,,,,,,,,,,,,,,,,,,,,,,,,,,,,,,,,19_20Exp,001,2021_Apr_30_1054,ComputerHuman,2020.1.3,60.04474294477289,
Computer.xlsx,c,Sychronize.jpg,Number6.jpg,6,Computer,,,,,0,4,4,1,0,2,2,1,,,,,,,,,,,,,,,,,,,,,,,,,,,,,918.8180487840868,None,918.8180487840868,None,919.2835836072486,None,919.2835836072486,None,v,5.3786994567035435,919.2835836072486,None,t,5.4462325149615936,919.2835836072486,None,5.3786994567035435,5.4462325149615936,5.726519790365544,False,False,True,924.815971445903,None,924.815971445903,None,924.815971445903,None,924.815971445903,None,924.815971445903,None,924.815971445903,None,924.815971445903,None,924.815971445903,None,925.8155749681396,None,925.8155749681396,None,926.7988475199768,None,926.7988475199768,None,c,,,,,,,,,,,,,,,,,,,,,,,,,,,,,,,,,,,,,,,,,,,,,,,19_20Exp,001,2021_Apr_30_1054,ComputerHuman,2020.1.3,60.04474294477289,
Computer.xlsx,c,Sychronize.jpg,Number8.jpg,8,Computer,,,,,0,4,4,1,0,3,3,5,,,,,,,,,,,,,,,,,,,,,,,,,,,,,927.8493952270624,None,927.8493952270624,None,928.2992239493101,None,928.2992239493101,None,v,8.08606069509915,928.2992239493101,None,t,7.032989131184877,928.2992239493101,None,8.08606069509915,7.032989131184877,7.550101232420809,False,False,False,936.4796704102168,None,936.4796704102168,None,936.4796704102168,None,936.4796704102168,None,936.4796704102168,None,936.4796704102168,None,936.4796704102168,None,936.4796704102168,None,937.4629169792884,None,937.4629169792884,None,938.4625240300488,None,938.4625240300488,None,c,,,,,,,,,,,,,,,,,,,,,,,,,,,,,,,,,,,,,,,,,,,,,,,19_20Exp,001,2021_Apr_30_1054,ComputerHuman,2020.1.3,60.04474294477289,
Computer.xlsx,c,Sychronize.jpg,Number7.jpg,7,Computer,,,,,0,4,4,1,0,4,4,2,,,,,,,,,,,,,,,,,,,,,,,,,,,,,939.5128468739363,None,939.5128468739363,None,939.9624975661204,None,939.9624975661204,None,v,6.017966280785004,939.9624975661204,None,t,6.13709180994374,939.9624975661204,None,6.017966280785004,6.13709180994374,7.386275161910598,False,False,False,946.1786456306777,None,946.1786456306777,None,946.1786456306777,None,946.1786456306777,None,946.1786456306777,None,946.1786456306777,None,946.1786456306777,None,946.1786456306777,None,947.1936931807427,None,947.1936931807427,None,948.1602334727954,None,948.1602334727954,None,c,,,,,,,,,,,,,,,,,,,,,,,,,,,,,,,,,,,,,,,,,,,,,,,19_20Exp,001,2021_Apr_30_1054,ComputerHuman,2020.1.3,60.04474294477289,
Computer.xlsx,c,Sychronize.jpg,Number7.jpg,7,Computer,,,,,0,4,4,1,0,5,5,3,,,,,,,,,,,,,,,,,,,,,,,,,,,,,949.2098929542121,None,949.2098929542121,None,949.6601470239634,None,949.6601470239634,None,v,6.6714668490376425,949.6601470239634,None,t,6.831221084148638,949.6601470239634,None,6.6714668490376425,6.831221084148638,7.315117386100844,False,False,False,956.5598201864282,None,956.5598201864282,None,956.5598201864282,None,956.5598201864282,None,956.5598201864282,None,956.5598201864282,None,956.5598201864282,None,956.5598201864282,None,957.5743702146406,None,957.5743702146406,None,958.557491039956,None,958.557491039956,None,c,,,,,,,,,,,,,,,,,,,,,,,,,,,,,,,,,,,,,,,,,,,,,,,19_20Exp,001,2021_Apr_30_1054,ComputerHuman,2020.1.3,60.04474294477289,
Computer.xlsx,c,Sychronize.jpg,Number6.jpg,6,Computer,,,,,0,4,4,1,0,6,6,0,,,,,,,,,,,,,,,,,,,,,,,,,,,,,959.607706424255,None,959.607706424255,None,960.0573507009417,None,960.0573507009417,None,v,5.069673589095146,960.0573507009417,None,t,5.729105926604461,960.0573507009417,None,5.069673589095146,5.729105926604461,5.707125476525515,False,False,True,965.8568987932772,None,965.8568987932772,None,965.8568987932772,None,965.8568987932772,None,965.8568987932772,None,965.8568987932772,None,965.8568987932772,None,965.8568987932772,None,966.8553526583096,None,966.8553526583096,None,967.8384895223694,None,967.8384895223694,None,c,,,,,,,,,,,,,,,,,,,,,,,,,,,,,,,,,,,,,,,,,,,,,,,19_20Exp,001,2021_Apr_30_1054,ComputerHuman,2020.1.3,60.04474294477289,
Computer.xlsx,c,Sychronize.jpg,Number9.jpg,9,Computer,,,,,0,4,4,1,0,7,7,6,,,,,,,,,,,,,,,,,,,,,,,,,,,,,968.888131681942,None,968.888131681942,None,969.338624728985,None,969.338624728985,None,v,8.18717535576343,969.338624728985,None,t,8.394918155890991,969.338624728985,None,8.18717535576343,8.394918155890991,8.448733761347397,False,True,True,977.8191769493728,None,977.8191769493728,None,977.8191769493728,None,977.8191769493728,None,977.8191769493728,None,977.8191769493728,None,977.8191769493728,None,977.8191769493728,None,978.8184247322574,None,978.8184247322574,None,979.8020116434868,None,979.8020116434868,None,c,,,,,,,,,,,,,,,,,,,,,,,,,,,,,,,,,,,,,,,,,,,,,,,19_20Exp,001,2021_Apr_30_1054,ComputerHuman,2020.1.3,60.04474294477289,
Computer.xlsx,c,Sychronize.jpg,Number10.jpg,10,Computer,,,,,0,4,4,1,0,8,8,9,,,,,,,,,,,,,,,,,,,,,,,,,,,,,980.851864231387,None,980.851864231387,None,981.2856808334759,None,981.2856808334759,None,v,9.37109837492244,981.2856808334759,None,t,10.045918283880383,981.2856808334759,None,9.37109837492244,10.045918283880383,10.186384659448496,False,False,True,991.4158451889057,None,991.4158451889057,None,991.4158451889057,None,991.4158451889057,None,991.4158451889057,None,991.4158451889057,None,991.4158451889057,None,991.4158451889057,None,992.4155571330552,None,992.4155571330552,None,993.3987049034617,None,993.3987049034617,None,c,,,,,,,,,,,,,,,,,,,,,,,,,,,,,,,,,,,,,,,,,,,,,,,19_20Exp,001,2021_Apr_30_1054,ComputerHuman,2020.1.3,60.04474294477289,
Computer.xlsx,c,Sychronize.jpg,Number9.jpg,9,Computer,,,,,0,4,4,1,0,9,9,7,,,,,,,,,,,,,,,,,,,,,,,,,,,,,994.4487316721256,None,994.4487316721256,None,994.8988446009257,None,994.8988446009257,None,v,8.232783771100003,994.8988446009257,None,t,8.775873943167426,994.8988446009257,None,8.232783771100003,8.775873943167426,8.8149997850319,False,False,True,1003.7307989764718,None,1003.7307989764718,None,1003.7307989764718,None,1003.7307989764718,None,1003.7307989764718,None,1003.7307989764718,None,1003.7307989764718,None,1003.7307989764718,None,1004.7458468473119,None,1004.7458468473119,None,1005.7455802833788,None,1005.7455802833788,None,c,,,,,,,,,,,,,,,,,,,,,,,,,,,,,,,,,,,,,,,,,,,,,,,19_20Exp,001,2021_Apr_30_1054,ComputerHuman,2020.1.3,60.04474294477289,
Computer.xlsx,c,,,,,,,,,0,4,4,1,,,,,,,,,,,,,,,,,,,,,,,,,,,,,,,,,,,,,,,,,,,,,,,,,,,,,,,,,,,,,,,,,,,,,,,,,,,,,,,c,1006.7458988128442,None,1006.7458988128442,None,q,0,2.865170294577183,1006.7458988128442,None,l,0,1.904396251938124,1006.7458988128442,None,h,c,1009.6952208711541,None,1009.6952208711541,None,None,None,1011.6940683269763,None,1011.6940683269763,None,"['space', 'space']",1012.6771798498198,None,"[16.480232087048535, 26.139409087745662]",,,,,,,,,,,,,,,,,19_20Exp,001,2021_Apr_30_1054,ComputerHuman,2020.1.3,60.04474294477289,
Human.xlsx,h,Sychronize.jpg,Number8.jpg,8,Human,,,,,0,5,5,2,0,0,0,4,,,,,,,,,,,,,,,,,,,,,,,,,1038.8731473245293,None,1038.8731473245293,None,1041.9536034407597,None,1041.9536034407597,None,1042.3867499441053,None,1042.3867499441053,None,v,7.8809344557457734,1042.3867499441053,None,t,7.799917625008675,1042.3867499441053,None,7.8809344557457734,7.799917625008675,7.624699906547211,True,False,False,1050.3359035955978,None,1050.3359035955978,None,1050.3359035955978,None,1050.3359035955978,None,1050.3359035955978,None,1050.3359035955978,None,1050.3359035955978,None,1050.3359035955978,None,1051.3521822796897,None,1051.3521822796897,None,1052.3337717256823,None,1052.3337717256823,None,h,,,,,,,,,,,,,,,,,,,,,,,,,,,,,,,,,,,,,,,,,,,,,,,19_20Exp,001,2021_Apr_30_1054,ComputerHuman,2020.1.3,60.04474294477289,
Human.xlsx,h,Sychronize.jpg,Number10.jpg,10,Human,,,,,0,5,5,2,0,1,1,8,,,,,,,,,,,,,,,,,,,,,,,,,,,,,1053.4006468746425,None,1053.4006468746425,None,1053.8335390035004,None,1053.8335390035004,None,v,9.532988008472785,1053.8335390035004,None,t,10.107714924789434,1053.8335390035004,None,9.532988008472785,10.107714924789434,9.846999617458096,False,False,False,1064.0308222968065,None,1064.0308222968065,None,1064.0308222968065,None,1064.0308222968065,None,1064.0308222968065,None,1064.0308222968065,None,1064.0308222968065,None,1064.0308222968065,None,1065.0164875085452,None,1065.0164875085452,None,1065.9969013145678,None,1065.9969013145678,None,h,,,,,,,,,,,,,,,,,,,,,,,,,,,,,,,,,,,,,,,,,,,,,,,19_20Exp,001,2021_Apr_30_1054,ComputerHuman,2020.1.3,60.04474294477289,
Human.xlsx,h,Sychronize.jpg,Number8.jpg,8,Human,,,,,0,5,5,2,0,2,2,5,,,,,,,,,,,,,,,,,,,,,,,,,,,,,1067.063955135141,None,1067.063955135141,None,1067.4967475030085,None,1067.4967475030085,None,v,6.989068633315583,1067.4967475030085,None,t,6.760020606579019,1067.4967475030085,None,6.989068633315583,6.760020606579019,7.557065934837432,True,False,False,1074.5627276900263,None,1074.5627276900263,None,1074.5627276900263,None,1074.5627276900263,None,1074.5627276900263,None,1074.5627276900263,None,1074.5627276900263,None,1074.5627276900263,None,1075.5635026821597,None,1075.5635026821597,None,1076.5609598996102,None,1076.5609598996102,None,h,,,,,,,,,,,,,,,,,,,,,,,,,,,,,,,,,,,,,,,,,,,,,,,19_20Exp,001,2021_Apr_30_1054,ComputerHuman,2020.1.3,60.04474294477289,
Human.xlsx,h,Sychronize.jpg,Number10.jpg,10,Human,,,,,0,5,5,2,0,3,3,9,,,,,,,,,,,,,,,,,,,,,,,,,,,,,1077.5946646795733,None,1077.5946646795733,None,1078.060886281773,None,1078.060886281773,None,v,10.147545863591404,1078.060886281773,None,t,9.15484926627596,1078.060886281773,None,10.147545863591404,9.15484926627596,10.535915538672867,False,False,False,1088.259689406506,None,1088.259689406506,None,1088.259689406506,None,1088.259689406506,None,1088.259689406506,None,1088.259689406506,None,1088.259689406506,None,1088.259689406506,None,1089.2760736255354,None,1089.2760736255354,None,1090.274133899779,None,1090.274133899779,None,h,,,,,,,,,,,,,,,,,,,,,,,,,,,,,,,,,,,,,,,,,,,,,,,19_20Exp,001,2021_Apr_30_1054,ComputerHuman,2020.1.3,60.04474294477289,
Human.xlsx,h,Sychronize.jpg,Number9.jpg,9,Human,,,,,0,5,5,2,0,4,4,6,,,,,,,,,,,,,,,,,,,,,,,,,,,,,1091.3405724741147,None,1091.3405724741147,None,1091.7740464886215,None,1091.7740464886215,None,v,8.509389562177603,1091.7740464886215,None,t,7.292913024133668,1091.7740464886215,None,8.509389562177603,7.292913024133668,8.989156763917892,False,False,False,1100.3564963811782,None,1100.3564963811782,None,1100.3564963811782,None,1100.3564963811782,None,1100.3564963811782,None,1100.3564963811782,None,1100.3564963811782,None,1100.3564963811782,None,1101.3400685367628,None,1101.3400685367628,None,1102.3377672977063,None,1102.3377672977063,None,h,,,,,,,,,,,,,,,,,,,,,,,,,,,,,,,,,,,,,,,,,,,,,,,19_20Exp,001,2021_Apr_30_1054,ComputerHuman,2020.1.3,60.04474294477289,
Human.xlsx,h,Sychronize.jpg,Number6.jpg,6,Human,,,,,0,5,5,2,0,5,5,0,,,,,,,,,,,,,,,,,,,,,,,,,,,,,1103.3874335153946,None,1103.3874335153946,None,1103.8374893462637,None,1103.8374893462637,None,v,5.453196537811891,1103.8374893462637,None,t,5.528131155870142,1103.8374893462637,None,5.453196537811891,5.528131155870142,5.783519569802945,True,False,False,1109.4526743162928,None,1109.4526743162928,None,1109.4526743162928,None,1109.4526743162928,None,1109.4526743162928,None,1109.4526743162928,None,1109.4526743162928,None,1109.4526743162928,None,1110.438599355692,None,1110.438599355692,None,1111.4355256907006,None,1111.4355256907006,None,h,,,,,,,,,,,,,,,,,,,,,,,,,,,,,,,,,,,,,,,,,,,,,,,19_20Exp,001,2021_Apr_30_1054,ComputerHuman,2020.1.3,60.04474294477289,
Human.xlsx,h,Sychronize.jpg,Number6.jpg,6,Human,,,,,0,5,5,2,0,6,6,1,,,,,,,,,,,,,,,,,,,,,,,,,,,,,1112.4688099347836,None,1112.4688099347836,None,1112.9356958617795,None,1112.9356958617795,None,v,5.454199921666259,1112.9356958617795,None,t,5.4972296276664565,1112.9356958617795,None,5.454199921666259,5.4972296276664565,6.404866098279995,True,False,False,1118.5169697935912,None,1118.5169697935912,None,1118.5169697935912,None,1118.5169697935912,None,1118.5169697935912,None,1118.5169697935912,None,1118.5169697935912,None,1118.5169697935912,None,1119.4858212687227,None,1119.4858212687227,None,1120.4831424776207,None,1120.4831424776207,None,h,,,,,,,,,,,,,,,,,,,,,,,,,,,,,,,,,,,,,,,,,,,,,,,19_20Exp,001,2021_Apr_30_1054,ComputerHuman,2020.1.3,60.04474294477289,
Human.xlsx,h,Sychronize.jpg,Number9.jpg,9,Human,,,,,0,5,5,2,0,7,7,7,,,,,,,,,,,,,,,,,,,,,,,,,,,,,1121.5504394455597,None,1121.5504394455597,None,1122.0000195672687,None,1122.0000195672687,None,v,8.372877392459486,1122.0000195672687,None,t,8.687865823712855,1122.0000195672687,None,8.372877392459486,8.687865823712855,8.724612462060676,False,False,False,1130.7805534072554,None,1130.7805534072554,None,1130.7805534072554,None,1130.7805534072554,None,1130.7805534072554,None,1130.7805534072554,None,1130.7805534072554,None,1130.7805534072554,None,1131.7497647918121,None,1131.7497647918121,None,1132.7467475832023,None,1132.7467475832023,None,h,,,,,,,,,,,,,,,,,,,,,,,,,,,,,,,,,,,,,,,,,,,,,,,19_20Exp,001,2021_Apr_30_1054,ComputerHuman,2020.1.3,60.04474294477289,
Human.xlsx,h,Sychronize.jpg,Number7.jpg,7,Human,,,,,0,5,5,2,0,8,8,2,,,,,,,,,,,,,,,,,,,,,,,,,,,,,1133.7795304561328,None,1133.7795304561328,None,1134.2468548824022,None,1134.2468548824022,None,v,6.1531414607643455,1134.2468548824022,None,t,6.48404674203357,1134.2468548824022,None,6.1531414607643455,6.48404674203357,6.979673817928103,False,False,False,1140.827967464445,None,1140.827967464445,None,1140.827967464445,None,1140.827967464445,None,1140.827967464445,None,1140.827967464445,None,1140.827967464445,None,1140.827967464445,None,1141.8125167003432,None,1141.8125167003432,None,1142.8108637473374,None,1142.8108637473374,None,h,,,,,,,,,,,,,,,,,,,,,,,,,,,,,,,,,,,,,,,,,,,,,,,19_20Exp,001,2021_Apr_30_1054,ComputerHuman,2020.1.3,60.04474294477289,
Human.xlsx,h,Sychronize.jpg,Number7.jpg,7,Human,,,,,0,5,5,2,0,9,9,3,,,,,,,,,,,,,,,,,,,,,,,,,,,,,1143.8603868994255,None,1143.8603868994255,None,1144.311402167989,None,1144.311402167989,None,v,6.931682967911911,1144.311402167989,None,t,6.3830353708845,1144.311402167989,None,6.931682967911911,6.3830353708845,6.637583719432229,False,False,False,1151.3420441893072,None,1151.3420441893072,None,1151.3420441893072,None,1151.3420441893072,None,1151.3420441893072,None,1151.3420441893072,None,1151.3420441893072,None,1151.3420441893072,None,1152.310821886214,None,1152.310821886214,None,1153.3083054072063,None,1153.3083054072063,None,h,,,,,,,,,,,,,,,,,,,,,,,,,,,,,,,,,,,,,,,,,,,,,,,19_20Exp,001,2021_Apr_30_1054,ComputerHuman,2020.1.3,60.04474294477289,
Human.xlsx,h,,,,,,,,,0,5,5,2,,,,,,,,,,,,,,,,,,,,,,,,,,,,,,,,,,,,,,,,,,,,,,,,,,,,,,,,,,,,,,,,,,,,,,,,,,,,,,,h,1154.3093735875877,None,1154.3093735875877,None,a,0,3.5411841276736595,1154.3093735875877,None,l,0,2.096423969454918,1154.3093735875877,None,c,c,1157.9578020632885,None,1157.9578020632885,None,1159.9398059504388,None,None,None,None,None,None,None,None,,,,,,,,,,,,,,,,,,19_20Exp,001,2021_Apr_30_1054,ComputerHuman,2020.1.3,60.04474294477289,
Human.xlsx,h,Sychronize.jpg,Number6.jpg,6,Human,,,,,0,6,6,6,0,0,0,1,,,,,,,,,,,,,,,,,,,,,,,,,1164.9413828797956,None,1164.9413828797956,None,1168.0043968614104,None,1168.0043968614104,None,1168.4381910092575,None,1168.4381910092575,None,v,5.535016268098843,1168.4381910092575,None,t,5.0501980624549105,1168.4381910092575,None,5.535016268098843,5.0501980624549105,5.610805202604021,False,False,False,1174.0696184158146,None,1174.0696184158146,None,1174.0696184158146,None,1174.0696184158146,None,1174.0696184158146,None,1174.0696184158146,None,1174.0696184158146,None,1174.0696184158146,None,1175.0707392032787,None,1175.0707392032787,None,1176.069096194295,None,1176.069096194295,None,h,,,,,,,,,,,,,,,,,,,,,,,,,,,,,,,,,,,,,,,,,,,,,,,19_20Exp,001,2021_Apr_30_1054,ComputerHuman,2020.1.3,60.04474294477289,
Human.xlsx,h,Sychronize.jpg,Number8.jpg,8,Human,,,,,0,6,6,6,0,1,1,4,,,,,,,,,,,,,,,,,,,,,,,,,,,,,1177.1209770418204,None,1177.1209770418204,None,1177.5690007637654,None,1177.5690007637654,None,v,7.263310313458533,1177.5690007637654,None,t,6.970977571098956,1177.5690007637654,None,7.263310313458533,6.970977571098956,7.776151926701177,True,False,False,1184.9168144102346,None,1184.9168144102346,None,1184.9168144102346,None,1184.9168144102346,None,1184.9168144102346,None,1184.9168144102346,None,1184.9168144102346,None,1184.9168144102346,None,1185.884891214008,None,1185.884891214008,None,1186.883034568948,None,1186.883034568948,None,h,,,,,,,,,,,,,,,,,,,,,,,,,,,,,,,,,,,,,,,,,,,,,,,19_20Exp,001,2021_Apr_30_1054,ComputerHuman,2020.1.3,60.04474294477289,
Human.xlsx,h,Sychronize.jpg,Number6.jpg,6,Human,,,,,0,6,6,6,0,2,2,0,,,,,,,,,,,,,,,,,,,,,,,,,,,,,1187.9500178190451,None,1187.9500178190451,None,1188.3995998654032,None,1188.3995998654032,None,v,5.839877194541259,1188.3995998654032,None,t,4.903173778833661,1188.3995998654032,None,5.839877194541259,4.903173778833661,6.412767385727042,False,False,False,1194.3157874815038,None,1194.3157874815038,None,1194.3157874815038,None,1194.3157874815038,None,1194.3157874815038,None,1194.3157874815038,None,1194.3157874815038,None,1194.3157874815038,None,1195.316470732018,None,1195.316470732018,None,1196.313947837512,None,1196.313947837512,None,h,,,,,,,,,,,,,,,,,,,,,,,,,,,,,,,,,,,,,,,,,,,,,,,19_20Exp,001,2021_Apr_30_1054,ComputerHuman,2020.1.3,60.04474294477289,
Human.xlsx,h,Sychronize.jpg,Number10.jpg,10,Human,,,,,0,6,6,6,0,3,3,8,,,,,,,,,,,,,,,,,,,,,,,,,,,,,1197.3806260306897,None,1197.3806260306897,None,1197.7971162978988,None,1197.7971162978988,None,v,9.013326913558558,1197.7971162978988,None,t,9.192845051935365,1197.7971162978988,None,9.013326913558558,9.192845051935365,9.430514860928165,True,False,False,1207.0777978547217,None,1207.0777978547217,None,1207.0777978547217,None,1207.0777978547217,None,1207.0777978547217,None,1207.0777978547217,None,1207.0777978547217,None,1207.0777978547217,None,1208.063363626245,None,1208.063363626245,None,1209.0607637457656,None,1209.0607637457656,None,h,,,,,,,,,,,,,,,,,,,,,,,,,,,,,,,,,,,,,,,,,,,,,,,19_20Exp,001,2021_Apr_30_1054,ComputerHuman,2020.1.3,60.04474294477289,
Human.xlsx,h,Sychronize.jpg,Number7.jpg,7,Human,,,,,0,6,6,6,0,4,4,2,,,,,,,,,,,,,,,,,,,,,,,,,,,,,1210.1104864198346,None,1210.1104864198346,None,1210.560647464868,None,1210.560647464868,None,v,6.80517127614803,1210.560647464868,None,t,6.536025425900334,1210.560647464868,None,6.80517127614803,6.536025425900334,7.337732908953291,True,False,False,1217.4585634224882,None,1217.4585634224882,None,1217.4585634224882,None,1217.4585634224882,None,1217.4585634224882,None,1217.4585634224882,None,1217.4585634224882,None,1217.4585634224882,None,1218.42721024324,None,1218.42721024324,None,1219.424776844929,None,1219.424776844929,None,h,,,,,,,,,,,,,,,,,,,,,,,,,,,,,,,,,,,,,,,,,,,,,,,19_20Exp,001,2021_Apr_30_1054,ComputerHuman,2020.1.3,60.04474294477289,
Human.xlsx,h,Sychronize.jpg,Number9.jpg,9,Human,,,,,0,6,6,6,0,5,5,7,,,,,,,,,,,,,,,,,,,,,,,,,,,,,1220.492242861235,None,1220.492242861235,None,1220.9248077997058,None,1220.9248077997058,None,v,8.759715870433865,1220.9248077997058,None,t,8.718845620989669,1220.9248077997058,None,8.759715870433865,8.718845620989669,9.506435465462257,True,False,False,1229.772154558324,None,1229.772154558324,None,1229.772154558324,None,1229.772154558324,None,1229.772154558324,None,1229.772154558324,None,1229.772154558324,None,1229.772154558324,None,1230.7574621060608,None,1230.7574621060608,None,1231.7383666976643,None,1231.7383666976643,None,h,,,,,,,,,,,,,,,,,,,,,,,,,,,,,,,,,,,,,,,,,,,,,,,19_20Exp,001,2021_Apr_30_1054,ComputerHuman,2020.1.3,60.04474294477289,
Human.xlsx,h,Sychronize.jpg,Number7.jpg,7,Human,,,,,0,6,6,6,0,6,6,3,,,,,,,,,,,,,,,,,,,,,,,,,,,,,1232.788630839747,None,1232.788630839747,None,1233.238532377895,None,1233.238532377895,None,v,6.905331631514855,1233.238532377895,None,t,6.7999965356311804,1233.238532377895,None,6.905331631514855,6.7999965356311804,7.402947783539155,True,False,False,1240.2361663423103,None,1240.2361663423103,None,1240.2361663423103,None,1240.2361663423103,None,1240.2361663423103,None,1240.2361663423103,None,1240.2361663423103,None,1240.2361663423103,None,1241.221254800797,None,1241.221254800797,None,1242.2189561279397,None,1242.2189561279397,None,h,,,,,,,,,,,,,,,,,,,,,,,,,,,,,,,,,,,,,,,,,,,,,,,19_20Exp,001,2021_Apr_30_1054,ComputerHuman,2020.1.3,60.04474294477289,
Human.xlsx,h,Sychronize.jpg,Number8.jpg,8,Human,,,,,0,6,6,6,0,7,7,5,,,,,,,,,,,,,,,,,,,,,,,,,,,,,1243.26918338091,None,1243.26918338091,None,1243.7188914917992,None,1243.7188914917992,None,v,8.019730863452423,1243.7188914917992,None,t,7.822974924064511,1243.7188914917992,None,8.019730863452423,7.822974924064511,7.580796812960864,True,False,False,1251.8331014665505,None,1251.8331014665505,None,1251.8331014665505,None,1251.8331014665505,None,1251.8331014665505,None,1251.8331014665505,None,1251.8331014665505,None,1251.8331014665505,None,1252.801180515748,None,1252.801180515748,None,1253.7994316510508,None,1253.7994316510508,None,h,,,,,,,,,,,,,,,,,,,,,,,,,,,,,,,,,,,,,,,,,,,,,,,19_20Exp,001,2021_Apr_30_1054,ComputerHuman,2020.1.3,60.04474294477289,
Human.xlsx,h,Sychronize.jpg,Number10.jpg,10,Human,,,,,0,6,6,6,0,8,8,9,,,,,,,,,,,,,,,,,,,,,,,,,,,,,1254.8832517335481,None,1254.8832517335481,None,1255.3159979098314,None,1255.3159979098314,None,v,8.885535971535319,1255.3159979098314,None,t,9.452827325914768,1255.3159979098314,None,8.885535971535319,9.452827325914768,10.207280816157423,False,False,False,1264.8632841382273,None,1264.8632841382273,None,1264.8632841382273,None,1264.8632841382273,None,1264.8632841382273,None,1264.8632841382273,None,1264.8632841382273,None,1264.8632841382273,None,1265.8324525389494,None,1265.8324525389494,None,1266.8294468782346,None,1266.8294468782346,None,h,,,,,,,,,,,,,,,,,,,,,,,,,,,,,,,,,,,,,,,,,,,,,,,19_20Exp,001,2021_Apr_30_1054,ComputerHuman,2020.1.3,60.04474294477289,
Human.xlsx,h,Sychronize.jpg,Number9.jpg,9,Human,,,,,0,6,6,6,0,9,9,6,,,,,,,,,,,,,,,,,,,,,,,,,,,,,1267.8959255494315,None,1267.8959255494315,None,1268.3296401451057,None,1268.3296401451057,None,v,8.506907726858117,1268.3296401451057,None,t,7.921914410202589,1268.3296401451057,None,8.506907726858117,7.921914410202589,8.40233134965586,False,False,False,1276.893915573974,None,1276.893915573974,None,1276.893915573974,None,1276.893915573974,None,1276.893915573974,None,1276.893915573974,None,1276.893915573974,None,1276.893915573974,None,1277.9124047178288,None,1277.9124047178288,None,1278.9096659418224,None,1278.9096659418224,None,h,,,,,,,,,,,,,,,,,,,,,,,,,,,,,,,,,,,,,,,,,,,,,,,19_20Exp,001,2021_Apr_30_1054,ComputerHuman,2020.1.3,60.04474294477289,
Human.xlsx,h,,,,,,,,,0,6,6,6,,,,,,,,,,,,,,,,,,,,,,,,,,,,,,,,,,,,,,,,,,,,,,,,,,,,,,,,,,,,,,,,,,,,,,,,,,,,,,,h,1279.9109272286883,None,1279.9109272286883,None,q,1,4.312932905761954,1279.9109272286883,None,l,0,1.476522967001074,1279.9109272286883,None,h,c,1284.3085058915117,None,1284.3085058915117,None,1286.2914509321877,None,None,None,None,None,None,None,None,,,,,,,,,,,,,,,,,,19_20Exp,001,2021_Apr_30_1054,ComputerHuman,2020.1.3,60.04474294477289,
Human.xlsx,h,Sychronize.jpg,Number10.jpg,10,Human,,,,,0,7,7,8,0,0,0,9,,,,,,,,,,,,,,,,,,,,,,,,,1291.3099930039002,None,1291.3099930039002,None,1294.3730708197177,None,1294.3730708197177,None,1294.822474515237,None,1294.822474515237,None,v,9.571922702233678,1294.822474515237,None,t,8.746874930832746,1294.822474515237,None,9.571922702233678,8.746874930832746,10.61446787036784,False,False,False,1304.4865779766865,None,1304.4865779766865,None,1304.4865779766865,None,1304.4865779766865,None,1304.4865779766865,None,1304.4865779766865,None,1304.4865779766865,None,1304.4865779766865,None,1305.48913615643,None,1305.48913615643,None,1306.4860602460153,None,1306.4860602460153,None,h,,,,,,,,,,,,,,,,,,,,,,,,,,,,,,,,,,,,,,,,,,,,,,,19_20Exp,001,2021_Apr_30_1054,ComputerHuman,2020.1.3,60.04474294477289,
Human.xlsx,h,Sychronize.jpg,Number6.jpg,6,Human,,,,,0,7,7,8,0,1,1,0,,,,,,,,,,,,,,,,,,,,,,,,,,,,,1307.5363231049982,None,1307.5363231049982,None,1307.9863016291197,None,1307.9863016291197,None,v,5.3393304337423615,1307.9863016291197,None,t,4.81019108239434,1307.9863016291197,None,5.3393304337423615,4.81019108239434,5.865283160668146,False,False,False,1313.4177512332994,None,1313.4177512332994,None,1313.4177512332994,None,1313.4177512332994,None,1313.4177512332994,None,1313.4177512332994,None,1313.4177512332994,None,1313.4177512332994,None,1314.3859550639286,None,1314.3859550639286,None,1315.3838007397712,None,1315.3838007397712,None,h,,,,,,,,,,,,,,,,,,,,,,,,,,,,,,,,,,,,,,,,,,,,,,,19_20Exp,001,2021_Apr_30_1054,ComputerHuman,2020.1.3,60.04474294477289,
Human.xlsx,h,Sychronize.jpg,Number7.jpg,7,Human,,,,,0,7,7,8,0,2,2,2,,,,,,,,,,,,,,,,,,,,,,,,,,,,,1316.4341742660913,None,1316.4341742660913,None,1316.8836424373635,None,1316.8836424373635,None,v,6.480906676641098,1316.8836424373635,None,t,6.828032260971668,1316.8836424373635,None,6.480906676641098,6.828032260971668,6.749453685580266,False,False,False,1323.7982322737394,None,1323.7982322737394,None,1323.7982322737394,None,1323.7982322737394,None,1323.7982322737394,None,1323.7982322737394,None,1323.7982322737394,None,1323.7982322737394,None,1324.78315168386,None,1324.78315168386,None,1325.7811798806138,None,1325.7811798806138,None,h,,,,,,,,,,,,,,,,,,,,,,,,,,,,,,,,,,,,,,,,,,,,,,,19_20Exp,001,2021_Apr_30_1054,ComputerHuman,2020.1.3,60.04474294477289,
Human.xlsx,h,Sychronize.jpg,Number6.jpg,6,Human,,,,,0,7,7,8,0,3,3,1,,,,,,,,,,,,,,,,,,,,,,,,,,,,,1326.8307017496022,None,1326.8307017496022,None,1327.2811941550967,None,1327.2811941550967,None,v,5.90271892004057,1327.2811941550967,None,t,4.9821661992446025,1327.2811941550967,None,5.90271892004057,4.9821661992446025,5.725882393769384,False,False,False,1333.2639624488088,None,1333.2639624488088,None,1333.2639624488088,None,1333.2639624488088,None,1333.2639624488088,None,1333.2639624488088,None,1333.2639624488088,None,1333.2639624488088,None,1334.2473228929662,None,1334.2473228929662,None,1335.2454838905246,None,1335.2454838905246,None,h,,,,,,,,,,,,,,,,,,,,,,,,,,,,,,,,,,,,,,,,,,,,,,,19_20Exp,001,2021_Apr_30_1054,ComputerHuman,2020.1.3,60.04474294477289,
Human.xlsx,h,Sychronize.jpg,Number9.jpg,9,Human,,,,,0,7,7,8,0,4,4,7,,,,,,,,,,,,,,,,,,,,,,,,,,,,,1336.2951112944515,None,1336.2951112944515,None,1336.7456717042228,None,1336.7456717042228,None,v,6.533172454033775,1336.7456717042228,None,t,7.2080379130256915,1336.7456717042228,None,6.533172454033775,7.2080379130256915,8.8075703245597,False,False,False,1344.0432080568385,None,1344.0432080568385,None,1344.0432080568385,None,1344.0432080568385,None,1344.0432080568385,None,1344.0432080568385,None,1344.0432080568385,None,1344.0432080568385,None,1345.0287536195442,None,1345.0287536195442,None,1346.0260783569652,None,1346.0260783569652,None,h,,,,,,,,,,,,,,,,,,,,,,,,,,,,,,,,,,,,,,,,,,,,,,,19_20Exp,001,2021_Apr_30_1054,ComputerHuman,2020.1.3,60.04474294477289,
Human.xlsx,h,Sychronize.jpg,Number8.jpg,8,Human,,,,,0,7,7,8,0,5,5,5,,,,,,,,,,,,,,,,,,,,,,,,,,,,,1347.0759412096618,None,1347.0759412096618,None,1347.5095117774104,None,1347.5095117774104,None,v,6.084455537553367,1347.5095117774104,None,t,6.412015136725131,1347.5095117774104,None,6.084455537553367,6.412015136725131,8.507689097367205,False,False,False,1353.9919867224858,None,1353.9919867224858,None,1353.9919867224858,None,1353.9919867224858,None,1353.9919867224858,None,1353.9919867224858,None,1353.9919867224858,None,1353.9919867224858,None,1354.9758357068,None,1354.9758357068,None,1355.990194873953,None,1355.990194873953,None,h,,,,,,,,,,,,,,,,,,,,,,,,,,,,,,,,,,,,,,,,,,,,,,,19_20Exp,001,2021_Apr_30_1054,ComputerHuman,2020.1.3,60.04474294477289,
Human.xlsx,h,Sychronize.jpg,Number10.jpg,10,Human,,,,,0,7,7,8,0,6,6,8,,,,,,,,,,,,,,,,,,,,,,,,,,,,,1357.0404073712784,None,1357.0404073712784,None,1357.4900564595887,None,1357.4900564595887,None,v,8.439130238133657,1357.4900564595887,None,t,7.114008848896447,1357.4900564595887,None,8.439130238133657,7.114008848896447,10.732974398755998,False,False,False,1366.0210017735649,None,1366.0210017735649,None,1366.0210017735649,None,1366.0210017735649,None,1366.0210017735649,None,1366.0210017735649,None,1366.0210017735649,None,1366.0210017735649,None,1366.9900710548459,None,1366.9900710548459,None,1367.9872094220568,None,1367.9872094220568,None,h,,,,,,,,,,,,,,,,,,,,,,,,,,,,,,,,,,,,,,,,,,,,,,,19_20Exp,001,2021_Apr_30_1054,ComputerHuman,2020.1.3,60.04474294477289,
Human.xlsx,h,Sychronize.jpg,Number8.jpg,8,Human,,,,,0,7,7,8,0,7,7,4,,,,,,,,,,,,,,,,,,,,,,,,,,,,,1369.0373824640706,None,1369.0373824640706,None,1369.4870119851125,None,1369.4870119851125,None,v,6.901054419139655,1369.4870119851125,None,t,5.73608021425207,1369.4870119851125,None,6.901054419139655,5.73608021425207,7.472064945398679,False,False,False,1376.485022860023,None,1376.485022860023,None,1376.485022860023,None,1376.485022860023,None,1376.485022860023,None,1376.485022860023,None,1376.485022860023,None,1376.485022860023,None,1377.469733124915,None,1377.469733124915,None,1378.4678354206694,None,1378.4678354206694,None,h,,,,,,,,,,,,,,,,,,,,,,,,,,,,,,,,,,,,,,,,,,,,,,,19_20Exp,001,2021_Apr_30_1054,ComputerHuman,2020.1.3,60.04474294477289,
Human.xlsx,h,Sychronize.jpg,Number9.jpg,9,Human,,,,,0,7,7,8,0,8,8,6,,,,,,,,,,,,,,,,,,,,,,,,,,,,,1379.5173957826441,None,1379.5173957826441,None,1379.9680934840676,None,1379.9680934840676,None,v,7.231093287432486,1379.9680934840676,None,t,7.017985527279052,1379.9680934840676,None,7.231093287432486,7.017985527279052,9.0886812193194,True,False,False,1387.2494938974182,None,1387.2494938974182,None,1387.2494938974182,None,1387.2494938974182,None,1387.2494938974182,None,1387.2494938974182,None,1387.2494938974182,None,1387.2494938974182,None,1388.2508552660488,None,1388.2508552660488,None,1389.2651037658657,None,1389.2651037658657,None,h,,,,,,,,,,,,,,,,,,,,,,,,,,,,,,,,,,,,,,,,,,,,,,,19_20Exp,001,2021_Apr_30_1054,ComputerHuman,2020.1.3,60.04474294477289,
Human.xlsx,h,Sychronize.jpg,Number7.jpg,7,Human,,,,,0,7,7,8,0,9,9,3,,,,,,,,,,,,,,,,,,,,,,,,,,,,,1390.3153752857702,None,1390.3153752857702,None,1390.7652970327358,None,1390.7652970327358,None,v,5.729059093470823,1390.7652970327358,None,t,5.988211522811071,1390.7652970327358,None,5.729059093470823,5.988211522811071,6.931001286734114,True,False,False,1396.8313872455415,None,1396.8313872455415,None,1396.8313872455415,None,1396.8313872455415,None,1396.8313872455415,None,1396.8313872455415,None,1396.8313872455415,None,1396.8313872455415,None,1397.8323713829027,None,1397.8323713829027,None,1398.812714297675,None,1398.812714297675,None,h,,,,,,,,,,,,,,,,,,,,,,,,,,,,,,,,,,,,,,,,,,,,,,,19_20Exp,001,2021_Apr_30_1054,ComputerHuman,2020.1.3,60.04474294477289,
Human.xlsx,h,,,,,,,,,0,7,7,8,,,,,,,,,,,,,,,,,,,,,,,,,,,,,,,,,,,,,,,,,,,,,,,,,,,,,,,,,,,,,,,,,,,,,,,,,,,,,,,h,1399.813631072309,None,1399.813631072309,None,q,1,5.02802032814634,1399.813631072309,None,o,0,1.5434879329295654,1399.813631072309,None,h,h,1404.945042279734,None,1404.945042279734,None,1406.9272784079044,None,None,None,None,None,None,None,None,,,,,,,,,,,,,,,,,,19_20Exp,001,2021_Apr_30_1054,ComputerHuman,2020.1.3,60.04474294477289,
Human.xlsx,h,Sychronize.jpg,Number10.jpg,10,Human,,,,,0,8,8,0,0,0,0,9,,,,,,,,,,,,,,,,,,,,,,,,,1411.9283209262953,None,1411.9283209262953,None,1414.9922523240944,None,1414.9922523240944,None,1415.4253943365916,None,1415.4253943365916,None,v,8.498677926293567,1415.4253943365916,None,t,8.437981864029098,1415.4253943365916,None,8.498677926293567,8.437981864029098,9.811802395035754,True,False,False,1424.0227512798115,None,1424.0227512798115,None,1424.0227512798115,None,1424.0227512798115,None,1424.0227512798115,None,1424.0227512798115,None,1424.0227512798115,None,1424.0227512798115,None,1425.0249242089135,None,1425.0249242089135,None,1426.0224359580957,None,1426.0224359580957,None,h,,,,,,,,,,,,,,,,,,,,,,,,,,,,,,,,,,,,,,,,,,,,,,,19_20Exp,001,2021_Apr_30_1054,ComputerHuman,2020.1.3,60.04474294477289,
Human.xlsx,h,Sychronize.jpg,Number6.jpg,6,Human,,,,,0,8,8,0,0,1,1,1,,,,,,,,,,,,,,,,,,,,,,,,,,,,,1427.0895805579626,None,1427.0895805579626,None,1427.5224078902925,None,1427.5224078902925,None,v,4.624926261873043,1427.5224078902925,None,t,5.968077445322706,1427.5224078902925,None,4.624926261873043,5.968077445322706,5.775492703111947,False,False,False,1433.5873266332014,None,1433.5873266332014,None,1433.5873266332014,None,1433.5873266332014,None,1433.5873266332014,None,1433.5873266332014,None,1433.5873266332014,None,1433.5873266332014,None,1434.555849314071,None,1434.555849314071,None,1435.5534236143571,None,1435.5534236143571,None,h,,,,,,,,,,,,,,,,,,,,,,,,,,,,,,,,,,,,,,,,,,,,,,,19_20Exp,001,2021_Apr_30_1054,ComputerHuman,2020.1.3,60.04474294477289,
Human.xlsx,h,Sychronize.jpg,Number10.jpg,10,Human,,,,,0,8,8,0,0,2,2,8,,,,,,,,,,,,,,,,,,,,,,,,,,,,,1436.6203196136844,None,1436.6203196136844,None,1437.0535068554404,None,1437.0535068554404,None,v,9.296666411115439,1437.0535068554404,None,t,9.023852179232563,1437.0535068554404,None,9.296666411115439,9.023852179232563,9.72840329712259,True,False,False,1446.4339542145167,None,1446.4339542145167,None,1446.4339542145167,None,1446.4339542145167,None,1446.4339542145167,None,1446.4339542145167,None,1446.4339542145167,None,1446.4339542145167,None,1447.4188527742695,None,1447.4188527742695,None,1448.4001477489142,None,1448.4001477489142,None,h,,,,,,,,,,,,,,,,,,,,,,,,,,,,,,,,,,,,,,,,,,,,,,,19_20Exp,001,2021_Apr_30_1054,ComputerHuman,2020.1.3,60.04474294477289,
Human.xlsx,h,Sychronize.jpg,Number7.jpg,7,Human,,,,,0,8,8,0,0,3,3,3,,,,,,,,,,,,,,,,,,,,,,,,,,,,,1449.4501790084273,None,1449.4501790084273,None,1449.9003573753048,None,1449.9003573753048,None,v,7.260904822561315,1449.9003573753048,None,t,5.856133745165607,1449.9003573753048,None,7.260904822561315,5.856133745165607,6.842774631345149,False,False,False,1457.2478598701314,None,1457.2478598701314,None,1457.2478598701314,None,1457.2478598701314,None,1457.2478598701314,None,1457.2478598701314,None,1457.2478598701314,None,1457.2478598701314,None,1458.2331924383093,None,1458.2331924383093,None,1459.2307292079336,None,1459.2307292079336,None,h,,,,,,,,,,,,,,,,,,,,,,,,,,,,,,,,,,,,,,,,,,,,,,,19_20Exp,001,2021_Apr_30_1054,ComputerHuman,2020.1.3,60.04474294477289,
Human.xlsx,h,Sychronize.jpg,Number9.jpg,9,Human,,,,,0,8,8,0,0,4,4,7,,,,,,,,,,,,,,,,,,,,,,,,,,,,,1460.2806324782655,None,1460.2806324782655,None,1460.7305375449364,None,1460.7305375449364,None,v,8.697720028318145,1460.7305375449364,None,t,7.452977769337849,1460.7305375449364,None,8.697720028318145,7.452977769337849,8.600403518605148,False,False,False,1469.5115211113184,None,1469.5115211113184,None,1469.5115211113184,None,1469.5115211113184,None,1469.5115211113184,None,1469.5115211113184,None,1469.5115211113184,None,1469.5115211113184,None,1470.4799209354055,None,1470.4799209354055,None,1471.4775975628804,None,1471.4775975628804,None,h,,,,,,,,,,,,,,,,,,,,,,,,,,,,,,,,,,,,,,,,,,,,,,,19_20Exp,001,2021_Apr_30_1054,ComputerHuman,2020.1.3,60.04474294477289,
Human.xlsx,h,Sychronize.jpg,Number6.jpg,6,Human,,,,,0,8,8,0,0,5,5,0,,,,,,,,,,,,,,,,,,,,,,,,,,,,,1472.5443719885257,None,1472.5443719885257,None,1472.9943524372961,None,1472.9943524372961,None,v,4.5611517229936,1472.9943524372961,None,t,4.672257238366001,1472.9943524372961,None,4.5611517229936,4.672257238366001,6.153078815965103,True,False,False,1477.7592003851864,None,1477.7592003851864,None,1477.7592003851864,None,1477.7592003851864,None,1477.7592003851864,None,1477.7592003851864,None,1477.7592003851864,None,1477.7592003851864,None,1478.7438253239584,None,1478.7438253239584,None,1479.7422204871868,None,1479.7422204871868,None,h,,,,,,,,,,,,,,,,,,,,,,,,,,,,,,,,,,,,,,,,,,,,,,,19_20Exp,001,2021_Apr_30_1054,ComputerHuman,2020.1.3,60.04474294477289,
Human.xlsx,h,Sychronize.jpg,Number7.jpg,7,Human,,,,,0,8,8,0,0,6,6,2,,,,,,,,,,,,,,,,,,,,,,,,,,,,,1480.7922815787647,None,1480.7922815787647,None,1481.225638831212,None,1481.225638831212,None,v,4.261192557637514,1481.225638831212,None,t,5.400152881312351,1481.225638831212,None,4.261192557637514,5.400152881312351,6.987049509812589,False,False,False,1486.691948325732,None,1486.691948325732,None,1486.691948325732,None,1486.691948325732,None,1486.691948325732,None,1486.691948325732,None,1486.691948325732,None,1486.691948325732,None,1487.6928448915473,None,1487.6928448915473,None,1488.7067097445956,None,1488.7067097445956,None,h,,,,,,,,,,,,,,,,,,,,,,,,,,,,,,,,,,,,,,,,,,,,,,,19_20Exp,001,2021_Apr_30_1054,ComputerHuman,2020.1.3,60.04474294477289,
Human.xlsx,h,Sychronize.jpg,Number9.jpg,9,Human,,,,,0,8,8,0,0,7,7,6,,,,,,,,,,,,,,,,,,,,,,,,,,,,,1489.7567801386454,None,1489.7567801386454,None,1490.2068362902896,None,1490.2068362902896,None,v,6.318967643757787,1490.2068362902896,None,t,6.574071252442991,1490.2068362902896,None,6.318967643757787,6.574071252442991,9.32911348161981,True,False,False,1496.8711867484049,None,1496.8711867484049,None,1496.8711867484049,None,1496.8711867484049,None,1496.8711867484049,None,1496.8711867484049,None,1496.8711867484049,None,1496.8711867484049,None,1497.8565270151798,None,1497.8565270151798,None,1498.8374001708448,None,1498.8374001708448,None,h,,,,,,,,,,,,,,,,,,,,,,,,,,,,,,,,,,,,,,,,,,,,,,,19_20Exp,001,2021_Apr_30_1054,ComputerHuman,2020.1.3,60.04474294477289,
Human.xlsx,h,Sychronize.jpg,Number8.jpg,8,Human,,,,,0,8,8,0,0,8,8,4,,,,,,,,,,,,,,,,,,,,,,,,,,,,,1499.8884107560957,None,1499.8884107560957,None,1500.3372883807956,None,1500.3372883807956,None,v,6.023797005951565,1500.3372883807956,None,t,7.095004861344023,1500.3372883807956,None,6.023797005951565,7.095004861344023,8.396700229998086,False,False,False,1507.5184585098536,None,1507.5184585098536,None,1507.5184585098536,None,1507.5184585098536,None,1507.5184585098536,None,1507.5184585098536,None,1507.5184585098536,None,1507.5184585098536,None,1508.5036146518419,None,1508.5036146518419,None,1509.5012373891363,None,1509.5012373891363,None,h,,,,,,,,,,,,,,,,,,,,,,,,,,,,,,,,,,,,,,,,,,,,,,,19_20Exp,001,2021_Apr_30_1054,ComputerHuman,2020.1.3,60.04474294477289,
Human.xlsx,h,Sychronize.jpg,Number8.jpg,8,Human,,,,,0,8,8,0,0,9,9,5,,,,,,,,,,,,,,,,,,,,,,,,,,,,,1510.534446571895,None,1510.534446571895,None,1511.0012856657572,None,1511.0012856657572,None,v,6.622858226160133,1511.0012856657572,None,t,5.902088276608083,1511.0012856657572,None,6.622858226160133,5.902088276608083,7.478319153655346,False,False,False,1517.7157148580686,None,1517.7157148580686,None,1517.7157148580686,None,1517.7157148580686,None,1517.7157148580686,None,1517.7157148580686,None,1517.7157148580686,None,1517.7157148580686,None,1518.6845365011354,None,1518.6845365011354,None,1519.682113688395,None,1519.682113688395,None,h,,,,,,,,,,,,,,,,,,,,,,,,,,,,,,,,,,,,,,,,,,,,,,,19_20Exp,001,2021_Apr_30_1054,ComputerHuman,2020.1.3,60.04474294477289,
Human.xlsx,h,,,,,,,,,0,8,8,0,,,,,,,,,,,,,,,,,,,,,,,,,,,,,,,,,,,,,,,,,,,,,,,,,,,,,,,,,,,,,,,,,,,,,,,,,,,,,,,h,1520.6821739940738,None,1520.6821739940738,None,q,0,4.457694122538669,1520.6821739940738,None,o,1,4.792204272015624,1520.6821739940738,None,h,h,1525.5642122362146,None,1525.5642122362146,None,1527.563453603601,None,None,None,None,None,None,None,None,,,,,,,,,,,,,,,,,,19_20Exp,001,2021_Apr_30_1054,ComputerHuman,2020.1.3,60.04474294477289,
Computer.xlsx,c,Sychronize.jpg,Number6.jpg,6,Computer,,,,,0,9,9,9,0,0,0,0,,,,,,,,,,,,,,,,,,,,,,,,,1532.5484355648255,None,1532.5484355648255,None,1535.6293041975637,None,1535.6293041975637,None,1536.0618335300219,None,1536.0618335300219,None,v,4.240384852882016,1536.0618335300219,None,t,4.911249928226425,1536.0618335300219,None,4.240384852882016,4.911249928226425,5.569120493795644,False,False,False,1541.0450637395747,None,1541.0450637395747,None,1541.0450637395747,None,1541.0450637395747,None,1541.0450637395747,None,1541.0450637395747,None,1541.0450637395747,None,1541.0450637395747,None,1542.076424938195,None,1542.076424938195,None,1543.0595236300428,None,1543.0595236300428,None,c,,,,,,,,,,,,,,,,,,,,,,,,,,,,,,,,,,,,,,,,,,,,,,,19_20Exp,001,2021_Apr_30_1054,ComputerHuman,2020.1.3,60.04474294477289,
Computer.xlsx,c,Sychronize.jpg,Number7.jpg,7,Computer,,,,,0,9,9,9,0,1,1,3,,,,,,,,,,,,,,,,,,,,,,,,,,,,,1544.1095657959017,None,1544.1095657959017,None,1544.5594233878896,None,1544.5594233878896,None,v,5.661962609837246,1544.5594233878896,None,t,5.741146212080821,1544.5594233878896,None,5.661962609837246,5.741146212080821,6.562199882179356,False,False,False,1550.3908404654962,None,1550.3908404654962,None,1550.3908404654962,None,1550.3908404654962,None,1550.3908404654962,None,1550.3908404654962,None,1550.3908404654962,None,1550.3908404654962,None,1551.3739888774512,None,1551.3739888774512,None,1552.3571879718397,None,1552.3571879718397,None,c,,,,,,,,,,,,,,,,,,,,,,,,,,,,,,,,,,,,,,,,,,,,,,,19_20Exp,001,2021_Apr_30_1054,ComputerHuman,2020.1.3,60.04474294477289,
Computer.xlsx,c,Sychronize.jpg,Number7.jpg,7,Computer,,,,,0,9,9,9,0,2,2,2,,,,,,,,,,,,,,,,,,,,,,,,,,,,,1553.4067111239278,None,1553.4067111239278,None,1553.8571291096473,None,1553.8571291096473,None,v,5.735460477165361,1553.8571291096473,None,t,6.298996519913999,1553.8571291096473,None,5.735460477165361,6.298996519913999,7.1618081614019475,False,False,False,1560.2385208299988,None,1560.2385208299988,None,1560.2385208299988,None,1560.2385208299988,None,1560.2385208299988,None,1560.2385208299988,None,1560.2385208299988,None,1560.2385208299988,None,1561.2382366234465,None,1561.2382366234465,None,1562.221426415363,None,1562.221426415363,None,c,,,,,,,,,,,,,,,,,,,,,,,,,,,,,,,,,,,,,,,,,,,,,,,19_20Exp,001,2021_Apr_30_1054,ComputerHuman,2020.1.3,60.04474294477289,
Computer.xlsx,c,Sychronize.jpg,Number8.jpg,8,Computer,,,,,0,9,9,9,0,3,3,5,,,,,,,,,,,,,,,,,,,,,,,,,,,,,1563.2547456239085,None,1563.2547456239085,None,1563.7215096564473,None,1563.7215096564473,None,v,6.7142335196285785,1563.7215096564473,None,t,7.513032281822234,1563.7215096564473,None,6.7142335196285785,7.513032281822234,8.37615619957532,False,False,False,1571.3023505421575,None,1571.3023505421575,None,1571.3023505421575,None,1571.3023505421575,None,1571.3023505421575,None,1571.3023505421575,None,1571.3023505421575,None,1571.3023505421575,None,1572.3187244963915,None,1572.3187244963915,None,1573.3018559072784,None,1573.3018559072784,None,c,,,,,,,,,,,,,,,,,,,,,,,,,,,,,,,,,,,,,,,,,,,,,,,19_20Exp,001,2021_Apr_30_1054,ComputerHuman,2020.1.3,60.04474294477289,
Computer.xlsx,c,Sychronize.jpg,Number6.jpg,6,Computer,,,,,0,9,9,9,0,4,4,1,,,,,,,,,,,,,,,,,,,,,,,,,,,,,1574.36866690126,None,1574.36866690126,None,1574.801857992315,None,1574.801857992315,None,v,5.0410441094345515,1574.801857992315,None,t,5.996097773469955,1574.801857992315,None,5.0410441094345515,5.996097773469955,6.264708641680198,False,False,True,1580.8679690554877,None,1580.8679690554877,None,1580.8679690554877,None,1580.8679690554877,None,1580.8679690554877,None,1580.8679690554877,None,1580.8679690554877,None,1580.8679690554877,None,1581.882821574421,None,1581.882821574421,None,1582.8494013217855,None,1582.8494013217855,None,c,,,,,,,,,,,,,,,,,,,,,,,,,,,,,,,,,,,,,,,,,,,,,,,19_20Exp,001,2021_Apr_30_1054,ComputerHuman,2020.1.3,60.04474294477289,
Computer.xlsx,c,Sychronize.jpg,Number9.jpg,9,Computer,,,,,0,9,9,9,0,5,5,7,,,,,,,,,,,,,,,,,,,,,,,,,,,,,1583.9166928365516,None,1583.9166928365516,None,1584.3494977146397,None,1584.3494977146397,None,v,7.5842953104956905,1584.3494977146397,None,t,8.064164921918746,1584.3494977146397,None,7.5842953104956905,8.064164921918746,8.338225071914522,False,False,True,1592.4820011605639,None,1592.4820011605639,None,1592.4820011605639,None,1592.4820011605639,None,1592.4820011605639,None,1592.4820011605639,None,1592.4820011605639,None,1592.4820011605639,None,1593.496750389982,None,1593.496750389982,None,1594.479859025852,None,1594.479859025852,None,c,,,,,,,,,,,,,,,,,,,,,,,,,,,,,,,,,,,,,,,,,,,,,,,19_20Exp,001,2021_Apr_30_1054,ComputerHuman,2020.1.3,60.04474294477289,
Computer.xlsx,c,Sychronize.jpg,Number10.jpg,10,Computer,,,,,0,9,9,9,0,6,6,8,,,,,,,,,,,,,,,,,,,,,,,,,,,,,1595.530177378891,None,1595.530177378891,None,1595.979979797598,None,1595.979979797598,None,v,9.084733328607399,1595.979979797598,None,t,8.411862768653009,1595.979979797598,None,9.084733328607399,8.411862768653009,10.272291207308431,False,False,False,1605.1605131884994,None,1605.1605131884994,None,1605.1605131884994,None,1605.1605131884994,None,1605.1605131884994,None,1605.1605131884994,None,1605.1605131884994,None,1605.1605131884994,None,1606.1602238495493,None,1606.1602238495493,None,1607.1432542163452,None,1607.1432542163452,None,c,,,,,,,,,,,,,,,,,,,,,,,,,,,,,,,,,,,,,,,,,,,,,,,19_20Exp,001,2021_Apr_30_1054,ComputerHuman,2020.1.3,60.04474294477289,
Computer.xlsx,c,Sychronize.jpg,Number8.jpg,8,Computer,,,,,0,9,9,9,0,7,7,4,,,,,,,,,,,,,,,,,,,,,,,,,,,,,1608.1931889226166,None,1608.1931889226166,None,1608.6431151604306,None,1608.6431151604306,None,v,8.084649927135615,1608.6431151604306,None,t,7.02394969479883,1608.6431151604306,None,8.084649927135615,7.02394969479883,8.59037112899036,False,False,False,1616.8241803960996,None,1616.8241803960996,None,1616.8241803960996,None,1616.8241803960996,None,1616.8241803960996,None,1616.8241803960996,None,1616.8241803960996,None,1616.8241803960996,None,1617.8072207069176,None,1617.8072207069176,None,1618.7903341544102,None,1618.7903341544102,None,c,,,,,,,,,,,,,,,,,,,,,,,,,,,,,,,,,,,,,,,,,,,,,,,19_20Exp,001,2021_Apr_30_1054,ComputerHuman,2020.1.3,60.04474294477289,
Computer.xlsx,c,Sychronize.jpg,Number9.jpg,9,Computer,,,,,0,9,9,9,0,8,8,6,,,,,,,,,,,,,,,,,,,,,,,,,,,,,1619.8571993593482,None,1619.8571993593482,None,1620.2905072124636,None,1620.2905072124636,None,v,8.688322607154987,1620.2905072124636,None,t,7.679874679665772,1620.2905072124636,None,8.688322607154987,7.679874679665772,8.933174490790382,False,True,False,1629.0710773000123,None,1629.0710773000123,None,1629.0710773000123,None,1629.0710773000123,None,1629.0710773000123,None,1629.0710773000123,None,1629.0710773000123,None,1629.0710773000123,None,1630.0708643054854,None,1630.0708643054854,None,1631.0372422854439,None,1631.0372422854439,None,c,,,,,,,,,,,,,,,,,,,,,,,,,,,,,,,,,,,,,,,,,,,,,,,19_20Exp,001,2021_Apr_30_1054,ComputerHuman,2020.1.3,60.04474294477289,
Computer.xlsx,c,Sychronize.jpg,Number10.jpg,10,Computer,,,,,0,9,9,9,0,9,9,9,,,,,,,,,,,,,,,,,,,,,,,,,,,,,1632.1040340329332,None,1632.1040340329332,None,1632.5373932100297,None,1632.5373932100297,None,v,9.620242627710468,1632.5373932100297,None,t,9.088007798679428,1632.5373932100297,None,9.620242627710468,9.088007798679428,10.493400680749534,False,False,False,1642.2358032251354,None,1642.2358032251354,None,1642.2358032251354,None,1642.2358032251354,None,1642.2358032251354,None,1642.2358032251354,None,1642.2358032251354,None,1642.2358032251354,None,1643.2508302456076,None,1643.2508302456076,None,1644.2338679902264,None,1644.2338679902264,None,c,,,,,,,,,,,,,,,,,,,,,,,,,,,,,,,,,,,,,,,,,,,,,,,19_20Exp,001,2021_Apr_30_1054,ComputerHuman,2020.1.3,60.04474294477289,
Computer.xlsx,c,,,,,,,,,0,9,9,9,,,,,,,,,,,,,,,,,,,,,,,,,,,,,,,,,,,,,,,,,,,,,,,,,,,,,,,,,,,,,,,,,,,,,,,,,,,,,,,c,1645.2348854881761,None,1645.2348854881761,None,q,0,4.394095368299531,1645.2348854881761,None,l,0,2.9653495756629127,1645.2348854881761,None,h,c,1649.7164372431193,None,1649.7164372431193,None,None,None,1651.6986627857182,None,1651.6986627857182,None,"['space', 'space']",1652.6817550620685,None,"[448.4773650010857, 454.2405654491449]",,,,,,,,,,,,,,,,,19_20Exp,001,2021_Apr_30_1054,ComputerHuman,2020.1.3,60.04474294477289,
Computer.xlsx,c,Sychronize.jpg,Number8.jpg,8,Computer,,,,,1,0,10,9,0,0,0,4,,,,,,,,,,,,,,,,,,,,,,,,,2106.987102924794,None,2106.987102924794,None,2110.0664328003872,None,2110.0664328003872,None,2110.4995141864297,None,2110.4995141864297,None,v,7.537868598416026,2110.4995141864297,None,t,6.860986106918972,2110.4995141864297,None,7.537868598416026,6.860986106918972,7.490828523171464,False,True,False,2118.115698049464,None,2118.115698049464,None,2118.115698049464,None,2118.115698049464,None,2118.115698049464,None,2118.115698049464,None,2118.115698049464,None,2118.115698049464,None,2119.1303872939784,None,2119.1303872939784,None,2120.1134465305154,None,2120.1134465305154,None,c,,,,,,,,,,,,,,,,,,,,,,,,,,,,,,,,,,,,,,,,,,,,,,,19_20Exp,001,2021_Apr_30_1054,ComputerHuman,2020.1.3,60.04474294477289,
Computer.xlsx,c,Sychronize.jpg,Number6.jpg,6,Computer,,,,,1,0,10,9,0,1,1,0,,,,,,,,,,,,,,,,,,,,,,,,,,,,,2121.1797792491366,None,2121.1797792491366,None,2121.6302613898347,None,2121.6302613898347,None,v,5.298410784965199,2121.6302613898347,None,t,5.149128566896252,2121.6302613898347,None,5.298410784965199,5.149128566896252,5.851239157636033,False,False,False,2127.011646694688,None,2127.011646694688,None,2127.011646694688,None,2127.011646694688,None,2127.011646694688,None,2127.011646694688,None,2127.011646694688,None,2127.011646694688,None,2128.0113621673604,None,2128.0113621673604,None,2128.9945622240734,None,2128.9945622240734,None,c,,,,,,,,,,,,,,,,,,,,,,,,,,,,,,,,,,,,,,,,,,,,,,,19_20Exp,001,2021_Apr_30_1054,ComputerHuman,2020.1.3,60.04474294477289,
Computer.xlsx,c,Sychronize.jpg,Number8.jpg,8,Computer,,,,,1,0,10,9,0,2,2,5,,,,,,,,,,,,,,,,,,,,,,,,,,,,,2130.0447872316195,None,2130.0447872316195,None,2130.494737206776,None,2130.494737206776,None,v,6.913064872551331,2130.494737206776,None,t,6.236078770764834,2130.494737206776,None,6.913064872551331,6.236078770764834,7.979966585168603,False,False,False,2137.475619985687,None,2137.475619985687,None,2137.475619985687,None,2137.475619985687,None,2137.475619985687,None,2137.475619985687,None,2137.475619985687,None,2137.475619985687,None,2138.4920327536825,None,2138.4920327536825,None,2139.4751657684433,None,2139.4751657684433,None,c,,,,,,,,,,,,,,,,,,,,,,,,,,,,,,,,,,,,,,,,,,,,,,,19_20Exp,001,2021_Apr_30_1054,ComputerHuman,2020.1.3,60.04474294477289,
Computer.xlsx,c,Sychronize.jpg,Number10.jpg,10,Computer,,,,,1,0,10,9,0,3,3,9,,,,,,,,,,,,,,,,,,,,,,,,,,,,,2140.525670170919,None,2140.525670170919,None,2140.9749564628287,None,2140.9749564628287,None,v,7.963812422392039,2140.9749564628287,None,t,9.7987060582509,2140.9749564628287,None,7.963812422392039,9.7987060582509,10.69721991999576,False,False,False,2150.8722783453536,None,2150.8722783453536,None,2150.8722783453536,None,2150.8722783453536,None,2150.8722783453536,None,2150.8722783453536,None,2150.8722783453536,None,2150.8722783453536,None,2151.855305504401,None,2151.855305504401,None,2152.8384635396037,None,2152.8384635396037,None,c,,,,,,,,,,,,,,,,,,,,,,,,,,,,,,,,,,,,,,,,,,,,,,,19_20Exp,001,2021_Apr_30_1054,ComputerHuman,2020.1.3,60.04474294477289,
Computer.xlsx,c,Sychronize.jpg,Number7.jpg,7,Computer,,,,,1,0,10,9,0,4,4,2,,,,,,,,,,,,,,,,,,,,,,,,,,,,,2153.9050451795397,None,2153.9050451795397,None,2154.3387321885734,None,2154.3387321885734,None,v,5.587121016496894,2154.3387321885734,None,t,7.821960313089221,2154.3387321885734,None,5.587121016496894,7.821960313089221,7.131609905122213,False,False,False,2162.2527324407024,None,2162.2527324407024,None,2162.2527324407024,None,2162.2527324407024,None,2162.2527324407024,None,2162.2527324407024,None,2162.2527324407024,None,2162.2527324407024,None,2163.2525104644787,None,2163.2525104644787,None,2164.2188778588666,None,2164.2188778588666,None,c,,,,,,,,,,,,,,,,,,,,,,,,,,,,,,,,,,,,,,,,,,,,,,,19_20Exp,001,2021_Apr_30_1054,ComputerHuman,2020.1.3,60.04474294477289,
Computer.xlsx,c,Sychronize.jpg,Number6.jpg,6,Computer,,,,,1,0,10,9,0,5,5,1,,,,,,,,,,,,,,,,,,,,,,,,,,,,,2165.2856558130347,None,2165.2856558130347,None,2165.7187015930645,None,2165.7187015930645,None,v,4.062302502910825,2165.7187015930645,None,t,5.413139773488183,2165.7187015930645,None,4.062302502910825,5.413139773488183,5.817544835081154,False,False,False,2171.200395130509,None,2171.200395130509,None,2171.200395130509,None,2171.200395130509,None,2171.200395130509,None,2171.200395130509,None,2171.200395130509,None,2171.200395130509,None,2172.2169772676457,None,2172.2169772676457,None,2173.1999903125984,None,2173.1999903125984,None,c,,,,,,,,,,,,,,,,,,,,,,,,,,,,,,,,,,,,,,,,,,,,,,,19_20Exp,001,2021_Apr_30_1054,ComputerHuman,2020.1.3,60.04474294477289,
Computer.xlsx,c,Sychronize.jpg,Number9.jpg,9,Computer,,,,,1,0,10,9,0,6,6,7,,,,,,,,,,,,,,,,,,,,,,,,,,,,,2174.2500475548773,None,2174.2500475548773,None,2174.699952300774,None,2174.699952300774,None,v,8.196039328284314,2174.699952300774,None,t,7.1989878910690095,2174.699952300774,None,8.196039328284314,7.1989878910690095,9.180137774108427,False,False,False,2182.980814774635,None,2182.980814774635,None,2182.980814774635,None,2182.980814774635,None,2182.980814774635,None,2182.980814774635,None,2182.980814774635,None,2182.980814774635,None,2183.963914428807,None,2183.963914428807,None,2184.9470108752316,None,2184.9470108752316,None,c,,,,,,,,,,,,,,,,,,,,,,,,,,,,,,,,,,,,,,,,,,,,,,,19_20Exp,001,2021_Apr_30_1054,ComputerHuman,2020.1.3,60.04474294477289,
Computer.xlsx,c,Sychronize.jpg,Number10.jpg,10,Computer,,,,,1,0,10,9,0,7,7,8,,,,,,,,,,,,,,,,,,,,,,,,,,,,,2185.9970475879177,None,2185.9970475879177,None,2186.447146081847,None,2186.447146081847,None,v,8.93970234014887,2186.447146081847,None,t,7.863008271822764,2186.447146081847,None,8.93970234014887,7.863008271822764,10.504193843756106,False,False,False,2195.477579278712,None,2195.477579278712,None,2195.477579278712,None,2195.477579278712,None,2195.477579278712,None,2195.477579278712,None,2195.477579278712,None,2195.477579278712,None,2196.477400607099,None,2196.477400607099,None,2197.4438761026236,None,2197.4438761026236,None,c,,,,,,,,,,,,,,,,,,,,,,,,,,,,,,,,,,,,,,,,,,,,,,,19_20Exp,001,2021_Apr_30_1054,ComputerHuman,2020.1.3,60.04474294477289,
Computer.xlsx,c,Sychronize.jpg,Number9.jpg,9,Computer,,,,,1,0,10,9,0,8,8,6,,,,,,,,,,,,,,,,,,,,,,,,,,,,,2198.4945389678937,None,2198.4945389678937,None,2198.944085087464,None,2198.944085087464,None,v,8.393779084258313,2198.944085087464,None,t,7.776918065432255,2198.944085087464,None,8.393779084258313,7.776918065432255,9.569396554781907,False,False,False,2207.4244660140607,None,2207.4244660140607,None,2207.4244660140607,None,2207.4244660140607,None,2207.4244660140607,None,2207.4244660140607,None,2207.4244660140607,None,2207.4244660140607,None,2208.4242873424478,None,2208.4242873424478,None,2209.407493173109,None,2209.407493173109,None,c,,,,,,,,,,,,,,,,,,,,,,,,,,,,,,,,,,,,,,,,,,,,,,,19_20Exp,001,2021_Apr_30_1054,ComputerHuman,2020.1.3,60.04474294477289,
Computer.xlsx,c,Sychronize.jpg,Number7.jpg,7,Computer,,,,,1,0,10,9,0,9,9,3,,,,,,,,,,,,,,,,,,,,,,,,,,,,,2210.4572302820475,None,2210.4572302820475,None,2210.9073207566057,None,2210.9073207566057,None,v,6.073714711154025,2210.9073207566057,None,t,6.497112544831907,2210.9073207566057,None,6.073714711154025,6.497112544831907,7.377452983119637,False,False,False,2217.4886954117324,None,2217.4886954117324,None,2217.4886954117324,None,2217.4886954117324,None,2217.4886954117324,None,2217.4886954117324,None,2217.4886954117324,None,2217.4886954117324,None,2218.471730910927,None,2218.471730910927,None,2219.4549040225497,None,2219.4549040225497,None,c,,,,,,,,,,,,,,,,,,,,,,,,,,,,,,,,,,,,,,,,,,,,,,,19_20Exp,001,2021_Apr_30_1054,ComputerHuman,2020.1.3,60.04474294477289,
Computer.xlsx,c,,,,,,,,,1,0,10,9,,,,,,,,,,,,,,,,,,,,,,,,,,,,,,,,,,,,,,,,,,,,,,,,,,,,,,,,,,,,,,,,,,,,,,,,,,,,,,,c,2220.4563035633923,None,2220.4563035633923,None,a,1,3.3724199674661577,2220.4563035633923,None,l,0,2.771445645817039,2220.4563035633923,None,c,c,2223.9216337321745,None,2223.9216337321745,None,2225.919975325996,None,None,None,None,None,None,None,None,,,,,,,,,,,,,,,,,,19_20Exp,001,2021_Apr_30_1054,ComputerHuman,2020.1.3,60.04474294477289,
Human.xlsx,h,Sychronize.jpg,Number9.jpg,9,Human,,,,,1,1,11,2,0,0,0,7,,,,,,,,,,,,,,,,,,,,,,,,,2230.921387377059,None,2230.921387377059,None,2233.984870010788,None,2233.984870010788,None,2234.418125577595,None,2234.418125577595,None,v,6.956831077697643,2234.418125577595,None,t,7.523979045701708,2234.418125577595,None,6.956831077697643,7.523979045701708,8.715920045565548,False,False,False,2242.0323655447996,None,2242.0323655447996,None,2242.0323655447996,None,2242.0323655447996,None,2242.0323655447996,None,2242.0323655447996,None,2242.0323655447996,None,2242.0323655447996,None,2243.017230743964,None,2243.017230743964,None,2244.032049902308,None,2244.032049902308,None,h,,,,,,,,,,,,,,,,,,,,,,,,,,,,,,,,,,,,,,,,,,,,,,,19_20Exp,001,2021_Apr_30_1054,ComputerHuman,2020.1.3,60.04474294477289,
Human.xlsx,h,Sychronize.jpg,Number7.jpg,7,Human,,,,,1,1,11,2,0,1,1,3,,,,,,,,,,,,,,,,,,,,,,,,,,,,,2245.082035291012,None,2245.082035291012,None,2245.5321376342404,None,2245.5321376342404,None,v,5.758002932524505,2245.5321376342404,None,t,6.441067718466002,2245.5321376342404,None,5.758002932524505,6.441067718466002,7.459660050459932,False,False,False,2252.048049191471,None,2252.048049191471,None,2252.048049191471,None,2252.048049191471,None,2252.048049191471,None,2252.048049191471,None,2252.048049191471,None,2252.048049191471,None,2253.0317695450544,None,2253.0317695450544,None,2254.0294718345217,None,2254.0294718345217,None,h,,,,,,,,,,,,,,,,,,,,,,,,,,,,,,,,,,,,,,,,,,,,,,,19_20Exp,001,2021_Apr_30_1054,ComputerHuman,2020.1.3,60.04474294477289,
Human.xlsx,h,Sychronize.jpg,Number6.jpg,6,Human,,,,,1,1,11,2,0,2,2,1,,,,,,,,,,,,,,,,,,,,,,,,,,,,,2255.1130625629726,None,2255.1130625629726,None,2255.546286373066,None,2255.546286373066,None,v,4.543055849153461,2255.546286373066,None,t,5.314120414403078,2255.546286373066,None,4.543055849153461,5.314120414403078,6.247052163260491,False,False,False,2260.9443750679643,None,2260.9443750679643,None,2260.9443750679643,None,2260.9443750679643,None,2260.9443750679643,None,2260.9443750679643,None,2260.9443750679643,None,2260.9443750679643,None,2261.9301044346807,None,2261.9301044346807,None,2262.9272517835884,None,2262.9272517835884,None,h,,,,,,,,,,,,,,,,,,,,,,,,,,,,,,,,,,,,,,,,,,,,,,,19_20Exp,001,2021_Apr_30_1054,ComputerHuman,2020.1.3,60.04474294477289,
Human.xlsx,h,Sychronize.jpg,Number6.jpg,6,Human,,,,,1,1,11,2,0,3,3,0,,,,,,,,,,,,,,,,,,,,,,,,,,,,,2263.977619215186,None,2263.977619215186,None,2264.410393298884,None,2264.410393298884,None,v,4.410271083651423,2264.410393298884,None,t,4.401190908854005,2264.410393298884,None,4.410271083651423,4.401190908854005,5.674163954835054,True,False,False,2268.9090446008618,None,2268.9090446008618,None,2268.9090446008618,None,2268.9090446008618,None,2268.9090446008618,None,2268.9090446008618,None,2268.9090446008618,None,2268.9090446008618,None,2269.894296012993,None,2269.894296012993,None,2270.8918937298454,None,2270.8918937298454,None,h,,,,,,,,,,,,,,,,,,,,,,,,,,,,,,,,,,,,,,,,,,,,,,,19_20Exp,001,2021_Apr_30_1054,ComputerHuman,2020.1.3,60.04474294477289,
Human.xlsx,h,Sychronize.jpg,Number10.jpg,10,Human,,,,,1,1,11,2,0,4,4,9,,,,,,,,,,,,,,,,,,,,,,,,,,,,,2271.9587095354505,None,2271.9587095354505,None,2272.4087477237013,None,2272.4087477237013,None,v,7.655261622395301,2272.4087477237013,None,t,8.3978882105921,2272.4087477237013,None,7.655261622395301,8.3978882105921,9.515924936758761,False,False,False,2280.889214297194,None,2280.889214297194,None,2280.889214297194,None,2280.889214297194,None,2280.889214297194,None,2280.889214297194,None,2280.889214297194,None,2280.889214297194,None,2281.8586422048015,None,2281.8586422048015,None,2282.855551217966,None,2282.855551217966,None,h,,,,,,,,,,,,,,,,,,,,,,,,,,,,,,,,,,,,,,,,,,,,,,,19_20Exp,001,2021_Apr_30_1054,ComputerHuman,2020.1.3,60.04474294477289,
Human.xlsx,h,Sychronize.jpg,Number7.jpg,7,Human,,,,,1,1,11,2,0,5,5,2,,,,,,,,,,,,,,,,,,,,,,,,,,,,,2283.921883936588,None,2283.921883936588,None,2284.3554692599823,None,2284.3554692599823,None,v,5.72341634239001,2284.3554692599823,None,t,4.803197227479359,2284.3554692599823,None,5.72341634239001,4.803197227479359,7.07377453059695,False,False,False,2290.1549426117685,None,2290.1549426117685,None,2290.1549426117685,None,2290.1549426117685,None,2290.1549426117685,None,2290.1549426117685,None,2290.1549426117685,None,2290.1549426117685,None,2291.1558215349655,None,2291.1558215349655,None,2292.153194709396,None,2292.153194709396,None,h,,,,,,,,,,,,,,,,,,,,,,,,,,,,,,,,,,,,,,,,,,,,,,,19_20Exp,001,2021_Apr_30_1054,ComputerHuman,2020.1.3,60.04474294477289,
Human.xlsx,h,Sychronize.jpg,Number9.jpg,9,Human,,,,,1,1,11,2,0,6,6,6,,,,,,,,,,,,,,,,,,,,,,,,,,,,,2293.2029305352357,None,2293.2029305352357,None,2293.6528522822014,None,2293.6528522822014,None,v,8.293016313647968,2293.6528522822014,None,t,7.259950196490536,2293.6528522822014,None,8.293016313647968,7.259950196490536,9.59180774171839,False,False,False,2302.01811351646,None,2302.01811351646,None,2302.01811351646,None,2302.01811351646,None,2302.01811351646,None,2302.01811351646,None,2302.01811351646,None,2302.01811351646,None,2303.0028196112785,None,2303.0028196112785,None,2304.000069287376,None,2304.000069287376,None,h,,,,,,,,,,,,,,,,,,,,,,,,,,,,,,,,,,,,,,,,,,,,,,,19_20Exp,001,2021_Apr_30_1054,ComputerHuman,2020.1.3,60.04474294477289,
Human.xlsx,h,Sychronize.jpg,Number8.jpg,8,Human,,,,,1,1,11,2,0,7,7,4,,,,,,,,,,,,,,,,,,,,,,,,,,,,,2305.083925296661,None,2305.083925296661,None,2305.5170714792307,None,2305.5170714792307,None,v,7.751755200000844,2305.5170714792307,None,t,6.24304632213898,2305.5170714792307,None,7.751755200000844,6.24304632213898,7.785797593283626,False,False,False,2313.364483355151,None,2313.364483355151,None,2313.364483355151,None,2313.364483355151,None,2313.364483355151,None,2313.364483355151,None,2313.364483355151,None,2313.364483355151,None,2314.3499480825844,None,2314.3499480825844,None,2315.330654756081,None,2315.330654756081,None,h,,,,,,,,,,,,,,,,,,,,,,,,,,,,,,,,,,,,,,,,,,,,,,,19_20Exp,001,2021_Apr_30_1054,ComputerHuman,2020.1.3,60.04474294477289,
Human.xlsx,h,Sychronize.jpg,Number10.jpg,10,Human,,,,,1,1,11,2,0,8,8,8,,,,,,,,,,,,,,,,,,,,,,,,,,,,,2316.3823835563094,None,2316.3823835563094,None,2316.8308675902204,None,2316.8308675902204,None,v,9.188959505699131,2316.8308675902204,None,t,9.015849487289415,2316.8308675902204,None,9.188959505699131,9.015849487289415,9.940802689645645,True,False,False,2326.1112306175787,None,2326.1112306175787,None,2326.1112306175787,None,2326.1112306175787,None,2326.1112306175787,None,2326.1112306175787,None,2326.1112306175787,None,2326.1112306175787,None,2327.0967630285127,None,2327.0967630285127,None,2328.0940701233153,None,2328.0940701233153,None,h,,,,,,,,,,,,,,,,,,,,,,,,,,,,,,,,,,,,,,,,,,,,,,,19_20Exp,001,2021_Apr_30_1054,ComputerHuman,2020.1.3,60.04474294477289,
Human.xlsx,h,Sychronize.jpg,Number8.jpg,8,Human,,,,,1,1,11,2,0,9,9,5,,,,,,,,,,,,,,,,,,,,,,,,,,,,,2329.144005150362,None,2329.144005150362,None,2329.59404975411,None,2329.59404975411,None,v,7.492845918027342,2329.59404975411,None,t,6.920014139756859,2329.59404975411,None,7.492845918027342,6.920014139756859,8.547766459264736,False,False,False,2337.1583485995448,None,2337.1583485995448,None,2337.1583485995448,None,2337.1583485995448,None,2337.1583485995448,None,2337.1583485995448,None,2337.1583485995448,None,2337.1583485995448,None,2338.1607836017315,None,2338.1607836017315,None,2339.1579521217814,None,2339.1579521217814,None,h,,,,,,,,,,,,,,,,,,,,,,,,,,,,,,,,,,,,,,,,,,,,,,,19_20Exp,001,2021_Apr_30_1054,ComputerHuman,2020.1.3,60.04474294477289,
Human.xlsx,h,,,,,,,,,1,1,11,2,,,,,,,,,,,,,,,,,,,,,,,,,,,,,,,,,,,,,,,,,,,,,,,,,,,,,,,,,,,,,,,,,,,,,,,,,,,,,,,h,2340.1589381837916,None,2340.1589381837916,None,a,0,2.639684472987028,2340.1589381837916,None,o,1,3.314283688821888,2340.1589381837916,None,c,h,2343.557249175689,None,2343.557249175689,None,2345.556362553894,None,None,None,None,None,None,None,None,,,,,,,,,,,,,,,,,,19_20Exp,001,2021_Apr_30_1054,ComputerHuman,2020.1.3,60.04474294477289,
