Condition,CorrectTuringReply,Sychronize,NumberImage,Number,Partner,trials.thisRepN,trials.thisTrialN,trials.thisN,trials.thisIndex,Block.thisRepN,Block.thisTrialN,Block.thisN,Block.thisIndex,trials_loop.thisRepN,trials_loop.thisTrialN,trials_loop.thisN,trials_loop.thisIndex,key_resp_Istr.keys,key_resp_Istr.rt,key_resp_Istr.started,key_resp_Istr.stopped,key_respPrLeft.keys,key_respPrLeft.rt,key_respPrRight.keys,key_respPrRight.rt,RTPrLeft,RTPrRight,CompPr,SychronizedRTsPr,SychronizedRTsLeftCPr,SychronizedRTsRightCPr,CreditLeftPr.started,CreditLeftPr.stopped,CreditRightPr.started,CreditRightPr.stopped,text_StartExp.started,text_StartExp.stopped,key_startExp.keys,key_startExp.rt,key_startExp.started,key_startExp.stopped,SychroLeft.started,SychroLeft.stopped,SychroRight.started,SychroRight.stopped,NumberLeft.started,NumberLeft.stopped,NumberRight.started,NumberRight.stopped,CrossLeft.started,CrossLeft.stopped,CrossRight.started,CrossRight.stopped,key_respLeft.keys,key_respLeft.rt,key_respLeft.started,key_respLeft.stopped,key_respRight.keys,key_respRight.rt,key_respRight.started,key_respRight.stopped,RTLeft,RTRight,Comp,SychronizedRTs,SychronizedRTsLeftC,SychronizedRTsRightC,FeedbackLeftLeft.started,FeedbackLeftLeft.stopped,FeedbackLeftRight.started,FeedbackLeftRight.stopped,FeedbackRightLeft.started,FeedbackRightLeft.stopped,FeedbackRightRight.started,FeedbackRightRight.stopped,textLeftLeft.started,textLeftLeft.stopped,textLeftRight.started,textLeftRight.stopped,textRightLeft.started,textRightLeft.stopped,textRightRight.started,textRightRight.stopped,CreditLeft.started,CreditLeft.stopped,CreditRight.started,CreditRight.stopped,BlankLeft.started,BlankLeft.stopped,BlankRight.started,BlankRight.stopped,CorrectTuringReply,TuringtextLeft.started,TuringtextLeft.stopped,TuringtextRight.started,TuringtextRight.stopped,keyTuringLeft.keys,keyTuringLeft.corr,keyTuringLeft.rt,keyTuringLeft.started,keyTuringLeft.stopped,keyTuringRight.keys,keyTuringRight.corr,keyTuringRight.rt,keyTuringRight.started,keyTuringRight.stopped,RespTuringLeft,RespTuringRight,ScoreLeft.started,ScoreLeft.stopped,ScoreRight.started,ScoreRight.stopped,BlockText.started,BlockText.stopped,text_Pause.started,text_Pause.stopped,text_LongPause.started,text_LongPause.stopped,key_respPause.keys,key_respPause.started,key_respPause.stopped,key_respPause.rt,QuestImageLeft.started,QuestImageLeft.stopped,QuestImageRight.started,QuestImageRight.stopped,respQuestLeft.keys,respQuestLeft.rt,respQuestLeft.started,respQuestLeft.stopped,respQuestRight.keys,respQuestRight.rt,respQuestRight.started,respQuestRight.stopped,RespInclusionLeft,RespInclusionRight,EndText.started,EndText.stopped,participant,session,date,expName,psychopyVersion,frameRate,
,,,,,,,,,,,,,,,,,,"['v', 't']","[39.499870721208936, 40.27960404119767]",14.564224612757243,None,,,,,,,,,,,,,,,,,,,,,,,,,,,,,,,,,,,,,,,,,,,,,,,,,,,,,,,,,,,,,,,,,,,,,,,,,,,,,,,,,,,,,,,,,,,,,,,,,,,,,,,,,,,,,,,,,,,,,,1_2Exp,001,2021_Apr_22_1117,ComputerHuman,2020.1.3,59.9889155096734,
,,,,,,,,,,,,,,,,,,,,,,v,9.615805888055547,t,8.990754481290423,9.615805888055547,8.990754481290423,9,False,False,False,120.14350298688532,None,120.14350298688532,None,121.14339488030328,None,"['space', 'space']","[2.214955021887363, 7.918807144914354]",122.12643273300455,None,,,,,,,,,,,,,,,,,,,,,,,,,,,,,,,,,,,,,,,,,,,,,,,,,,,,,,,,,,,,,,,,,,,,,,,,,,,,,,,,,,,,,,,,,,,,,,,,,,1_2Exp,001,2021_Apr_22_1117,ComputerHuman,2020.1.3,59.9889155096734,
Computer.xlsx,c,Sychronize.jpg,Number8.jpg,8,Computer,,,,,0,0,0,5,0,0,0,4,,,,,,,,,,,,,,,,,,,,,,,,,130.12800845861784,None,130.12800845861784,None,133.1916120199121,None,133.1916120199121,None,133.6245050996149,None,133.6245050996149,None,v,8.256374920042617,133.6245050996149,None,t,8.167787831369424,133.6245050996149,None,8.256374920042617,8.167787831369424,7.749160603963823,False,False,False,141.95701688708232,None,141.95701688708232,None,141.95701688708232,None,141.95701688708232,None,141.95701688708232,None,141.95701688708232,None,141.95701688708232,None,141.95701688708232,None,142.98886598440822,None,142.98886598440822,None,143.97198403487073,None,143.97198403487073,None,c,,,,,,,,,,,,,,,,,,,,,,,,,,,,,,,,,,,,,,,,,,,,,,,1_2Exp,001,2021_Apr_22_1117,ComputerHuman,2020.1.3,59.9889155096734,
Computer.xlsx,c,Sychronize.jpg,Number9.jpg,9,Computer,,,,,0,0,0,5,0,1,1,6,,,,,,,,,,,,,,,,,,,,,,,,,,,,,145.0070936523789,None,145.0070936523789,None,145.4556432598274,None,145.4556432598274,None,v,8.628752052260097,145.4556432598274,None,t,8.491746367201813,145.4556432598274,None,8.628752052260097,8.491746367201813,9.188432312862954,False,False,False,154.1699566996249,None,154.1699566996249,None,154.1699566996249,None,154.1699566996249,None,154.1699566996249,None,154.1699566996249,None,154.1699566996249,None,154.1699566996249,None,155.16975684680347,None,155.16975684680347,None,156.1529579821472,None,156.1529579821472,None,c,,,,,,,,,,,,,,,,,,,,,,,,,,,,,,,,,,,,,,,,,,,,,,,1_2Exp,001,2021_Apr_22_1117,ComputerHuman,2020.1.3,59.9889155096734,
Computer.xlsx,c,Sychronize.jpg,Number9.jpg,9,Computer,,,,,0,0,0,5,0,2,2,7,,,,,,,,,,,,,,,,,,,,,,,,,,,,,157.2032313923546,None,157.2032313923546,None,157.6530984886249,None,157.6530984886249,None,v,9.758896658448066,157.6530984886249,None,t,8.597737332443103,157.6530984886249,None,9.758896658448066,8.597737332443103,8.473857622388715,False,False,True,167.4858784574053,None,167.4858784574053,None,167.4858784574053,None,167.4858784574053,None,167.4858784574053,None,167.4858784574053,None,167.4858784574053,None,167.4858784574053,None,168.5003531909406,None,168.5003531909406,None,169.48353090853743,None,169.48353090853743,None,c,,,,,,,,,,,,,,,,,,,,,,,,,,,,,,,,,,,,,,,,,,,,,,,1_2Exp,001,2021_Apr_22_1117,ComputerHuman,2020.1.3,59.9889155096734,
Computer.xlsx,c,Sychronize.jpg,Number6.jpg,6,Computer,,,,,0,0,0,5,0,3,3,1,,,,,,,,,,,,,,,,,,,,,,,,,,,,,170.53403368434283,None,170.53403368434283,None,170.98377406814961,None,170.98377406814961,None,v,5.279878317541261,170.98377406814961,None,t,6.4068268825467385,170.98377406814961,None,5.279878317541261,6.4068268825467385,6.395218233301952,False,False,True,177.48184868029784,None,177.48184868029784,None,177.48184868029784,None,177.48184868029784,None,177.48184868029784,None,177.48184868029784,None,177.48184868029784,None,177.48184868029784,None,178.46503249292437,None,178.46503249292437,None,179.44816914926832,None,179.44816914926832,None,c,,,,,,,,,,,,,,,,,,,,,,,,,,,,,,,,,,,,,,,,,,,,,,,1_2Exp,001,2021_Apr_22_1117,ComputerHuman,2020.1.3,59.9889155096734,
Computer.xlsx,c,Sychronize.jpg,Number10.jpg,10,Computer,,,,,0,0,0,5,0,4,4,9,,,,,,,,,,,,,,,,,,,,,,,,,,,,,180.498328357864,None,180.498328357864,None,180.94860189638803,None,180.94860189638803,None,v,12.96248605360961,180.94860189638803,None,t,9.193735015048333,180.94860189638803,None,12.96248605360961,9.193735015048333,9.345641132322012,False,False,True,193.995203532294,None,193.995203532294,None,193.995203532294,None,193.995203532294,None,193.995203532294,None,193.995203532294,None,193.995203532294,None,193.995203532294,None,194.97833762230948,None,194.97833762230948,None,195.96147748656313,None,195.96147748656313,None,c,,,,,,,,,,,,,,,,,,,,,,,,,,,,,,,,,,,,,,,,,,,,,,,1_2Exp,001,2021_Apr_22_1117,ComputerHuman,2020.1.3,59.9889155096734,
Computer.xlsx,c,Sychronize.jpg,Number6.jpg,6,Computer,,,,,0,0,0,5,0,5,5,0,,,,,,,,,,,,,,,,,,,,,,,,,,,,,197.01152377671133,None,197.01152377671133,None,197.46179699444383,None,197.46179699444383,None,v,4.8968554137018145,197.46179699444383,None,t,5.943862208697283,197.46179699444383,None,4.8968554137018145,5.943862208697283,5.824144517410209,False,False,True,203.4932707662474,None,203.4932707662474,None,203.4932707662474,None,203.4932707662474,None,203.4932707662474,None,203.4932707662474,None,203.4932707662474,None,203.4932707662474,None,204.49316554678444,None,204.49316554678444,None,205.4762544052628,None,205.4762544052628,None,c,,,,,,,,,,,,,,,,,,,,,,,,,,,,,,,,,,,,,,,,,,,,,,,1_2Exp,001,2021_Apr_22_1117,ComputerHuman,2020.1.3,59.9889155096734,
Computer.xlsx,c,Sychronize.jpg,Number10.jpg,10,Computer,,,,,0,0,0,5,0,6,6,8,,,,,,,,,,,,,,,,,,,,,,,,,,,,,206.5267943928293,None,206.5267943928293,None,206.97651392521857,None,206.97651392521857,None,v,12.205756659462168,206.97651392521857,None,t,9.50872840354441,206.97651392521857,None,12.205756659462168,9.50872840354441,10.049282839051894,False,False,False,219.27331749908717,None,219.27331749908717,None,219.27331749908717,None,219.27331749908717,None,219.27331749908717,None,219.27331749908717,None,219.27331749908717,None,219.27331749908717,None,220.27310802253487,None,220.27310802253487,None,221.25639545066952,None,221.25639545066952,None,c,,,,,,,,,,,,,,,,,,,,,,,,,,,,,,,,,,,,,,,,,,,,,,,1_2Exp,001,2021_Apr_22_1117,ComputerHuman,2020.1.3,59.9889155096734,
Computer.xlsx,c,Sychronize.jpg,Number7.jpg,7,Computer,,,,,0,0,0,5,0,7,7,3,,,,,,,,,,,,,,,,,,,,,,,,,,,,,222.3064863307727,None,222.3064863307727,None,222.7565218423415,None,222.7565218423415,None,v,6.573356892226911,222.7565218423415,None,t,7.792816782760383,222.7565218423415,None,6.573356892226911,7.792816782760383,7.502269435919265,False,False,True,230.62262558488237,None,230.62262558488237,None,230.62262558488237,None,230.62262558488237,None,230.62262558488237,None,230.62262558488237,None,230.62262558488237,None,230.62262558488237,None,231.62080766202962,None,231.62080766202962,None,232.60406429422437,None,232.60406429422437,None,c,,,,,,,,,,,,,,,,,,,,,,,,,,,,,,,,,,,,,,,,,,,,,,,1_2Exp,001,2021_Apr_22_1117,ComputerHuman,2020.1.3,59.9889155096734,
Computer.xlsx,c,Sychronize.jpg,Number8.jpg,8,Computer,,,,,0,0,0,5,0,8,8,5,,,,,,,,,,,,,,,,,,,,,,,,,,,,,233.6543794072677,None,233.6543794072677,None,234.12075120280588,None,234.12075120280588,None,v,8.724635854045118,234.12075120280588,None,t,8.391733663876039,234.12075120280588,None,8.724635854045118,8.391733663876039,7.750312083649339,False,False,False,242.93530895706317,None,242.93530895706317,None,242.93530895706317,None,242.93530895706317,None,242.93530895706317,None,242.93530895706317,None,242.93530895706317,None,242.93530895706317,None,243.9183756809589,None,243.9183756809589,None,244.90141962869075,None,244.90141962869075,None,c,,,,,,,,,,,,,,,,,,,,,,,,,,,,,,,,,,,,,,,,,,,,,,,1_2Exp,001,2021_Apr_22_1117,ComputerHuman,2020.1.3,59.9889155096734,
Computer.xlsx,c,Sychronize.jpg,Number7.jpg,7,Computer,,,,,0,0,0,5,0,9,9,2,,,,,,,,,,,,,,,,,,,,,,,,,,,,,245.96828467253908,None,245.96828467253908,None,246.40173849498933,None,246.40173849498933,None,v,6.4714665989158675,246.40173849498933,None,t,6.7947893268965345,246.40173849498933,None,6.4714665989158675,6.7947893268965345,6.8104520808372655,False,False,True,253.28308077454312,None,253.28308077454312,None,253.28308077454312,None,253.28308077454312,None,253.28308077454312,None,253.28308077454312,None,253.28308077454312,None,253.28308077454312,None,254.28297074321472,None,254.28297074321472,None,255.26612311831923,None,255.26612311831923,None,c,,,,,,,,,,,,,,,,,,,,,,,,,,,,,,,,,,,,,,,,,,,,,,,1_2Exp,001,2021_Apr_22_1117,ComputerHuman,2020.1.3,59.9889155096734,
Computer.xlsx,c,,,,,,,,,0,0,0,5,,,,,,,,,,,,,,,,,,,,,,,,,,,,,,,,,,,,,,,,,,,,,,,,,,,,,,,,,,,,,,,,,,,,,,,,,,,,,,,c,256.2669315117528,None,256.2669315117528,None,q,0,8.95774027088919,256.2669315117528,None,l,1,8.952794635347345,256.2669315117528,None,h,c,265.3477217740765,None,265.3477217740765,None,267.33046064952487,None,None,None,None,None,None,None,None,,,,,,,,,,,,,,,,,,1_2Exp,001,2021_Apr_22_1117,ComputerHuman,2020.1.3,59.9889155096734,
Computer.xlsx,c,Sychronize.jpg,Number10.jpg,10,Computer,,,,,0,1,1,9,0,0,0,9,,,,,,,,,,,,,,,,,,,,,,,,,272.3321412738096,None,272.3321412738096,None,275.41226685708807,None,275.41226685708807,None,275.84581787922434,None,275.84581787922434,None,v,9.422138559917585,275.84581787922434,None,t,9.021984772691212,275.84581787922434,None,9.422138559917585,9.021984772691212,9.95737731489193,False,False,False,285.3599557821617,None,285.3599557821617,None,285.3599557821617,None,285.3599557821617,None,285.3599557821617,None,285.3599557821617,None,285.3599557821617,None,285.3599557821617,None,286.3765246396388,None,286.3765246396388,None,287.3596337079525,None,287.3596337079525,None,c,,,,,,,,,,,,,,,,,,,,,,,,,,,,,,,,,,,,,,,,,,,,,,,1_2Exp,001,2021_Apr_22_1117,ComputerHuman,2020.1.3,59.9889155096734,
Computer.xlsx,c,Sychronize.jpg,Number6.jpg,6,Computer,,,,,0,1,1,9,0,1,1,1,,,,,,,,,,,,,,,,,,,,,,,,,,,,,288.40956098462266,None,288.40956098462266,None,288.8597087730577,None,288.8597087730577,None,v,5.123953659808649,288.8597087730577,None,t,5.846909531151141,288.8597087730577,None,5.123953659808649,5.846909531151141,5.875138731121437,False,False,True,294.77642115244817,None,294.77642115244817,None,294.77642115244817,None,294.77642115244817,None,294.77642115244817,None,294.77642115244817,None,294.77642115244817,None,294.77642115244817,None,295.7745791702673,None,295.7745791702673,None,296.75768727620743,None,296.75768727620743,None,c,,,,,,,,,,,,,,,,,,,,,,,,,,,,,,,,,,,,,,,,,,,,,,,1_2Exp,001,2021_Apr_22_1117,ComputerHuman,2020.1.3,59.9889155096734,
Computer.xlsx,c,Sychronize.jpg,Number10.jpg,10,Computer,,,,,0,1,1,9,0,2,2,8,,,,,,,,,,,,,,,,,,,,,,,,,,,,,297.8246244980419,None,297.8246244980419,None,298.25782810347664,None,298.25782810347664,None,v,9.5293427568904,298.25782810347664,None,t,10.26465678245313,298.25782810347664,None,9.5293427568904,10.26465678245313,9.395790414040398,False,True,False,308.6052948486731,None,308.6052948486731,None,308.6052948486731,None,308.6052948486731,None,308.6052948486731,None,308.6052948486731,None,308.6052948486731,None,308.6052948486731,None,309.6050718988963,None,309.6050718988963,None,310.5715681613601,None,310.5715681613601,None,c,,,,,,,,,,,,,,,,,,,,,,,,,,,,,,,,,,,,,,,,,,,,,,,1_2Exp,001,2021_Apr_22_1117,ComputerHuman,2020.1.3,59.9889155096734,
Computer.xlsx,c,Sychronize.jpg,Number9.jpg,9,Computer,,,,,0,1,1,9,0,3,3,6,,,,,,,,,,,,,,,,,,,,,,,,,,,,,311.6378509694623,None,311.6378509694623,None,312.0718632891212,None,312.0718632891212,None,v,8.590843853675324,312.0718632891212,None,t,8.625754580735702,312.0718632891212,None,8.590843853675324,8.625754580735702,8.601768712282041,False,True,True,320.7862139406807,None,320.7862139406807,None,320.7862139406807,None,320.7862139406807,None,320.7862139406807,None,320.7862139406807,None,320.7862139406807,None,320.7862139406807,None,321.7858607497401,None,321.7858607497401,None,322.7691186650982,None,322.7691186650982,None,c,,,,,,,,,,,,,,,,,,,,,,,,,,,,,,,,,,,,,,,,,,,,,,,1_2Exp,001,2021_Apr_22_1117,ComputerHuman,2020.1.3,59.9889155096734,
Computer.xlsx,c,Sychronize.jpg,Number8.jpg,8,Computer,,,,,0,1,1,9,0,4,4,4,,,,,,,,,,,,,,,,,,,,,,,,,,,,,323.8026477451276,None,323.8026477451276,None,324.26910358791883,None,324.26910358791883,None,v,8.169201236713889,324.26910358791883,None,t,7.860717019311778,324.26910358791883,None,8.169201236713889,7.860717019311778,7.90638757094454,False,True,True,332.5335759155214,None,332.5335759155214,None,332.5335759155214,None,332.5335759155214,None,332.5335759155214,None,332.5335759155214,None,332.5335759155214,None,332.5335759155214,None,333.53357399077504,None,333.53357399077504,None,334.5166930036112,None,334.5166930036112,None,c,,,,,,,,,,,,,,,,,,,,,,,,,,,,,,,,,,,,,,,,,,,,,,,1_2Exp,001,2021_Apr_22_1117,ComputerHuman,2020.1.3,59.9889155096734,
Computer.xlsx,c,Sychronize.jpg,Number9.jpg,9,Computer,,,,,0,1,1,9,0,5,5,7,,,,,,,,,,,,,,,,,,,,,,,,,,,,,335.5670729164458,None,335.5670729164458,None,336.01693520085064,None,336.01693520085064,None,v,7.937031284183831,336.01693520085064,None,t,8.095810661426185,336.01693520085064,None,7.937031284183831,8.095810661426185,9.171449202127583,False,False,False,344.19793866090276,None,344.19793866090276,None,344.19793866090276,None,344.19793866090276,None,344.19793866090276,None,344.19793866090276,None,344.19793866090276,None,344.19793866090276,None,345.18118342382786,None,345.18118342382786,None,346.16436563250045,None,346.16436563250045,None,c,,,,,,,,,,,,,,,,,,,,,,,,,,,,,,,,,,,,,,,,,,,,,,,1_2Exp,001,2021_Apr_22_1117,ComputerHuman,2020.1.3,59.9889155096734,
Computer.xlsx,c,Sychronize.jpg,Number7.jpg,7,Computer,,,,,0,1,1,9,0,6,6,2,,,,,,,,,,,,,,,,,,,,,,,,,,,,,347.2307437155423,None,347.2307437155423,None,347.66474673226185,None,347.66474673226185,None,v,7.036784146763239,347.66474673226185,None,t,7.295830614628358,347.66474673226185,None,7.036784146763239,7.295830614628358,6.935693516577659,False,True,False,355.04562963903936,None,355.04562963903936,None,355.04562963903936,None,355.04562963903936,None,355.04562963903936,None,355.04562963903936,None,355.04562963903936,None,355.04562963903936,None,356.0455289106512,None,356.0455289106512,None,357.0287926002484,None,357.0287926002484,None,c,,,,,,,,,,,,,,,,,,,,,,,,,,,,,,,,,,,,,,,,,,,,,,,1_2Exp,001,2021_Apr_22_1117,ComputerHuman,2020.1.3,59.9889155096734,
Computer.xlsx,c,Sychronize.jpg,Number8.jpg,8,Computer,,,,,0,1,1,9,0,7,7,5,,,,,,,,,,,,,,,,,,,,,,,,,,,,,358.0791311310386,None,358.0791311310386,None,358.5289343898903,None,358.5289343898903,None,v,8.53620704367313,358.5289343898903,None,t,8.235952078950504,358.5289343898903,None,8.53620704367313,8.235952078950504,7.786385373807317,False,False,False,367.17677158458537,None,367.17677158458537,None,367.17677158458537,None,367.17677158458537,None,367.17677158458537,None,367.17677158458537,None,367.17677158458537,None,367.17677158458537,None,368.15987840736216,None,368.15987840736216,None,369.1430108934219,None,369.1430108934219,None,c,,,,,,,,,,,,,,,,,,,,,,,,,,,,,,,,,,,,,,,,,,,,,,,1_2Exp,001,2021_Apr_22_1117,ComputerHuman,2020.1.3,59.9889155096734,
Computer.xlsx,c,Sychronize.jpg,Number6.jpg,6,Computer,,,,,0,1,1,9,0,8,8,0,,,,,,,,,,,,,,,,,,,,,,,,,,,,,370.209956455823,None,370.209956455823,None,370.64307505163106,None,370.64307505163106,None,v,5.893716794116699,370.64307505163106,None,t,5.696606094900744,370.64307505163106,None,5.893716794116699,5.696606094900744,5.723086882454839,False,True,True,376.6092158776164,None,376.6092158776164,None,376.6092158776164,None,376.6092158776164,None,376.6092158776164,None,376.6092158776164,None,376.6092158776164,None,376.6092158776164,None,377.62463630315233,None,377.62463630315233,None,378.5910587836752,None,378.5910587836752,None,c,,,,,,,,,,,,,,,,,,,,,,,,,,,,,,,,,,,,,,,,,,,,,,,1_2Exp,001,2021_Apr_22_1117,ComputerHuman,2020.1.3,59.9889155096734,
Computer.xlsx,c,Sychronize.jpg,Number7.jpg,7,Computer,,,,,0,1,1,9,0,9,9,3,,,,,,,,,,,,,,,,,,,,,,,,,,,,,379.65753951985243,None,379.65753951985243,None,380.0910385738398,None,380.0910385738398,None,v,7.91336203771607,380.0910385738398,None,t,6.376825220848332,380.0910385738398,None,7.91336203771607,6.376825220848332,7.320332577586979,False,False,False,388.074163360915,None,388.074163360915,None,388.074163360915,None,388.074163360915,None,388.074163360915,None,388.074163360915,None,388.074163360915,None,388.074163360915,None,389.0889332222114,None,389.0889332222114,None,390.0721372446742,None,390.0721372446742,None,c,,,,,,,,,,,,,,,,,,,,,,,,,,,,,,,,,,,,,,,,,,,,,,,1_2Exp,001,2021_Apr_22_1117,ComputerHuman,2020.1.3,59.9889155096734,
Computer.xlsx,c,,,,,,,,,0,1,1,9,,,,,,,,,,,,,,,,,,,,,,,,,,,,,,,,,,,,,,,,,,,,,,,,,,,,,,,,,,,,,,,,,,,,,,,,,,,,,,,c,391.07343067416787,None,391.07343067416787,None,a,1,5.698700218843442,391.07343067416787,None,o,0,3.3300070509876605,391.07343067416787,None,c,h,396.87095057444003,None,396.87095057444003,None,398.8536785429924,None,None,None,None,None,None,None,None,,,,,,,,,,,,,,,,,,1_2Exp,001,2021_Apr_22_1117,ComputerHuman,2020.1.3,59.9889155096734,
Computer.xlsx,c,Sychronize.jpg,Number8.jpg,8,Computer,,,,,0,2,2,3,0,0,0,5,,,,,,,,,,,,,,,,,,,,,,,,,403.87189947435127,None,403.87189947435127,None,406.9523772861976,None,406.9523772861976,None,407.38585516797593,None,407.38585516797593,None,v,7.925640635756281,407.38585516797593,None,t,6.964787408566735,407.38585516797593,None,7.925640635756281,6.964787408566735,7.481829310799539,False,False,False,415.38518920576644,None,415.38518920576644,None,415.38518920576644,None,415.38518920576644,None,415.38518920576644,None,415.38518920576644,None,415.38518920576644,None,415.38518920576644,None,416.3999616333904,None,416.3999616333904,None,417.3998897761967,None,417.3998897761967,None,c,,,,,,,,,,,,,,,,,,,,,,,,,,,,,,,,,,,,,,,,,,,,,,,1_2Exp,001,2021_Apr_22_1117,ComputerHuman,2020.1.3,59.9889155096734,
Computer.xlsx,c,Sychronize.jpg,Number6.jpg,6,Computer,,,,,0,2,2,3,0,1,1,1,,,,,,,,,,,,,,,,,,,,,,,,,,,,,418.4670977456726,None,418.4670977456726,None,418.9001849039578,None,418.9001849039578,None,v,5.91100486511732,418.9001849039578,None,t,5.154509969223,418.9001849039578,None,5.91100486511732,5.154509969223,5.7306678925262355,False,True,False,424.898404192867,None,424.898404192867,None,424.898404192867,None,424.898404192867,None,424.898404192867,None,424.898404192867,None,424.898404192867,None,424.898404192867,None,425.89805870091186,None,425.89805870091186,None,426.86462297107664,None,426.86462297107664,None,c,,,,,,,,,,,,,,,,,,,,,,,,,,,,,,,,,,,,,,,,,,,,,,,1_2Exp,001,2021_Apr_22_1117,ComputerHuman,2020.1.3,59.9889155096734,
Computer.xlsx,c,Sychronize.jpg,Number9.jpg,9,Computer,,,,,0,2,2,3,0,2,2,7,,,,,,,,,,,,,,,,,,,,,,,,,,,,,427.9316840182537,None,427.9316840182537,None,428.36501882722587,None,428.36501882722587,None,v,9.913799917492724,428.36501882722587,None,t,8.39273421114649,428.36501882722587,None,9.913799917492724,8.39273421114649,8.594164955594666,False,False,True,438.36225777870095,None,438.36225777870095,None,438.36225777870095,None,438.36225777870095,None,438.36225777870095,None,438.36225777870095,None,438.36225777870095,None,438.36225777870095,None,439.36212304646233,None,439.36212304646233,None,440.3452776671047,None,440.3452776671047,None,c,,,,,,,,,,,,,,,,,,,,,,,,,,,,,,,,,,,,,,,,,,,,,,,1_2Exp,001,2021_Apr_22_1117,ComputerHuman,2020.1.3,59.9889155096734,
Computer.xlsx,c,Sychronize.jpg,Number10.jpg,10,Computer,,,,,0,2,2,3,0,3,3,8,,,,,,,,,,,,,,,,,,,,,,,,,,,,,441.3958429971635,None,441.3958429971635,None,441.8455243554181,None,441.8455243554181,None,v,11.068665002402668,441.8455243554181,None,t,9.767895809634865,441.8455243554181,None,11.068665002402668,9.767895809634865,9.738064890554353,False,False,True,453.0093632490225,None,453.0093632490225,None,453.0093632490225,None,453.0093632490225,None,453.0093632490225,None,453.0093632490225,None,453.0093632490225,None,453.0093632490225,None,454.0091852099931,None,454.0091852099931,None,454.9922602744555,None,454.9922602744555,None,c,,,,,,,,,,,,,,,,,,,,,,,,,,,,,,,,,,,,,,,,,,,,,,,1_2Exp,001,2021_Apr_22_1117,ComputerHuman,2020.1.3,59.9889155096734,
Computer.xlsx,c,Sychronize.jpg,Number7.jpg,7,Computer,,,,,0,2,2,3,0,4,4,3,,,,,,,,,,,,,,,,,,,,,,,,,,,,,456.0606218085295,None,456.0606218085295,None,456.4924055927995,None,456.4924055927995,None,v,6.9653959491788555,456.4924055927995,None,t,7.660806135064377,456.4924055927995,None,6.9653959491788555,7.660806135064377,7.422833382177043,False,False,True,464.24021154244656,None,464.24021154244656,None,464.24021154244656,None,464.24021154244656,None,464.24021154244656,None,464.24021154244656,None,464.24021154244656,None,464.24021154244656,None,465.2235740356855,None,465.2235740356855,None,466.20668021688016,None,466.20668021688016,None,c,,,,,,,,,,,,,,,,,,,,,,,,,,,,,,,,,,,,,,,,,,,,,,,1_2Exp,001,2021_Apr_22_1117,ComputerHuman,2020.1.3,59.9889155096734,
Computer.xlsx,c,Sychronize.jpg,Number7.jpg,7,Computer,,,,,0,2,2,3,0,5,5,2,,,,,,,,,,,,,,,,,,,,,,,,,,,,,467.27347853619176,None,467.27347853619176,None,467.7236128514023,None,467.7236128514023,None,v,6.80178160930609,467.7236128514023,None,t,7.0487823734301855,467.7236128514023,None,6.80178160930609,7.0487823734301855,7.1056488422890025,False,False,True,474.87156296454486,None,474.87156296454486,None,474.87156296454486,None,474.87156296454486,None,474.87156296454486,None,474.87156296454486,None,474.87156296454486,None,474.87156296454486,None,475.87136022460436,None,475.87136022460436,None,476.8378067644562,None,476.8378067644562,None,c,,,,,,,,,,,,,,,,,,,,,,,,,,,,,,,,,,,,,,,,,,,,,,,1_2Exp,001,2021_Apr_22_1117,ComputerHuman,2020.1.3,59.9889155096734,
Computer.xlsx,c,Sychronize.jpg,Number10.jpg,10,Computer,,,,,0,2,2,3,0,6,6,9,,,,,,,,,,,,,,,,,,,,,,,,,,,,,477.9045637017234,None,477.9045637017234,None,478.3381692583371,None,478.3381692583371,None,v,10.166796587039244,478.3381692583371,None,t,10.025700816157041,478.3381692583371,None,10.166796587039244,10.025700816157041,10.159068049597828,False,True,True,488.60205838781985,None,488.60205838781985,None,488.60205838781985,None,488.60205838781985,None,488.60205838781985,None,488.60205838781985,None,488.60205838781985,None,488.60205838781985,None,489.6018133034613,None,489.6018133034613,None,490.58510778899836,None,490.58510778899836,None,c,,,,,,,,,,,,,,,,,,,,,,,,,,,,,,,,,,,,,,,,,,,,,,,1_2Exp,001,2021_Apr_22_1117,ComputerHuman,2020.1.3,59.9889155096734,
Computer.xlsx,c,Sychronize.jpg,Number9.jpg,9,Computer,,,,,0,2,2,3,0,7,7,6,,,,,,,,,,,,,,,,,,,,,,,,,,,,,491.61799304140004,None,491.61799304140004,None,492.08438344281876,None,492.08438344281876,None,v,9.124247183614898,492.08438344281876,None,t,9.455917215379486,492.08438344281876,None,9.124247183614898,9.455917215379486,8.646343887032021,False,False,False,501.63273274833864,None,501.63273274833864,None,501.63273274833864,None,501.63273274833864,None,501.63273274833864,None,501.63273274833864,None,501.63273274833864,None,501.63273274833864,None,502.6325421984575,None,502.6325421984575,None,503.6156977814726,None,503.6156977814726,None,c,,,,,,,,,,,,,,,,,,,,,,,,,,,,,,,,,,,,,,,,,,,,,,,1_2Exp,001,2021_Apr_22_1117,ComputerHuman,2020.1.3,59.9889155096734,
Computer.xlsx,c,Sychronize.jpg,Number6.jpg,6,Computer,,,,,0,2,2,3,0,8,8,0,,,,,,,,,,,,,,,,,,,,,,,,,,,,,504.66543322509824,None,504.66543322509824,None,505.11565543705547,None,505.11565543705547,None,v,6.812531958807995,505.11565543705547,None,t,5.859862752759909,505.11565543705547,None,6.812531958807995,5.859862752759909,6.12672780246433,False,False,True,512.0140105488927,None,512.0140105488927,None,512.0140105488927,None,512.0140105488927,None,512.0140105488927,None,512.0140105488927,None,512.0140105488927,None,512.0140105488927,None,512.997156508176,None,512.997156508176,None,513.9803707959527,None,513.9803707959527,None,c,,,,,,,,,,,,,,,,,,,,,,,,,,,,,,,,,,,,,,,,,,,,,,,1_2Exp,001,2021_Apr_22_1117,ComputerHuman,2020.1.3,59.9889155096734,
Computer.xlsx,c,Sychronize.jpg,Number8.jpg,8,Computer,,,,,0,2,2,3,0,9,9,4,,,,,,,,,,,,,,,,,,,,,,,,,,,,,515.0301161841007,None,515.0301161841007,None,515.4802357429226,None,515.4802357429226,None,v,8.263481083273291,515.4802357429226,None,t,7.842768439550127,515.4802357429226,None,8.263481083273291,7.842768439550127,7.573466223905411,False,False,True,523.8283084624036,None,523.8283084624036,None,523.8283084624036,None,523.8283084624036,None,523.8283084624036,None,523.8283084624036,None,523.8283084624036,None,523.8283084624036,None,524.828160577732,None,524.828160577732,None,525.7946039096723,None,525.7946039096723,None,c,,,,,,,,,,,,,,,,,,,,,,,,,,,,,,,,,,,,,,,,,,,,,,,1_2Exp,001,2021_Apr_22_1117,ComputerHuman,2020.1.3,59.9889155096734,
Computer.xlsx,c,,,,,,,,,0,2,2,3,,,,,,,,,,,,,,,,,,,,,,,,,,,,,,,,,,,,,,,,,,,,,,,,,,,,,,,,,,,,,,,,,,,,,,,,,,,,,,,c,526.7953308221804,None,526.7953308221804,None,q,0,3.1242385222567464,526.7953308221804,None,l,0,3.0239223506023336,526.7953308221804,None,h,c,530.0107426505165,None,530.0107426505165,None,531.9933541719192,None,None,None,None,None,None,None,None,,,,,,,,,,,,,,,,,,1_2Exp,001,2021_Apr_22_1117,ComputerHuman,2020.1.3,59.9889155096734,
Human.xlsx,h,Sychronize.jpg,Number8.jpg,8,Human,,,,,0,3,3,6,0,0,0,4,,,,,,,,,,,,,,,,,,,,,,,,,537.0112453300844,None,537.0112453300844,None,540.0752271040201,None,540.0752271040201,None,540.524965883872,None,540.524965883872,None,v,8.365976388496165,540.524965883872,None,t,6.80480153620465,540.524965883872,None,8.365976388496165,6.80480153620465,7.7290543132642675,False,False,False,548.9746190125152,None,548.9746190125152,None,548.9746190125152,None,548.9746190125152,None,548.9746190125152,None,548.9746190125152,None,548.9746190125152,None,548.9746190125152,None,549.99245499462,None,549.99245499462,None,550.9894629765431,None,550.9894629765431,None,h,,,,,,,,,,,,,,,,,,,,,,,,,,,,,,,,,,,,,,,,,,,,,,,1_2Exp,001,2021_Apr_22_1117,ComputerHuman,2020.1.3,59.9889155096734,
Human.xlsx,h,Sychronize.jpg,Number7.jpg,7,Human,,,,,0,3,3,6,0,1,1,2,,,,,,,,,,,,,,,,,,,,,,,,,,,,,552.039304922795,None,552.039304922795,None,552.4897398192152,None,552.4897398192152,None,v,6.300802234245566,552.4897398192152,None,t,7.379737041164844,552.4897398192152,None,6.300802234245566,7.379737041164844,7.42931233826131,False,False,False,559.9542952958554,None,559.9542952958554,None,559.9542952958554,None,559.9542952958554,None,559.9542952958554,None,559.9542952958554,None,559.9542952958554,None,559.9542952958554,None,560.9233209957092,None,560.9233209957092,None,561.920629558841,None,561.920629558841,None,h,,,,,,,,,,,,,,,,,,,,,,,,,,,,,,,,,,,,,,,,,,,,,,,1_2Exp,001,2021_Apr_22_1117,ComputerHuman,2020.1.3,59.9889155096734,
Human.xlsx,h,Sychronize.jpg,Number10.jpg,10,Human,,,,,0,3,3,6,0,2,2,9,,,,,,,,,,,,,,,,,,,,,,,,,,,,,562.987293145914,None,562.987293145914,None,563.4205076582448,None,563.4205076582448,None,v,10.485566969301544,563.4205076582448,None,t,8.964715551372137,563.4205076582448,None,10.485566969301544,8.964715551372137,9.496354397785137,False,False,False,574.0013761935834,None,574.0013761935834,None,574.0013761935834,None,574.0013761935834,None,574.0013761935834,None,574.0013761935834,None,574.0013761935834,None,574.0013761935834,None,574.98765403584,None,574.98765403584,None,575.9678172799868,None,575.9678172799868,None,h,,,,,,,,,,,,,,,,,,,,,,,,,,,,,,,,,,,,,,,,,,,,,,,1_2Exp,001,2021_Apr_22_1117,ComputerHuman,2020.1.3,59.9889155096734,
Human.xlsx,h,Sychronize.jpg,Number8.jpg,8,Human,,,,,0,3,3,6,0,3,3,5,,,,,,,,,,,,,,,,,,,,,,,,,,,,,577.0521327151046,None,577.0521327151046,None,577.4676681121509,None,577.4676681121509,None,v,8.149984249159388,577.4676681121509,None,t,7.90981344717602,577.4676681121509,None,8.149984249159388,7.90981344717602,7.413615860117261,True,False,False,585.7157396767834,None,585.7157396767834,None,585.7157396767834,None,585.7157396767834,None,585.7157396767834,None,585.7157396767834,None,585.7157396767834,None,585.7157396767834,None,586.7009207344572,None,586.7009207344572,None,587.6986970109328,None,587.6986970109328,None,h,,,,,,,,,,,,,,,,,,,,,,,,,,,,,,,,,,,,,,,,,,,,,,,1_2Exp,001,2021_Apr_22_1117,ComputerHuman,2020.1.3,59.9889155096734,
Human.xlsx,h,Sychronize.jpg,Number7.jpg,7,Human,,,,,0,3,3,6,0,4,4,3,,,,,,,,,,,,,,,,,,,,,,,,,,,,,588.7491888798422,None,588.7491888798422,None,589.1986777634702,None,589.1986777634702,None,v,6.739204579356738,589.1986777634702,None,t,6.881965255763134,589.1986777634702,None,6.739204579356738,6.881965255763134,6.6302703465424875,True,False,False,596.1649751354862,None,596.1649751354862,None,596.1649751354862,None,596.1649751354862,None,596.1649751354862,None,596.1649751354862,None,596.1649751354862,None,596.1649751354862,None,597.1482160489195,None,597.1482160489195,None,598.1465623710819,None,598.1465623710819,None,h,,,,,,,,,,,,,,,,,,,,,,,,,,,,,,,,,,,,,,,,,,,,,,,1_2Exp,001,2021_Apr_22_1117,ComputerHuman,2020.1.3,59.9889155096734,
Human.xlsx,h,Sychronize.jpg,Number9.jpg,9,Human,,,,,0,3,3,6,0,5,5,6,,,,,,,,,,,,,,,,,,,,,,,,,,,,,599.2144096771108,None,599.2144096771108,None,599.6467449011861,None,599.6467449011861,None,v,9.450097745031599,599.6467449011861,None,t,9.101747220505786,599.6467449011861,None,9.450097745031599,9.101747220505786,9.576527488690989,False,False,False,609.1943721060634,None,609.1943721060634,None,609.1943721060634,None,609.1943721060634,None,609.1943721060634,None,609.1943721060634,None,609.1943721060634,None,609.1943721060634,None,610.1794158651701,None,610.1794158651701,None,611.160667553333,None,611.160667553333,None,h,,,,,,,,,,,,,,,,,,,,,,,,,,,,,,,,,,,,,,,,,,,,,,,1_2Exp,001,2021_Apr_22_1117,ComputerHuman,2020.1.3,59.9889155096734,
Human.xlsx,h,Sychronize.jpg,Number10.jpg,10,Human,,,,,0,3,3,6,0,6,6,8,,,,,,,,,,,,,,,,,,,,,,,,,,,,,612.2266866711961,None,612.2266866711961,None,612.6608212122437,None,612.6608212122437,None,v,10.143568428258732,612.6608212122437,None,t,9.73474750857622,612.6608212122437,None,10.143568428258732,9.73474750857622,9.864919163269954,False,False,False,622.8915668525324,None,622.8915668525324,None,622.8915668525324,None,622.8915668525324,None,622.8915668525324,None,622.8915668525324,None,622.8915668525324,None,622.8915668525324,None,623.8770180162664,None,623.8770180162664,None,624.874480879891,None,624.874480879891,None,h,,,,,,,,,,,,,,,,,,,,,,,,,,,,,,,,,,,,,,,,,,,,,,,1_2Exp,001,2021_Apr_22_1117,ComputerHuman,2020.1.3,59.9889155096734,
Human.xlsx,h,Sychronize.jpg,Number9.jpg,9,Human,,,,,0,3,3,6,0,7,7,7,,,,,,,,,,,,,,,,,,,,,,,,,,,,,625.9244286871881,None,625.9244286871881,None,626.3580849287873,None,626.3580849287873,None,v,9.549808263192062,626.3580849287873,None,t,8.744803345465698,626.3580849287873,None,9.549808263192062,8.744803345465698,8.85736582373423,False,False,False,636.0055721404524,None,636.0055721404524,None,636.0055721404524,None,636.0055721404524,None,636.0055721404524,None,636.0055721404524,None,636.0055721404524,None,636.0055721404524,None,636.9915150768584,None,636.9915150768584,None,637.9885448725718,None,637.9885448725718,None,h,,,,,,,,,,,,,,,,,,,,,,,,,,,,,,,,,,,,,,,,,,,,,,,1_2Exp,001,2021_Apr_22_1117,ComputerHuman,2020.1.3,59.9889155096734,
Human.xlsx,h,Sychronize.jpg,Number6.jpg,6,Human,,,,,0,3,3,6,0,8,8,0,,,,,,,,,,,,,,,,,,,,,,,,,,,,,639.0552424634952,None,639.0552424634952,None,639.4887915608851,None,639.4887915608851,None,v,6.270840671428232,639.4887915608851,None,t,6.485912461256703,639.4887915608851,None,6.270840671428232,6.485912461256703,5.65819559704635,True,False,False,646.0701788153438,None,646.0701788153438,None,646.0701788153438,None,646.0701788153438,None,646.0701788153438,None,646.0701788153438,None,646.0701788153438,None,646.0701788153438,None,647.056139074466,None,647.056139074466,None,648.053156038538,None,648.053156038538,None,h,,,,,,,,,,,,,,,,,,,,,,,,,,,,,,,,,,,,,,,,,,,,,,,1_2Exp,001,2021_Apr_22_1117,ComputerHuman,2020.1.3,59.9889155096734,
Human.xlsx,h,Sychronize.jpg,Number6.jpg,6,Human,,,,,0,3,3,6,0,9,9,1,,,,,,,,,,,,,,,,,,,,,,,,,,,,,649.1033344945963,None,649.1033344945963,None,649.5531018248521,None,649.5531018248521,None,v,5.802150198216623,649.5531018248521,None,t,6.305810744832343,649.5531018248521,None,5.802150198216623,6.305810744832343,6.122543534284293,False,False,False,655.9513600577939,None,655.9513600577939,None,655.9513600577939,None,655.9513600577939,None,655.9513600577939,None,655.9513600577939,None,655.9513600577939,None,655.9513600577939,None,656.9365010165866,None,656.9365010165866,None,657.9343985520773,None,657.9343985520773,None,h,,,,,,,,,,,,,,,,,,,,,,,,,,,,,,,,,,,,,,,,,,,,,,,1_2Exp,001,2021_Apr_22_1117,ComputerHuman,2020.1.3,59.9889155096734,
Human.xlsx,h,,,,,,,,,0,3,3,6,,,,,,,,,,,,,,,,,,,,,,,,,,,,,,,,,,,,,,,,,,,,,,,,,,,,,,,,,,,,,,,,,,,,,,,,,,,,,,,h,658.9353044659883,None,658.9353044659883,None,q,1,2.931825166314411,658.9353044659883,None,o,0,1.798953194661408,658.9353044659883,None,h,h,661.9504345756286,None,661.9504345756286,None,663.9332558943752,None,None,None,None,None,None,None,None,,,,,,,,,,,,,,,,,,1_2Exp,001,2021_Apr_22_1117,ComputerHuman,2020.1.3,59.9889155096734,
Human.xlsx,h,Sychronize.jpg,Number10.jpg,10,Human,,,,,0,4,4,2,0,0,0,8,,,,,,,,,,,,,,,,,,,,,,,,,668.9520359645257,None,668.9520359645257,None,672.014973242819,None,672.014973242819,None,672.4655326061638,None,672.4655326061638,None,v,9.508839718037962,672.4655326061638,None,t,8.220241658309533,672.4655326061638,None,9.508839718037962,8.220241658309533,9.296707189603353,False,False,False,682.0628760072032,None,682.0628760072032,None,682.0628760072032,None,682.0628760072032,None,682.0628760072032,None,682.0628760072032,None,682.0628760072032,None,682.0628760072032,None,683.0490130221915,None,683.0490130221915,None,684.0624894539942,None,684.0624894539942,None,h,,,,,,,,,,,,,,,,,,,,,,,,,,,,,,,,,,,,,,,,,,,,,,,1_2Exp,001,2021_Apr_22_1117,ComputerHuman,2020.1.3,59.9889155096734,
Human.xlsx,h,Sychronize.jpg,Number8.jpg,8,Human,,,,,0,4,4,2,0,1,1,5,,,,,,,,,,,,,,,,,,,,,,,,,,,,,685.1125235540821,None,685.1125235540821,None,685.5627749580244,None,685.5627749580244,None,v,7.819192222485981,685.5627749580244,None,t,7.514752859371583,685.5627749580244,None,7.819192222485981,7.514752859371583,8.111724896066857,False,False,False,693.477203305174,None,693.477203305174,None,693.477203305174,None,693.477203305174,None,693.477203305174,None,693.477203305174,None,693.477203305174,None,693.477203305174,None,694.4465103387747,None,694.4465103387747,None,695.4429983184127,None,695.4429983184127,None,h,,,,,,,,,,,,,,,,,,,,,,,,,,,,,,,,,,,,,,,,,,,,,,,1_2Exp,001,2021_Apr_22_1117,ComputerHuman,2020.1.3,59.9889155096734,
Human.xlsx,h,Sychronize.jpg,Number6.jpg,6,Human,,,,,0,4,4,2,0,2,2,1,,,,,,,,,,,,,,,,,,,,,,,,,,,,,696.494019171756,None,696.494019171756,None,696.9437406288916,None,696.9437406288916,None,v,5.569883366792055,696.9437406288916,None,t,6.43275000689664,696.9437406288916,None,5.569883366792055,6.43275000689664,6.257527757499556,False,False,False,703.4600092259498,None,703.4600092259498,None,703.4600092259498,None,703.4600092259498,None,703.4600092259498,None,703.4600092259498,None,703.4600092259498,None,703.4600092259498,None,704.4611525252349,None,704.4611525252349,None,705.4582217782472,None,705.4582217782472,None,h,,,,,,,,,,,,,,,,,,,,,,,,,,,,,,,,,,,,,,,,,,,,,,,1_2Exp,001,2021_Apr_22_1117,ComputerHuman,2020.1.3,59.9889155096734,
Human.xlsx,h,Sychronize.jpg,Number7.jpg,7,Human,,,,,0,4,4,2,0,3,3,2,,,,,,,,,,,,,,,,,,,,,,,,,,,,,706.508310733604,None,706.508310733604,None,706.9584376706207,None,706.9584376706207,None,v,7.582802905340031,706.9584376706207,None,t,6.141868556510417,706.9584376706207,None,7.582802905340031,6.141868556510417,7.371623050856486,False,False,False,714.6396198112843,None,714.6396198112843,None,714.6396198112843,None,714.6396198112843,None,714.6396198112843,None,714.6396198112843,None,714.6396198112843,None,714.6396198112843,None,715.6084238445264,None,715.6084238445264,None,716.6059037100767,None,716.6059037100767,None,h,,,,,,,,,,,,,,,,,,,,,,,,,,,,,,,,,,,,,,,,,,,,,,,1_2Exp,001,2021_Apr_22_1117,ComputerHuman,2020.1.3,59.9889155096734,
Human.xlsx,h,Sychronize.jpg,Number10.jpg,10,Human,,,,,0,4,4,2,0,4,4,9,,,,,,,,,,,,,,,,,,,,,,,,,,,,,717.6726770076866,None,717.6726770076866,None,718.1228652157924,None,718.1228652157924,None,v,10.173934508583443,718.1228652157924,None,t,10.396670317269127,718.1228652157924,None,10.173934508583443,10.396670317269127,10.591364775628792,True,False,False,728.6034839832237,None,728.6034839832237,None,728.6034839832237,None,728.6034839832237,None,728.6034839832237,None,728.6034839832237,None,728.6034839832237,None,728.6034839832237,None,729.5720618587784,None,729.5720618587784,None,730.5696950624479,None,730.5696950624479,None,h,,,,,,,,,,,,,,,,,,,,,,,,,,,,,,,,,,,,,,,,,,,,,,,1_2Exp,001,2021_Apr_22_1117,ComputerHuman,2020.1.3,59.9889155096734,
Human.xlsx,h,Sychronize.jpg,Number8.jpg,8,Human,,,,,0,4,4,2,0,5,5,4,,,,,,,,,,,,,,,,,,,,,,,,,,,,,731.619614319342,None,731.619614319342,None,732.0698628361642,None,732.0698628361642,None,v,7.5185356273750585,732.0698628361642,None,t,8.005744726035118,732.0698628361642,None,7.5185356273750585,8.005744726035118,7.775252350086246,False,False,False,740.1678401203089,None,740.1678401203089,None,740.1678401203089,None,740.1678401203089,None,740.1678401203089,None,740.1678401203089,None,740.1678401203089,None,740.1678401203089,None,741.1539322245508,None,741.1539322245508,None,742.1507458071001,None,742.1507458071001,None,h,,,,,,,,,,,,,,,,,,,,,,,,,,,,,,,,,,,,,,,,,,,,,,,1_2Exp,001,2021_Apr_22_1117,ComputerHuman,2020.1.3,59.9889155096734,
Human.xlsx,h,Sychronize.jpg,Number9.jpg,9,Human,,,,,0,4,4,2,0,6,6,6,,,,,,,,,,,,,,,,,,,,,,,,,,,,,743.2002515643371,None,743.2002515643371,None,743.6340691638325,None,743.6340691638325,None,v,9.761890922062776,743.6340691638325,None,t,7.188851612969302,743.6340691638325,None,9.761890922062776,7.188851612969302,8.670639330731829,False,False,False,753.4658694367608,None,753.4658694367608,None,753.4658694367608,None,753.4658694367608,None,753.4658694367608,None,753.4658694367608,None,753.4658694367608,None,753.4658694367608,None,754.4675089997927,None,754.4675089997927,None,755.4647232503576,None,755.4647232503576,None,h,,,,,,,,,,,,,,,,,,,,,,,,,,,,,,,,,,,,,,,,,,,,,,,1_2Exp,001,2021_Apr_22_1117,ComputerHuman,2020.1.3,59.9889155096734,
Human.xlsx,h,Sychronize.jpg,Number6.jpg,6,Human,,,,,0,4,4,2,0,7,7,0,,,,,,,,,,,,,,,,,,,,,,,,,,,,,756.5147740315797,None,756.5147740315797,None,756.9647720105959,None,756.9647720105959,None,v,5.978791862429716,756.9647720105959,None,t,6.841914493787954,756.9647720105959,None,5.978791862429716,6.841914493787954,5.734411503195715,False,False,False,763.8813980971954,None,763.8813980971954,None,763.8813980971954,None,763.8813980971954,None,763.8813980971954,None,763.8813980971954,None,763.8813980971954,None,763.8813980971954,None,764.8651798643305,None,764.8651798643305,None,765.8624685384184,None,765.8624685384184,None,h,,,,,,,,,,,,,,,,,,,,,,,,,,,,,,,,,,,,,,,,,,,,,,,1_2Exp,001,2021_Apr_22_1117,ComputerHuman,2020.1.3,59.9889155096734,
Human.xlsx,h,Sychronize.jpg,Number9.jpg,9,Human,,,,,0,4,4,2,0,8,8,7,,,,,,,,,,,,,,,,,,,,,,,,,,,,,766.9294266116704,None,766.9294266116704,None,767.3794133629999,None,767.3794133629999,None,v,9.695712691840527,767.3794133629999,None,t,7.7187903996218665,767.3794133629999,None,9.695712691840527,7.7187903996218665,8.89194329436236,False,False,False,777.1601170758995,None,777.1601170758995,None,777.1601170758995,None,777.1601170758995,None,777.1601170758995,None,777.1601170758995,None,777.1601170758995,None,777.1601170758995,None,778.1293904264403,None,778.1293904264403,None,779.1266152631097,None,779.1266152631097,None,h,,,,,,,,,,,,,,,,,,,,,,,,,,,,,,,,,,,,,,,,,,,,,,,1_2Exp,001,2021_Apr_22_1117,ComputerHuman,2020.1.3,59.9889155096734,
Human.xlsx,h,Sychronize.jpg,Number7.jpg,7,Human,,,,,0,4,4,2,0,9,9,3,,,,,,,,,,,,,,,,,,,,,,,,,,,,,780.1767362975706,None,780.1767362975706,None,780.6264523012587,None,780.6264523012587,None,v,8.24429970352503,780.6264523012587,None,t,7.127837797782377,780.6264523012587,None,8.24429970352503,7.127837797782377,7.016524934196115,False,False,False,788.9577989756499,None,788.9577989756499,None,788.9577989756499,None,788.9577989756499,None,788.9577989756499,None,788.9577989756499,None,788.9577989756499,None,788.9577989756499,None,789.9432408364428,None,789.9432408364428,None,790.9407781235905,None,790.9407781235905,None,h,,,,,,,,,,,,,,,,,,,,,,,,,,,,,,,,,,,,,,,,,,,,,,,1_2Exp,001,2021_Apr_22_1117,ComputerHuman,2020.1.3,59.9889155096734,
Human.xlsx,h,,,,,,,,,0,4,4,2,,,,,,,,,,,,,,,,,,,,,,,,,,,,,,,,,,,,,,,,,,,,,,,,,,,,,,,,,,,,,,,,,,,,,,,,,,,,,,,h,791.9417145126508,None,791.9417145126508,None,a,0,4.76869425854602,791.9417145126508,None,o,0,2.307978971504781,791.9417145126508,None,c,h,796.8068042346986,None,796.8068042346986,None,None,None,798.7892515110861,None,798.7892515110861,None,"['space', 'space']",799.7723560883251,None,"[4.729868276780508, 7.814253965137141]",,,,,,,,,,,,,,,,,1_2Exp,001,2021_Apr_22_1117,ComputerHuman,2020.1.3,59.9889155096734,
Computer.xlsx,c,Sychronize.jpg,Number9.jpg,9,Computer,,,,,0,5,5,7,0,0,0,7,,,,,,,,,,,,,,,,,,,,,,,,,807.6402905853602,None,807.6402905853602,None,810.6868187601167,None,810.6868187601167,None,811.1369594911484,None,811.1369594911484,None,v,10.016626920656563,811.1369594911484,None,t,8.223779341954469,811.1369594911484,None,10.016626920656563,8.223779341954469,8.335767239362754,False,False,True,821.2359199998455,None,821.2359199998455,None,821.2359199998455,None,821.2359199998455,None,821.2359199998455,None,821.2359199998455,None,821.2359199998455,None,821.2359199998455,None,822.2677524160372,None,822.2677524160372,None,823.2509317375898,None,823.2509317375898,None,c,,,,,,,,,,,,,,,,,,,,,,,,,,,,,,,,,,,,,,,,,,,,,,,1_2Exp,001,2021_Apr_22_1117,ComputerHuman,2020.1.3,59.9889155096734,
Computer.xlsx,c,Sychronize.jpg,Number6.jpg,6,Computer,,,,,0,5,5,7,0,1,1,0,,,,,,,,,,,,,,,,,,,,,,,,,,,,,824.3013661849027,None,824.3013661849027,None,824.7512785127101,None,824.7512785127101,None,v,6.1100120809906,824.7512785127101,None,t,5.848784875600359,824.7512785127101,None,6.1100120809906,5.848784875600359,5.7565755657041455,False,False,True,830.934026113674,None,830.934026113674,None,830.934026113674,None,830.934026113674,None,830.934026113674,None,830.934026113674,None,830.934026113674,None,830.934026113674,None,831.9324879206133,None,831.9324879206133,None,832.9156104621507,None,832.9156104621507,None,c,,,,,,,,,,,,,,,,,,,,,,,,,,,,,,,,,,,,,,,,,,,,,,,1_2Exp,001,2021_Apr_22_1117,ComputerHuman,2020.1.3,59.9889155096734,
Computer.xlsx,c,Sychronize.jpg,Number7.jpg,7,Computer,,,,,0,5,5,7,0,2,2,3,,,,,,,,,,,,,,,,,,,,,,,,,,,,,833.9821422041041,None,833.9821422041041,None,834.4320923852547,None,834.4320923852547,None,v,7.528820509070101,834.4320923852547,None,t,6.479834433325777,834.4320923852547,None,7.528820509070101,6.479834433325777,6.508811603428699,False,False,True,842.0471456975183,None,842.0471456975183,None,842.0471456975183,None,842.0471456975183,None,842.0471456975183,None,842.0471456975183,None,842.0471456975183,None,842.0471456975183,None,843.0468871399362,None,843.0468871399362,None,844.0134315210562,None,844.0134315210562,None,c,,,,,,,,,,,,,,,,,,,,,,,,,,,,,,,,,,,,,,,,,,,,,,,1_2Exp,001,2021_Apr_22_1117,ComputerHuman,2020.1.3,59.9889155096734,
Computer.xlsx,c,Sychronize.jpg,Number9.jpg,9,Computer,,,,,0,5,5,7,0,3,3,6,,,,,,,,,,,,,,,,,,,,,,,,,,,,,845.079767901263,None,845.079767901263,None,845.5136923241762,None,845.5136923241762,None,v,9.982733101209305,845.5136923241762,None,t,8.793771136120085,845.5136923241762,None,9.982733101209305,8.793771136120085,8.99657702481906,False,False,True,855.5792539940085,None,855.5792539940085,None,855.5792539940085,None,855.5792539940085,None,855.5792539940085,None,855.5792539940085,None,855.5792539940085,None,855.5792539940085,None,856.5941698152301,None,856.5941698152301,None,857.5773106418574,None,857.5773106418574,None,c,,,,,,,,,,,,,,,,,,,,,,,,,,,,,,,,,,,,,,,,,,,,,,,1_2Exp,001,2021_Apr_22_1117,ComputerHuman,2020.1.3,59.9889155096734,
Computer.xlsx,c,Sychronize.jpg,Number6.jpg,6,Computer,,,,,0,5,5,7,0,4,4,1,,,,,,,,,,,,,,,,,,,,,,,,,,,,,858.5933431367075,None,858.5933431367075,None,859.0607379348885,None,859.0607379348885,None,v,5.647374614008186,859.0607379348885,None,t,5.802899245307344,859.0607379348885,None,5.647374614008186,5.802899245307344,5.92382734757004,False,True,True,864.9590744408451,None,864.9590744408451,None,864.9590744408451,None,864.9590744408451,None,864.9590744408451,None,864.9590744408451,None,864.9590744408451,None,864.9590744408451,None,865.9422665940392,None,865.9422665940392,None,866.9420580798596,None,866.9420580798596,None,c,,,,,,,,,,,,,,,,,,,,,,,,,,,,,,,,,,,,,,,,,,,,,,,1_2Exp,001,2021_Apr_22_1117,ComputerHuman,2020.1.3,59.9889155096734,
Computer.xlsx,c,Sychronize.jpg,Number8.jpg,8,Computer,,,,,0,5,5,7,0,5,5,5,,,,,,,,,,,,,,,,,,,,,,,,,,,,,868.0090953885001,None,868.0090953885001,None,868.4422467049944,None,868.4422467049944,None,v,8.197563976962556,868.4422467049944,None,t,7.892823711847996,868.4422467049944,None,8.197563976962556,7.892823711847996,7.754971992806636,False,False,True,876.7233956758646,None,876.7233956758646,None,876.7233956758646,None,876.7233956758646,None,876.7233956758646,None,876.7233956758646,None,876.7233956758646,None,876.7233956758646,None,877.7232157120889,None,877.7232157120889,None,878.6896853488952,None,878.6896853488952,None,c,,,,,,,,,,,,,,,,,,,,,,,,,,,,,,,,,,,,,,,,,,,,,,,1_2Exp,001,2021_Apr_22_1117,ComputerHuman,2020.1.3,59.9889155096734,
Computer.xlsx,c,Sychronize.jpg,Number7.jpg,7,Computer,,,,,0,5,5,7,0,6,6,2,,,,,,,,,,,,,,,,,,,,,,,,,,,,,879.7395965860132,None,879.7395965860132,None,880.1898961086117,None,880.1898961086117,None,v,7.313464498375652,880.1898961086117,None,t,6.848798669615462,880.1898961086117,None,7.313464498375652,6.848798669615462,6.90385090483807,False,False,True,887.5879567342699,None,887.5879567342699,None,887.5879567342699,None,887.5879567342699,None,887.5879567342699,None,887.5879567342699,None,887.5879567342699,None,887.5879567342699,None,888.5875499712247,None,888.5875499712247,None,889.5708521557481,None,889.5708521557481,None,c,,,,,,,,,,,,,,,,,,,,,,,,,,,,,,,,,,,,,,,,,,,,,,,1_2Exp,001,2021_Apr_22_1117,ComputerHuman,2020.1.3,59.9889155096734,
Computer.xlsx,c,Sychronize.jpg,Number8.jpg,8,Computer,,,,,0,5,5,7,0,7,7,4,,,,,,,,,,,,,,,,,,,,,,,,,,,,,890.6210405563288,None,890.6210405563288,None,891.0710735015691,None,891.0710735015691,None,v,8.331883357809602,891.0710735015691,None,t,7.662816853334334,891.0710735015691,None,8.331883357809602,7.662816853334334,7.603198506665497,False,False,True,899.4854194054196,None,899.4854194054196,None,899.4854194054196,None,899.4854194054196,None,899.4854194054196,None,899.4854194054196,None,899.4854194054196,None,899.4854194054196,None,900.5018394158524,None,900.5018394158524,None,901.4850639689421,None,901.4850639689421,None,c,,,,,,,,,,,,,,,,,,,,,,,,,,,,,,,,,,,,,,,,,,,,,,,1_2Exp,001,2021_Apr_22_1117,ComputerHuman,2020.1.3,59.9889155096734,
Computer.xlsx,c,Sychronize.jpg,Number10.jpg,10,Computer,,,,,0,5,5,7,0,8,8,9,,,,,,,,,,,,,,,,,,,,,,,,,,,,,902.535384535433,None,902.535384535433,None,902.9851762458075,None,902.9851762458075,None,v,9.485334075002356,902.9851762458075,None,t,9.288671200085446,902.9851762458075,None,9.485334075002356,9.288671200085446,9.626977622333811,False,True,False,912.5505130411184,None,912.5505130411184,None,912.5505130411184,None,912.5505130411184,None,912.5505130411184,None,912.5505130411184,None,912.5505130411184,None,912.5505130411184,None,913.5493880269232,None,913.5493880269232,None,914.5325346277887,None,914.5325346277887,None,c,,,,,,,,,,,,,,,,,,,,,,,,,,,,,,,,,,,,,,,,,,,,,,,1_2Exp,001,2021_Apr_22_1117,ComputerHuman,2020.1.3,59.9889155096734,
Computer.xlsx,c,Sychronize.jpg,Number10.jpg,10,Computer,,,,,0,5,5,7,0,9,9,8,,,,,,,,,,,,,,,,,,,,,,,,,,,,,915.5995302335932,None,915.5995302335932,None,916.0322677296399,None,916.0322677296399,None,v,10.337854883113323,916.0322677296399,None,t,9.632634907070496,916.0322677296399,None,10.337854883113323,9.632634907070496,9.253599394891657,False,False,False,926.4299761267303,None,926.4299761267303,None,926.4299761267303,None,926.4299761267303,None,926.4299761267303,None,926.4299761267303,None,926.4299761267303,None,926.4299761267303,None,927.4464625409082,None,927.4464625409082,None,928.42961684076,None,928.42961684076,None,c,,,,,,,,,,,,,,,,,,,,,,,,,,,,,,,,,,,,,,,,,,,,,,,1_2Exp,001,2021_Apr_22_1117,ComputerHuman,2020.1.3,59.9889155096734,
Computer.xlsx,c,,,,,,,,,0,5,5,7,,,,,,,,,,,,,,,,,,,,,,,,,,,,,,,,,,,,,,,,,,,,,,,,,,,,,,,,,,,,,,,,,,,,,,,,,,,,,,,c,929.4300005068499,None,929.4300005068499,None,q,0,4.18779973913297,929.4300005068499,None,l,0,3.6269046166326007,929.4300005068499,None,h,c,933.7123793905866,None,933.7123793905866,None,935.7115533536453,None,None,None,None,None,None,None,None,,,,,,,,,,,,,,,,,,1_2Exp,001,2021_Apr_22_1117,ComputerHuman,2020.1.3,59.9889155096734,
Computer.xlsx,c,Sychronize.jpg,Number10.jpg,10,Computer,,,,,0,6,6,1,0,0,0,8,,,,,,,,,,,,,,,,,,,,,,,,,940.7140561653787,None,940.7140561653787,None,943.7603232162255,None,943.7603232162255,None,944.210054297092,None,944.210054297092,None,v,9.203116228370163,944.210054297092,None,t,9.234667310814984,944.210054297092,None,9.203116228370163,9.234667310814984,9.352049082024076,False,True,True,953.5410278914978,None,953.5410278914978,None,953.5410278914978,None,953.5410278914978,None,953.5410278914978,None,953.5410278914978,None,953.5410278914978,None,953.5410278914978,None,954.5576172796018,None,954.5576172796018,None,955.5407892229605,None,955.5407892229605,None,c,,,,,,,,,,,,,,,,,,,,,,,,,,,,,,,,,,,,,,,,,,,,,,,1_2Exp,001,2021_Apr_22_1117,ComputerHuman,2020.1.3,59.9889155096734,
Computer.xlsx,c,Sychronize.jpg,Number7.jpg,7,Computer,,,,,0,6,6,1,0,1,1,2,,,,,,,,,,,,,,,,,,,,,,,,,,,,,956.5743532692131,None,956.5743532692131,None,957.0410522716174,None,957.0410522716174,None,v,6.9517103616144595,957.0410522716174,None,t,6.822880036339484,957.0410522716174,None,6.9517103616144595,6.822880036339484,6.785235661482209,False,True,True,964.0889386756589,None,964.0889386756589,None,964.0889386756589,None,964.0889386756589,None,964.0889386756589,None,964.0889386756589,None,964.0889386756589,None,964.0889386756589,None,965.0722039692118,None,965.0722039692118,None,966.0553255483755,None,966.0553255483755,None,c,,,,,,,,,,,,,,,,,,,,,,,,,,,,,,,,,,,,,,,,,,,,,,,1_2Exp,001,2021_Apr_22_1117,ComputerHuman,2020.1.3,59.9889155096734,
Computer.xlsx,c,Sychronize.jpg,Number9.jpg,9,Computer,,,,,0,6,6,1,0,2,2,6,,,,,,,,,,,,,,,,,,,,,,,,,,,,,967.1223173046874,None,967.1223173046874,None,967.5722642779283,None,967.5722642779283,None,v,9.992068120619479,967.5722642779283,None,t,8.527732065053897,967.5722642779283,None,9.992068120619479,8.527732065053897,9.379324810832653,False,False,False,977.6529621524305,None,977.6529621524305,None,977.6529621524305,None,977.6529621524305,None,977.6529621524305,None,977.6529621524305,None,977.6529621524305,None,977.6529621524305,None,978.636198574789,None,978.636198574789,None,979.6191822138044,None,979.6191822138044,None,c,,,,,,,,,,,,,,,,,,,,,,,,,,,,,,,,,,,,,,,,,,,,,,,1_2Exp,001,2021_Apr_22_1117,ComputerHuman,2020.1.3,59.9889155096734,
Computer.xlsx,c,Sychronize.jpg,Number9.jpg,9,Computer,,,,,0,6,6,1,0,3,3,7,,,,,,,,,,,,,,,,,,,,,,,,,,,,,980.6689619265935,None,980.6689619265935,None,981.1191004120883,None,981.1191004120883,None,v,10.144837477632791,981.1191004120883,None,t,9.43570513400391,981.1191004120883,None,10.144837477632791,9.43570513400391,9.404676785448828,False,False,True,991.3501123089445,None,991.3501123089445,None,991.3501123089445,None,991.3501123089445,None,991.3501123089445,None,991.3501123089445,None,991.3501123089445,None,991.3501123089445,None,992.349715169631,None,992.349715169631,None,993.3164786510351,None,993.3164786510351,None,c,,,,,,,,,,,,,,,,,,,,,,,,,,,,,,,,,,,,,,,,,,,,,,,1_2Exp,001,2021_Apr_22_1117,ComputerHuman,2020.1.3,59.9889155096734,
Computer.xlsx,c,Sychronize.jpg,Number10.jpg,10,Computer,,,,,0,6,6,1,0,4,4,9,,,,,,,,,,,,,,,,,,,,,,,,,,,,,994.3834027204357,None,994.3834027204357,None,994.8167288680497,None,994.8167288680497,None,v,9.998583707536454,994.8167288680497,None,t,10.037698722032474,994.8167288680497,None,9.998583707536454,10.037698722032474,9.717076895605222,False,True,False,1004.9320859694335,None,1004.9320859694335,None,1004.9320859694335,None,1004.9320859694335,None,1004.9320859694335,None,1004.9320859694335,None,1004.9320859694335,None,1004.9320859694335,None,1005.9471807920581,None,1005.9471807920581,None,1006.9302901811634,None,1006.9302901811634,None,c,,,,,,,,,,,,,,,,,,,,,,,,,,,,,,,,,,,,,,,,,,,,,,,1_2Exp,001,2021_Apr_22_1117,ComputerHuman,2020.1.3,59.9889155096734,
Computer.xlsx,c,Sychronize.jpg,Number6.jpg,6,Computer,,,,,0,6,6,1,0,5,5,0,,,,,,,,,,,,,,,,,,,,,,,,,,,,,1007.9803691919979,None,1007.9803691919979,None,1008.4302805574316,None,1008.4302805574316,None,v,6.700678537218664,1008.4302805574316,None,t,5.847958197076878,1008.4302805574316,None,6.700678537218664,5.847958197076878,5.9818503507245095,False,False,True,1015.2136830853933,None,1015.2136830853933,None,1015.2136830853933,None,1015.2136830853933,None,1015.2136830853933,None,1015.2136830853933,None,1015.2136830853933,None,1015.2136830853933,None,1016.211799079586,None,1016.211799079586,None,1017.2115831872125,None,1017.2115831872125,None,c,,,,,,,,,,,,,,,,,,,,,,,,,,,,,,,,,,,,,,,,,,,,,,,1_2Exp,001,2021_Apr_22_1117,ComputerHuman,2020.1.3,59.9889155096734,
Computer.xlsx,c,Sychronize.jpg,Number6.jpg,6,Computer,,,,,0,6,6,1,0,6,6,1,,,,,,,,,,,,,,,,,,,,,,,,,,,,,1018.2617747957038,None,1018.2617747957038,None,1018.7119357365709,None,1018.7119357365709,None,v,5.634695347952402,1018.7119357365709,None,t,4.949838866657956,1018.7119357365709,None,5.634695347952402,4.949838866657956,5.590251581872134,False,True,False,1024.428442745535,None,1024.428442745535,None,1024.428442745535,None,1024.428442745535,None,1024.428442745535,None,1024.428442745535,None,1024.428442745535,None,1024.428442745535,None,1025.4430605518755,None,1025.4430605518755,None,1026.4097146435333,None,1026.4097146435333,None,c,,,,,,,,,,,,,,,,,,,,,,,,,,,,,,,,,,,,,,,,,,,,,,,1_2Exp,001,2021_Apr_22_1117,ComputerHuman,2020.1.3,59.9889155096734,
Computer.xlsx,c,Sychronize.jpg,Number7.jpg,7,Computer,,,,,0,6,6,1,0,7,7,3,,,,,,,,,,,,,,,,,,,,,,,,,,,,,1027.4595177740694,None,1027.4595177740694,None,1027.9096803188913,None,1027.9096803188913,None,v,6.768650630963748,1027.9096803188913,None,t,7.003789183823756,1027.9096803188913,None,6.768650630963748,7.003789183823756,6.722160618221441,False,True,True,1035.0079017250218,None,1035.0079017250218,None,1035.0079017250218,None,1035.0079017250218,None,1035.0079017250218,None,1035.0079017250218,None,1035.0079017250218,None,1035.0079017250218,None,1036.0077098919764,None,1036.0077098919764,None,1036.9909645994248,None,1036.9909645994248,None,c,,,,,,,,,,,,,,,,,,,,,,,,,,,,,,,,,,,,,,,,,,,,,,,1_2Exp,001,2021_Apr_22_1117,ComputerHuman,2020.1.3,59.9889155096734,
Computer.xlsx,c,Sychronize.jpg,Number8.jpg,8,Computer,,,,,0,6,6,1,0,8,8,5,,,,,,,,,,,,,,,,,,,,,,,,,,,,,1038.041197910752,None,1038.041197910752,None,1038.4908215266187,None,1038.4908215266187,None,v,8.231191860632862,1038.4908215266187,None,t,7.502805638480822,1038.4908215266187,None,8.231191860632862,7.502805638480822,8.028183092857057,False,True,False,1046.788682427772,None,1046.788682427772,None,1046.788682427772,None,1046.788682427772,None,1046.788682427772,None,1046.788682427772,None,1046.788682427772,None,1046.788682427772,None,1047.7887815522045,None,1047.7887815522045,None,1048.7718197256982,None,1048.7718197256982,None,c,,,,,,,,,,,,,,,,,,,,,,,,,,,,,,,,,,,,,,,,,,,,,,,1_2Exp,001,2021_Apr_22_1117,ComputerHuman,2020.1.3,59.9889155096734,
Computer.xlsx,c,Sychronize.jpg,Number8.jpg,8,Computer,,,,,0,6,6,1,0,9,9,4,,,,,,,,,,,,,,,,,,,,,,,,,,,,,1049.8388836599952,None,1049.8388836599952,None,1050.288771607682,None,1050.288771607682,None,v,7.632709009800237,1050.288771607682,None,t,8.151806983876668,1050.288771607682,None,7.632709009800237,8.151806983876668,8.56942958967342,False,False,False,1058.53648837742,None,1058.53648837742,None,1058.53648837742,None,1058.53648837742,None,1058.53648837742,None,1058.53648837742,None,1058.53648837742,None,1058.53648837742,None,1059.5364027262112,None,1059.5364027262112,None,1060.5028037137326,None,1060.5028037137326,None,c,,,,,,,,,,,,,,,,,,,,,,,,,,,,,,,,,,,,,,,,,,,,,,,1_2Exp,001,2021_Apr_22_1117,ComputerHuman,2020.1.3,59.9889155096734,
Computer.xlsx,c,,,,,,,,,0,6,6,1,,,,,,,,,,,,,,,,,,,,,,,,,,,,,,,,,,,,,,,,,,,,,,,,,,,,,,,,,,,,,,,,,,,,,,,,,,,,,,,c,1061.5030914633007,None,1061.5030914633007,None,a,0,2.2222722656260885,1061.5030914633007,None,l,1,2.7619056784496934,1061.5030914633007,None,c,c,1064.352974406649,None,1064.352974406649,None,1066.334923173752,None,None,None,None,None,None,None,None,,,,,,,,,,,,,,,,,,1_2Exp,001,2021_Apr_22_1117,ComputerHuman,2020.1.3,59.9889155096734,
Human.xlsx,h,Sychronize.jpg,Number10.jpg,10,Human,,,,,0,7,7,4,0,0,0,9,,,,,,,,,,,,,,,,,,,,,,,,,1071.3533250312612,None,1071.3533250312612,None,1074.4181033293626,None,1074.4181033293626,None,1074.8670882502574,None,1074.8670882502574,None,v,9.781465270840272,1074.8670882502574,None,t,9.916693773509905,1074.8670882502574,None,9.781465270840272,9.916693773509905,10.053184865327843,True,False,False,1084.897961501225,None,1084.897961501225,None,1084.897961501225,None,1084.897961501225,None,1084.897961501225,None,1084.897961501225,None,1084.897961501225,None,1084.897961501225,None,1085.882512525286,None,1085.882512525286,None,1086.8807834615527,None,1086.8807834615527,None,h,,,,,,,,,,,,,,,,,,,,,,,,,,,,,,,,,,,,,,,,,,,,,,,1_2Exp,001,2021_Apr_22_1117,ComputerHuman,2020.1.3,59.9889155096734,
Human.xlsx,h,Sychronize.jpg,Number10.jpg,10,Human,,,,,0,7,7,4,0,1,1,8,,,,,,,,,,,,,,,,,,,,,,,,,,,,,1087.9144321966414,None,1087.9144321966414,None,1088.3806281986872,None,1088.3806281986872,None,v,10.071875479181472,1088.3806281986872,None,t,10.222741262132331,1088.3806281986872,None,10.071875479181472,10.222741262132331,9.472279390802,True,False,False,1098.6783405735878,None,1098.6783405735878,None,1098.6783405735878,None,1098.6783405735878,None,1098.6783405735878,None,1098.6783405735878,None,1098.6783405735878,None,1098.6783405735878,None,1099.6633362140365,None,1099.6633362140365,None,1100.6779366976607,None,1100.6779366976607,None,h,,,,,,,,,,,,,,,,,,,,,,,,,,,,,,,,,,,,,,,,,,,,,,,1_2Exp,001,2021_Apr_22_1117,ComputerHuman,2020.1.3,59.9889155096734,
Human.xlsx,h,Sychronize.jpg,Number8.jpg,8,Human,,,,,0,7,7,4,0,2,2,4,,,,,,,,,,,,,,,,,,,,,,,,,,,,,1101.7279246038397,None,1101.7279246038397,None,1102.1777795100497,None,1102.1777795100497,None,v,8.733938152769042,1102.1777795100497,None,t,8.47272089190119,1102.1777795100497,None,8.733938152769042,8.47272089190119,8.257522643490963,True,False,False,1110.9939145938752,None,1110.9939145938752,None,1110.9939145938752,None,1110.9939145938752,None,1110.9939145938752,None,1110.9939145938752,None,1110.9939145938752,None,1110.9939145938752,None,1111.9952186094724,None,1111.9952186094724,None,1112.975496696814,None,1112.975496696814,None,h,,,,,,,,,,,,,,,,,,,,,,,,,,,,,,,,,,,,,,,,,,,,,,,1_2Exp,001,2021_Apr_22_1117,ComputerHuman,2020.1.3,59.9889155096734,
Human.xlsx,h,Sychronize.jpg,Number6.jpg,6,Human,,,,,0,7,7,4,0,3,3,0,,,,,,,,,,,,,,,,,,,,,,,,,,,,,1114.0425285520068,None,1114.0425285520068,None,1114.4753324517987,None,1114.4753324517987,None,v,6.996046891952574,1114.4753324517987,None,t,5.54281983027613,1114.4753324517987,None,6.996046891952574,5.54281983027613,5.9156176497368875,False,False,False,1121.5571126752875,None,1121.5571126752875,None,1121.5571126752875,None,1121.5571126752875,None,1121.5571126752875,None,1121.5571126752875,None,1121.5571126752875,None,1121.5571126752875,None,1122.542940447709,None,1122.542940447709,None,1123.5400722549748,None,1123.5400722549748,None,h,,,,,,,,,,,,,,,,,,,,,,,,,,,,,,,,,,,,,,,,,,,,,,,1_2Exp,001,2021_Apr_22_1117,ComputerHuman,2020.1.3,59.9889155096734,
Human.xlsx,h,Sychronize.jpg,Number8.jpg,8,Human,,,,,0,7,7,4,0,4,4,5,,,,,,,,,,,,,,,,,,,,,,,,,,,,,1124.5901294520172,None,1124.5901294520172,None,1125.0402721077953,None,1125.0402721077953,None,v,7.226659083165941,1125.0402721077953,None,t,8.641716180763979,1125.0402721077953,None,7.226659083165941,8.641716180763979,7.653498850383284,False,False,False,1133.7712554542486,None,1133.7712554542486,None,1133.7712554542486,None,1133.7712554542486,None,1133.7712554542486,None,1133.7712554542486,None,1133.7712554542486,None,1133.7712554542486,None,1134.7559838757588,None,1134.7559838757588,None,1135.7541794261306,None,1135.7541794261306,None,h,,,,,,,,,,,,,,,,,,,,,,,,,,,,,,,,,,,,,,,,,,,,,,,1_2Exp,001,2021_Apr_22_1117,ComputerHuman,2020.1.3,59.9889155096734,
Human.xlsx,h,Sychronize.jpg,Number6.jpg,6,Human,,,,,0,7,7,4,0,5,5,1,,,,,,,,,,,,,,,,,,,,,,,,,,,,,1136.8045173153387,None,1136.8045173153387,None,1137.2542961940708,None,1137.2542961940708,None,v,5.920299144065211,1137.2542961940708,None,t,6.211805816197739,1137.2542961940708,None,5.920299144065211,6.211805816197739,6.045720428546317,True,False,False,1143.5525747651645,None,1143.5525747651645,None,1143.5525747651645,None,1143.5525747651645,None,1143.5525747651645,None,1143.5525747651645,None,1143.5525747651645,None,1143.5525747651645,None,1144.5377843732422,None,1144.5377843732422,None,1145.5190068694192,None,1145.5190068694192,None,h,,,,,,,,,,,,,,,,,,,,,,,,,,,,,,,,,,,,,,,,,,,,,,,1_2Exp,001,2021_Apr_22_1117,ComputerHuman,2020.1.3,59.9889155096734,
Human.xlsx,h,Sychronize.jpg,Number7.jpg,7,Human,,,,,0,7,7,4,0,6,6,3,,,,,,,,,,,,,,,,,,,,,,,,,,,,,1146.585498833283,None,1146.585498833283,None,1147.019088029554,None,1147.019088029554,None,v,6.555551385272338,1147.019088029554,None,t,6.686761980103256,1147.019088029554,None,6.555551385272338,6.686761980103256,6.772790394051505,True,False,False,1153.8004150394536,None,1153.8004150394536,None,1153.8004150394536,None,1153.8004150394536,None,1153.8004150394536,None,1153.8004150394536,None,1153.8004150394536,None,1153.8004150394536,None,1154.7857795896052,None,1154.7857795896052,None,1155.7835350146634,None,1155.7835350146634,None,h,,,,,,,,,,,,,,,,,,,,,,,,,,,,,,,,,,,,,,,,,,,,,,,1_2Exp,001,2021_Apr_22_1117,ComputerHuman,2020.1.3,59.9889155096734,
Human.xlsx,h,Sychronize.jpg,Number9.jpg,9,Human,,,,,0,7,7,4,0,7,7,6,,,,,,,,,,,,,,,,,,,,,,,,,,,,,1156.8331058924814,None,1156.8331058924814,None,1157.2834185675129,None,1157.2834185675129,None,v,8.41455345565737,1157.2834185675129,None,t,8.638208651478635,1157.2834185675129,None,8.41455345565737,8.638208651478635,8.695380926610799,True,False,False,1165.9981445445956,None,1165.9981445445956,None,1165.9981445445956,None,1165.9981445445956,None,1165.9981445445956,None,1165.9981445445956,None,1165.9981445445956,None,1165.9981445445956,None,1167.0003009020002,None,1167.0003009020002,None,1167.9977188548783,None,1167.9977188548783,None,h,,,,,,,,,,,,,,,,,,,,,,,,,,,,,,,,,,,,,,,,,,,,,,,1_2Exp,001,2021_Apr_22_1117,ComputerHuman,2020.1.3,59.9889155096734,
Human.xlsx,h,Sychronize.jpg,Number7.jpg,7,Human,,,,,0,7,7,4,0,8,8,2,,,,,,,,,,,,,,,,,,,,,,,,,,,,,1169.0481821733847,None,1169.0481821733847,None,1169.4976373739537,None,1169.4976373739537,None,v,6.5998186247434205,1169.4976373739537,None,t,6.4548804187215865,1169.4976373739537,None,6.5998186247434205,6.4548804187215865,7.4070951407709655,True,False,False,1176.1960370115867,None,1176.1960370115867,None,1176.1960370115867,None,1176.1960370115867,None,1176.1960370115867,None,1176.1960370115867,None,1176.1960370115867,None,1176.1960370115867,None,1177.182005932067,None,1177.182005932067,None,1178.1623356667678,None,1178.1623356667678,None,h,,,,,,,,,,,,,,,,,,,,,,,,,,,,,,,,,,,,,,,,,,,,,,,1_2Exp,001,2021_Apr_22_1117,ComputerHuman,2020.1.3,59.9889155096734,
Human.xlsx,h,Sychronize.jpg,Number9.jpg,9,Human,,,,,0,7,7,4,0,9,9,7,,,,,,,,,,,,,,,,,,,,,,,,,,,,,1179.229215467005,None,1179.229215467005,None,1179.6622086335137,None,1179.6622086335137,None,v,8.6389423005985,1179.6622086335137,None,t,8.42983273313257,1179.6622086335137,None,8.6389423005985,8.42983273313257,8.978150480105883,True,False,False,1188.3935057136096,None,1188.3935057136096,None,1188.3935057136096,None,1188.3935057136096,None,1188.3935057136096,None,1188.3935057136096,None,1188.3935057136096,None,1188.3935057136096,None,1189.3795083171499,None,1189.3795083171499,None,1190.3764874278786,None,1190.3764874278786,None,h,,,,,,,,,,,,,,,,,,,,,,,,,,,,,,,,,,,,,,,,,,,,,,,1_2Exp,001,2021_Apr_22_1117,ComputerHuman,2020.1.3,59.9889155096734,
Human.xlsx,h,,,,,,,,,0,7,7,4,,,,,,,,,,,,,,,,,,,,,,,,,,,,,,,,,,,,,,,,,,,,,,,,,,,,,,,,,,,,,,,,,,,,,,,,,,,,,,,h,1191.3770266776246,None,1191.3770266776246,None,q,0,2.4718993460355705,1191.3770266776246,None,o,1,3.818877205678291,1191.3770266776246,None,h,h,1195.292496312506,None,1195.292496312506,None,1197.2749731016702,None,None,None,None,None,None,None,None,,,,,,,,,,,,,,,,,,1_2Exp,001,2021_Apr_22_1117,ComputerHuman,2020.1.3,59.9889155096734,
Human.xlsx,h,Sychronize.jpg,Number7.jpg,7,Human,,,,,0,8,8,0,0,0,0,3,,,,,,,,,,,,,,,,,,,,,,,,,1202.2937547757756,None,1202.2937547757756,None,1205.373351374621,None,1205.373351374621,None,1205.8072632866842,None,1205.8072632866842,None,v,6.584998399252072,1205.8072632866842,None,t,6.243799269495867,1205.8072632866842,None,6.584998399252072,6.243799269495867,7.205169269614446,False,False,False,1212.4887556322883,None,1212.4887556322883,None,1212.4887556322883,None,1212.4887556322883,None,1212.4887556322883,None,1212.4887556322883,None,1212.4887556322883,None,1212.4887556322883,None,1213.4575170003209,None,1213.4575170003209,None,1214.4549436145571,None,1214.4549436145571,None,h,,,,,,,,,,,,,,,,,,,,,,,,,,,,,,,,,,,,,,,,,,,,,,,1_2Exp,001,2021_Apr_22_1117,ComputerHuman,2020.1.3,59.9889155096734,
Human.xlsx,h,Sychronize.jpg,Number8.jpg,8,Human,,,,,0,8,8,0,0,1,1,5,,,,,,,,,,,,,,,,,,,,,,,,,,,,,1215.5211263358542,None,1215.5211263358542,None,1215.9718906846774,None,1215.9718906846774,None,v,7.619999589387589,1215.9718906846774,None,t,8.04689291417526,1215.9718906846774,None,7.619999589387589,8.04689291417526,8.238632704522576,False,False,False,1224.0872509939709,None,1224.0872509939709,None,1224.0872509939709,None,1224.0872509939709,None,1224.0872509939709,None,1224.0872509939709,None,1224.0872509939709,None,1224.0872509939709,None,1225.0884276555244,None,1225.0884276555244,None,1226.0692148382532,None,1226.0692148382532,None,h,,,,,,,,,,,,,,,,,,,,,,,,,,,,,,,,,,,,,,,,,,,,,,,1_2Exp,001,2021_Apr_22_1117,ComputerHuman,2020.1.3,59.9889155096734,
Human.xlsx,h,Sychronize.jpg,Number9.jpg,9,Human,,,,,0,8,8,0,0,2,2,7,,,,,,,,,,,,,,,,,,,,,,,,,,,,,1227.135538066028,None,1227.135538066028,None,1227.569249162896,None,1227.569249162896,None,v,9.806223602905447,1227.569249162896,None,t,8.238255358653987,1227.569249162896,None,9.806223602905447,8.238255358653987,9.606000051634064,False,False,False,1237.4668821740906,None,1237.4668821740906,None,1237.4668821740906,None,1237.4668821740906,None,1237.4668821740906,None,1237.4668821740906,None,1237.4668821740906,None,1237.4668821740906,None,1238.4528055422415,None,1238.4528055422415,None,1239.4498866645226,None,1239.4498866645226,None,h,,,,,,,,,,,,,,,,,,,,,,,,,,,,,,,,,,,,,,,,,,,,,,,1_2Exp,001,2021_Apr_22_1117,ComputerHuman,2020.1.3,59.9889155096734,
Human.xlsx,h,Sychronize.jpg,Number10.jpg,10,Human,,,,,0,8,8,0,0,3,3,8,,,,,,,,,,,,,,,,,,,,,,,,,,,,,1240.516191927998,None,1240.516191927998,None,1240.9501429765678,None,1240.9501429765678,None,v,10.756802213714764,1240.9501429765678,None,t,10.387751684635077,1240.9501429765678,None,10.756802213714764,10.387751684635077,10.491109525467147,False,False,False,1251.7973861304072,None,1251.7973861304072,None,1251.7973861304072,None,1251.7973861304072,None,1251.7973861304072,None,1251.7973861304072,None,1251.7973861304072,None,1251.7973861304072,None,1252.7834259457086,None,1252.7834259457086,None,1253.780266474705,None,1253.780266474705,None,h,,,,,,,,,,,,,,,,,,,,,,,,,,,,,,,,,,,,,,,,,,,,,,,1_2Exp,001,2021_Apr_22_1117,ComputerHuman,2020.1.3,59.9889155096734,
Human.xlsx,h,Sychronize.jpg,Number10.jpg,10,Human,,,,,0,8,8,0,0,4,4,9,,,,,,,,,,,,,,,,,,,,,,,,,,,,,1254.83066820133,None,1254.83066820133,None,1255.2802068075707,None,1255.2802068075707,None,v,10.502245216523079,1255.2802068075707,None,t,9.861710188388315,1255.2802068075707,None,10.502245216523079,9.861710188388315,10.169407709010066,False,False,False,1265.8776929606247,None,1265.8776929606247,None,1265.8776929606247,None,1265.8776929606247,None,1265.8776929606247,None,1265.8776929606247,None,1265.8776929606247,None,1265.8776929606247,None,1266.862994956522,None,1266.862994956522,None,1267.860749739999,None,1267.860749739999,None,h,,,,,,,,,,,,,,,,,,,,,,,,,,,,,,,,,,,,,,,,,,,,,,,1_2Exp,001,2021_Apr_22_1117,ComputerHuman,2020.1.3,59.9889155096734,
Human.xlsx,h,Sychronize.jpg,Number6.jpg,6,Human,,,,,0,8,8,0,0,5,5,0,,,,,,,,,,,,,,,,,,,,,,,,,,,,,1268.9109705404753,None,1268.9109705404753,None,1269.3608299377593,None,1269.3608299377593,None,v,6.789323047489233,1269.3608299377593,None,t,5.900851507749394,1269.3608299377593,None,6.789323047489233,5.900851507749394,6.244183962688017,False,False,False,1276.2423858641505,None,1276.2423858641505,None,1276.2423858641505,None,1276.2423858641505,None,1276.2423858641505,None,1276.2423858641505,None,1276.2423858641505,None,1276.2423858641505,None,1277.2116957848702,None,1277.2116957848702,None,1278.2086543649712,None,1278.2086543649712,None,h,,,,,,,,,,,,,,,,,,,,,,,,,,,,,,,,,,,,,,,,,,,,,,,1_2Exp,001,2021_Apr_22_1117,ComputerHuman,2020.1.3,59.9889155096734,
Human.xlsx,h,Sychronize.jpg,Number6.jpg,6,Human,,,,,0,8,8,0,0,6,6,1,,,,,,,,,,,,,,,,,,,,,,,,,,,,,1279.2755983234183,None,1279.2755983234183,None,1279.7089154888818,None,1279.7089154888818,None,v,6.516805280476547,1279.7089154888818,None,t,6.435778274362747,1279.7089154888818,None,6.516805280476547,6.435778274362747,5.668549339368139,True,False,False,1286.3075863232662,None,1286.3075863232662,None,1286.3075863232662,None,1286.3075863232662,None,1286.3075863232662,None,1286.3075863232662,None,1286.3075863232662,None,1286.3075863232662,None,1287.309232622909,None,1287.309232622909,None,1288.306622666967,None,1288.306622666967,None,h,,,,,,,,,,,,,,,,,,,,,,,,,,,,,,,,,,,,,,,,,,,,,,,1_2Exp,001,2021_Apr_22_1117,ComputerHuman,2020.1.3,59.9889155096734,
Human.xlsx,h,Sychronize.jpg,Number8.jpg,8,Human,,,,,0,8,8,0,0,7,7,4,,,,,,,,,,,,,,,,,,,,,,,,,,,,,1289.3570211856822,None,1289.3570211856822,None,1289.8066800885645,None,1289.8066800885645,None,v,7.855260042844748,1289.8066800885645,None,t,8.48581173286766,1289.8066800885645,None,7.855260042844748,8.48581173286766,8.067630104314702,False,False,False,1298.3878511298572,None,1298.3878511298572,None,1298.3878511298572,None,1298.3878511298572,None,1298.3878511298572,None,1298.3878511298572,None,1298.3878511298572,None,1298.3878511298572,None,1299.3568893405627,None,1299.3568893405627,None,1300.3707677235452,None,1300.3707677235452,None,h,,,,,,,,,,,,,,,,,,,,,,,,,,,,,,,,,,,,,,,,,,,,,,,1_2Exp,001,2021_Apr_22_1117,ComputerHuman,2020.1.3,59.9889155096734,
Human.xlsx,h,Sychronize.jpg,Number9.jpg,9,Human,,,,,0,8,8,0,0,8,8,6,,,,,,,,,,,,,,,,,,,,,,,,,,,,,1301.4210828365885,None,1301.4210828365885,None,1301.8711366332464,None,1301.8711366332464,None,v,9.469696794720221,1301.8711366332464,None,t,9.408729815026163,1301.8711366332464,None,9.469696794720221,9.408729815026163,9.450313522359705,True,False,False,1311.4351655634655,None,1311.4351655634655,None,1311.4351655634655,None,1311.4351655634655,None,1311.4351655634655,None,1311.4351655634655,None,1311.4351655634655,None,1311.4351655634655,None,1312.404429611066,None,1312.404429611066,None,1313.4015726460184,None,1313.4015726460184,None,h,,,,,,,,,,,,,,,,,,,,,,,,,,,,,,,,,,,,,,,,,,,,,,,1_2Exp,001,2021_Apr_22_1117,ComputerHuman,2020.1.3,59.9889155096734,
Human.xlsx,h,Sychronize.jpg,Number7.jpg,7,Human,,,,,0,8,8,0,0,9,9,2,,,,,,,,,,,,,,,,,,,,,,,,,,,,,1314.4515461165993,None,1314.4515461165993,None,1314.9018276748993,None,1314.9018276748993,None,v,7.250624098976914,1314.9018276748993,None,t,7.2817713054973865,1314.9018276748993,None,7.250624098976914,7.2817713054973865,7.42028622404192,True,False,False,1322.251046901576,None,1322.251046901576,None,1322.251046901576,None,1322.251046901576,None,1322.251046901576,None,1322.251046901576,None,1322.251046901576,None,1322.251046901576,None,1323.2517240914713,None,1323.2517240914713,None,1324.2493755802298,None,1324.2493755802298,None,h,,,,,,,,,,,,,,,,,,,,,,,,,,,,,,,,,,,,,,,,,,,,,,,1_2Exp,001,2021_Apr_22_1117,ComputerHuman,2020.1.3,59.9889155096734,
Human.xlsx,h,,,,,,,,,0,8,8,0,,,,,,,,,,,,,,,,,,,,,,,,,,,,,,,,,,,,,,,,,,,,,,,,,,,,,,,,,,,,,,,,,,,,,,,,,,,,,,,h,1325.2497008623504,None,1325.2497008623504,None,q,0,2.054640980286422,1325.2497008623504,None,o,1,2.9619192158334045,1325.2497008623504,None,h,h,1328.298838672259,None,1328.298838672259,None,1330.2814540431536,None,None,None,None,None,None,None,None,,,,,,,,,,,,,,,,,,1_2Exp,001,2021_Apr_22_1117,ComputerHuman,2020.1.3,59.9889155096734,
Human.xlsx,h,Sychronize.jpg,Number8.jpg,8,Human,,,,,0,9,9,8,0,0,0,4,,,,,,,,,,,,,,,,,,,,,,,,,1335.299979405214,None,1335.299979405214,None,1338.3798887753292,None,1338.3798887753292,None,1338.8132271130016,None,1338.8132271130016,None,v,7.650409297293663,1338.8132271130016,None,t,7.44179984306902,1338.8132271130016,None,7.650409297293663,7.44179984306902,7.913892157419145,True,False,False,1346.5460319110098,None,1346.5460319110098,None,1346.5460319110098,None,1346.5460319110098,None,1346.5460319110098,None,1346.5460319110098,None,1346.5460319110098,None,1346.5460319110098,None,1347.5629080863073,None,1347.5629080863073,None,1348.544413520187,None,1348.544413520187,None,h,,,,,,,,,,,,,,,,,,,,,,,,,,,,,,,,,,,,,,,,,,,,,,,1_2Exp,001,2021_Apr_22_1117,ComputerHuman,2020.1.3,59.9889155096734,
Human.xlsx,h,Sychronize.jpg,Number10.jpg,10,Human,,,,,0,9,9,8,0,1,1,8,,,,,,,,,,,,,,,,,,,,,,,,,,,,,1349.6282519390206,None,1349.6282519390206,None,1350.0611113356645,None,1350.0611113356645,None,v,10.642089260751163,1350.0611113356645,None,t,9.565662077429806,1350.0611113356645,None,10.642089260751163,9.565662077429806,10.17303653095677,False,False,False,1360.7768211788807,None,1360.7768211788807,None,1360.7768211788807,None,1360.7768211788807,None,1360.7768211788807,None,1360.7768211788807,None,1360.7768211788807,None,1360.7768211788807,None,1361.7604348515088,None,1361.7604348515088,None,1362.758190276567,None,1362.758190276567,None,h,,,,,,,,,,,,,,,,,,,,,,,,,,,,,,,,,,,,,,,,,,,,,,,1_2Exp,001,2021_Apr_22_1117,ComputerHuman,2020.1.3,59.9889155096734,
Human.xlsx,h,Sychronize.jpg,Number6.jpg,6,Human,,,,,0,9,9,8,0,2,2,1,,,,,,,,,,,,,,,,,,,,,,,,,,,,,1363.8082696081929,None,1363.8082696081929,None,1364.2581716706864,None,1364.2581716706864,None,v,6.264757831631869,1364.2581716706864,None,t,6.307902302445655,1364.2581716706864,None,6.264757831631869,6.307902302445655,6.227754339724347,True,False,False,1370.6565611071655,None,1370.6565611071655,None,1370.6565611071655,None,1370.6565611071655,None,1370.6565611071655,None,1370.6565611071655,None,1370.6565611071655,None,1370.6565611071655,None,1371.642460736779,None,1371.642460736779,None,1372.6395171581498,None,1372.6395171581498,None,h,,,,,,,,,,,,,,,,,,,,,,,,,,,,,,,,,,,,,,,,,,,,,,,1_2Exp,001,2021_Apr_22_1117,ComputerHuman,2020.1.3,59.9889155096734,
Human.xlsx,h,Sychronize.jpg,Number7.jpg,7,Human,,,,,0,9,9,8,0,3,3,2,,,,,,,,,,,,,,,,,,,,,,,,,,,,,1373.6895560701032,None,1373.6895560701032,None,1374.1398247967627,None,1374.1398247967627,None,v,7.098609884085818,1374.1398247967627,None,t,7.013775088265902,1374.1398247967627,None,7.098609884085818,7.013775088265902,7.032615331017255,True,False,False,1381.3377349072616,None,1381.3377349072616,None,1381.3377349072616,None,1381.3377349072616,None,1381.3377349072616,None,1381.3377349072616,None,1381.3377349072616,None,1381.3377349072616,None,1382.3066964489062,None,1382.3066964489062,None,1383.3207041106798,None,1383.3207041106798,None,h,,,,,,,,,,,,,,,,,,,,,,,,,,,,,,,,,,,,,,,,,,,,,,,1_2Exp,001,2021_Apr_22_1117,ComputerHuman,2020.1.3,59.9889155096734,
Human.xlsx,h,Sychronize.jpg,Number8.jpg,8,Human,,,,,0,9,9,8,0,4,4,5,,,,,,,,,,,,,,,,,,,,,,,,,,,,,1384.3706037993197,None,1384.3706037993197,None,1384.8206152515613,None,1384.8206152515613,None,v,8.513353248041312,1384.8206152515613,None,t,8.708728788493318,1384.8206152515613,None,8.513353248041312,8.708728788493318,7.5944265380607625,True,False,False,1393.6185765603113,None,1393.6185765603113,None,1393.6185765603113,None,1393.6185765603113,None,1393.6185765603113,None,1393.6185765603113,None,1393.6185765603113,None,1393.6185765603113,None,1394.5873080947767,None,1394.5873080947767,None,1395.584911464879,None,1395.584911464879,None,h,,,,,,,,,,,,,,,,,,,,,,,,,,,,,,,,,,,,,,,,,,,,,,,1_2Exp,001,2021_Apr_22_1117,ComputerHuman,2020.1.3,59.9889155096734,
Human.xlsx,h,Sychronize.jpg,Number6.jpg,6,Human,,,,,0,9,9,8,0,5,5,0,,,,,,,,,,,,,,,,,,,,,,,,,,,,,1396.6349109195344,None,1396.6349109195344,None,1397.0848800273561,None,1397.0848800273561,None,v,6.181009234291196,1397.0848800273561,None,t,7.079872158354192,1397.0848800273561,None,6.181009234291196,7.079872158354192,6.170445801854649,False,False,False,1404.2344209432922,None,1404.2344209432922,None,1404.2344209432922,None,1404.2344209432922,None,1404.2344209432922,None,1404.2344209432922,None,1404.2344209432922,None,1404.2344209432922,None,1405.2353140255618,None,1405.2353140255618,None,1406.2327220339175,None,1406.2327220339175,None,h,,,,,,,,,,,,,,,,,,,,,,,,,,,,,,,,,,,,,,,,,,,,,,,1_2Exp,001,2021_Apr_22_1117,ComputerHuman,2020.1.3,59.9889155096734,
Human.xlsx,h,Sychronize.jpg,Number7.jpg,7,Human,,,,,0,9,9,8,0,6,6,3,,,,,,,,,,,,,,,,,,,,,,,,,,,,,1407.2829813293192,None,1407.2829813293192,None,1407.7328676730522,None,1407.7328676730522,None,v,7.064550215667623,1407.7328676730522,None,t,6.69185646268852,1407.7328676730522,None,7.064550215667623,6.69185646268852,7.160538811245695,False,False,False,1414.8809262135692,None,1414.8809262135692,None,1414.8809262135692,None,1414.8809262135692,None,1414.8809262135692,None,1414.8809262135692,None,1414.8809262135692,None,1414.8809262135692,None,1415.8495765878997,None,1415.8495765878997,None,1416.863887718002,None,1416.863887718002,None,h,,,,,,,,,,,,,,,,,,,,,,,,,,,,,,,,,,,,,,,,,,,,,,,1_2Exp,001,2021_Apr_22_1117,ComputerHuman,2020.1.3,59.9889155096734,
Human.xlsx,h,Sychronize.jpg,Number9.jpg,9,Human,,,,,0,9,9,8,0,7,7,7,,,,,,,,,,,,,,,,,,,,,,,,,,,,,1417.914187753866,None,1417.914187753866,None,1418.3640596620007,None,1418.3640596620007,None,v,9.888859696902728,1418.3640596620007,None,t,8.623781074225917,1418.3640596620007,None,9.888859696902728,8.623781074225917,8.598550749001008,False,False,False,1428.3448115577157,None,1428.3448115577157,None,1428.3448115577157,None,1428.3448115577157,None,1428.3448115577157,None,1428.3448115577157,None,1428.3448115577157,None,1428.3448115577157,None,1429.3134468548687,None,1429.3134468548687,None,1430.3111355553883,None,1430.3111355553883,None,h,,,,,,,,,,,,,,,,,,,,,,,,,,,,,,,,,,,,,,,,,,,,,,,1_2Exp,001,2021_Apr_22_1117,ComputerHuman,2020.1.3,59.9889155096734,
Human.xlsx,h,Sychronize.jpg,Number10.jpg,10,Human,,,,,0,9,9,8,0,8,8,9,,,,,,,,,,,,,,,,,,,,,,,,,,,,,1431.3608735653415,None,1431.3608735653415,None,1431.8114332494788,None,1431.8114332494788,None,v,8.997059629282376,1431.8114332494788,None,t,9.50059506738944,1431.8114332494788,None,8.997059629282376,9.50059506738944,10.47609355446303,False,False,False,1441.4088956639953,None,1441.4088956639953,None,1441.4088956639953,None,1441.4088956639953,None,1441.4088956639953,None,1441.4088956639953,None,1441.4088956639953,None,1441.4088956639953,None,1442.3935936103553,None,1442.3935936103553,None,1443.375225435906,None,1443.375225435906,None,h,,,,,,,,,,,,,,,,,,,,,,,,,,,,,,,,,,,,,,,,,,,,,,,1_2Exp,001,2021_Apr_22_1117,ComputerHuman,2020.1.3,59.9889155096734,
Human.xlsx,h,Sychronize.jpg,Number9.jpg,9,Human,,,,,0,9,9,8,0,9,9,6,,,,,,,,,,,,,,,,,,,,,,,,,,,,,1444.4420930460838,None,1444.4420930460838,None,1444.8753893601315,None,1444.8753893601315,None,v,9.240691766641248,1444.8753893601315,None,t,9.391716020369131,1444.8753893601315,None,9.240691766641248,9.391716020369131,9.439137714858816,True,False,False,1454.3562801583685,None,1454.3562801583685,None,1454.3562801583685,None,1454.3562801583685,None,1454.3562801583685,None,1454.3562801583685,None,1454.3562801583685,None,1454.3562801583685,None,1455.3413229551006,None,1455.3413229551006,None,1456.339093457338,None,1456.339093457338,None,h,,,,,,,,,,,,,,,,,,,,,,,,,,,,,,,,,,,,,,,,,,,,,,,1_2Exp,001,2021_Apr_22_1117,ComputerHuman,2020.1.3,59.9889155096734,
Human.xlsx,h,,,,,,,,,0,9,9,8,,,,,,,,,,,,,,,,,,,,,,,,,,,,,,,,,,,,,,,,,,,,,,,,,,,,,,,,,,,,,,,,,,,,,,,,,,,,,,,h,1457.339972424801,None,1457.339972424801,None,a,0,2.1998072687401873,1457.339972424801,None,l,0,2.275022824282132,1457.339972424801,None,c,c,1459.705520878044,None,1459.705520878044,None,None,None,1461.6881304747003,None,1461.6881304747003,None,"['space', 'space']",1462.6711959154309,None,"[413.93838085211064, 418.3382074324727]",,,,,,,,,,,,,,,,,1_2Exp,001,2021_Apr_22_1117,ComputerHuman,2020.1.3,59.9889155096734,
Human.xlsx,h,Sychronize.jpg,Number7.jpg,7,Human,,,,,1,0,10,4,0,0,0,2,,,,,,,,,,,,,,,,,,,,,,,,,1881.0566680589,None,1881.0566680589,None,1884.1523022852507,None,1884.1523022852507,None,1884.5862581456859,None,1884.5862581456859,None,v,6.355205508367362,1884.5862581456859,None,t,6.205818572132557,1884.5862581456859,None,6.355205508367362,6.205818572132557,6.906658894979201,True,False,False,1891.019516927181,None,1891.019516927181,None,1891.019516927181,None,1891.019516927181,None,1891.019516927181,None,1891.019516927181,None,1891.019516927181,None,1891.019516927181,None,1892.0367276875386,None,1892.0367276875386,None,1893.0172932036567,None,1893.0172932036567,None,h,,,,,,,,,,,,,,,,,,,,,,,,,,,,,,,,,,,,,,,,,,,,,,,1_2Exp,001,2021_Apr_22_1117,ComputerHuman,2020.1.3,59.9889155096734,
Human.xlsx,h,Sychronize.jpg,Number8.jpg,8,Human,,,,,1,0,10,4,0,1,1,4,,,,,,,,,,,,,,,,,,,,,,,,,,,,,1894.0839304858637,None,1894.0839304858637,None,1894.517229366238,None,1894.517229366238,None,v,7.335459857171372,1894.517229366238,None,t,7.471159281094515,1894.517229366238,None,7.335459857171372,7.471159281094515,8.54141152838936,True,False,False,1902.0821215451597,None,1902.0821215451597,None,1902.0821215451597,None,1902.0821215451597,None,1902.0821215451597,None,1902.0821215451597,None,1902.0821215451597,None,1902.0821215451597,None,1903.0682081959549,None,1903.0682081959549,None,1904.0650519328628,None,1904.0650519328628,None,h,,,,,,,,,,,,,,,,,,,,,,,,,,,,,,,,,,,,,,,,,,,,,,,1_2Exp,001,2021_Apr_22_1117,ComputerHuman,2020.1.3,59.9889155096734,
Human.xlsx,h,Sychronize.jpg,Number6.jpg,6,Human,,,,,1,0,10,4,0,2,2,0,,,,,,,,,,,,,,,,,,,,,,,,,,,,,1905.1153279093978,None,1905.1153279093978,None,1905.564823208846,None,1905.564823208846,None,v,5.707610510911763,1905.564823208846,None,t,5.930802484463129,1905.564823208846,None,5.707610510911763,5.930802484463129,5.68953235138748,True,False,False,1911.5801980820543,None,1911.5801980820543,None,1911.5801980820543,None,1911.5801980820543,None,1911.5801980820543,None,1911.5801980820543,None,1911.5801980820543,None,1911.5801980820543,None,1912.5489527134741,None,1912.5489527134741,None,1913.5464778105616,None,1913.5464778105616,None,h,,,,,,,,,,,,,,,,,,,,,,,,,,,,,,,,,,,,,,,,,,,,,,,1_2Exp,001,2021_Apr_22_1117,ComputerHuman,2020.1.3,59.9889155096734,
Human.xlsx,h,Sychronize.jpg,Number8.jpg,8,Human,,,,,1,0,10,4,0,3,3,5,,,,,,,,,,,,,,,,,,,,,,,,,,,,,1914.6131843836356,None,1914.6131843836356,None,1915.046365533697,None,1915.046365533697,None,v,7.693586168003094,1915.046365533697,None,t,7.216713598396382,1915.046365533697,None,7.693586168003094,7.216713598396382,7.538052363904853,False,False,False,1922.8278891885075,None,1922.8278891885075,None,1922.8278891885075,None,1922.8278891885075,None,1922.8278891885075,None,1922.8278891885075,None,1922.8278891885075,None,1922.8278891885075,None,1923.8138382199431,None,1923.8138382199431,None,1924.8108863007456,None,1924.8108863007456,None,h,,,,,,,,,,,,,,,,,,,,,,,,,,,,,,,,,,,,,,,,,,,,,,,1_2Exp,001,2021_Apr_22_1117,ComputerHuman,2020.1.3,59.9889155096734,
Human.xlsx,h,Sychronize.jpg,Number7.jpg,7,Human,,,,,1,0,10,4,0,4,4,3,,,,,,,,,,,,,,,,,,,,,,,,,,,,,1925.8608610544907,None,1925.8608610544907,None,1926.2940508659103,None,1926.2940508659103,None,v,6.861554283939768,1926.2940508659103,None,t,7.044800714978919,1926.2940508659103,None,6.861554283939768,7.044800714978919,6.546036303815717,True,False,False,1933.4092806132503,None,1933.4092806132503,None,1933.4092806132503,None,1933.4092806132503,None,1933.4092806132503,None,1933.4092806132503,None,1933.4092806132503,None,1933.4092806132503,None,1934.411144730013,None,1934.411144730013,None,1935.4086739973827,None,1935.4086739973827,None,h,,,,,,,,,,,,,,,,,,,,,,,,,,,,,,,,,,,,,,,,,,,,,,,1_2Exp,001,2021_Apr_22_1117,ComputerHuman,2020.1.3,59.9889155096734,
Human.xlsx,h,Sychronize.jpg,Number10.jpg,10,Human,,,,,1,0,10,4,0,5,5,9,,,,,,,,,,,,,,,,,,,,,,,,,,,,,1936.4584925258896,None,1936.4584925258896,None,1936.908591233294,None,1936.908591233294,None,v,9.570631772299748,1936.908591233294,None,t,9.177734920094736,1936.908591233294,None,9.570631772299748,9.177734920094736,9.946185325100112,False,False,False,1946.5731278474213,None,1946.5731278474213,None,1946.5731278474213,None,1946.5731278474213,None,1946.5731278474213,None,1946.5731278474213,None,1946.5731278474213,None,1946.5731278474213,None,1947.5417538416332,None,1947.5417538416332,None,1948.5393636275567,None,1948.5393636275567,None,h,,,,,,,,,,,,,,,,,,,,,,,,,,,,,,,,,,,,,,,,,,,,,,,1_2Exp,001,2021_Apr_22_1117,ComputerHuman,2020.1.3,59.9889155096734,
Human.xlsx,h,Sychronize.jpg,Number9.jpg,9,Human,,,,,1,0,10,4,0,6,6,7,,,,,,,,,,,,,,,,,,,,,,,,,,,,,1949.6062196892562,None,1949.6062196892562,None,1950.0560421955706,None,1950.0560421955706,None,v,8.562664605904502,1950.0560421955706,None,t,8.554218498480623,1950.0560421955706,None,8.562664605904502,8.554218498480623,9.03948421963088,True,False,False,1958.6883585571322,None,1958.6883585571322,None,1958.6883585571322,None,1958.6883585571322,None,1958.6883585571322,None,1958.6883585571322,None,1958.6883585571322,None,1958.6883585571322,None,1959.7059590786102,None,1959.7059590786102,None,1960.6869246211609,None,1960.6869246211609,None,h,,,,,,,,,,,,,,,,,,,,,,,,,,,,,,,,,,,,,,,,,,,,,,,1_2Exp,001,2021_Apr_22_1117,ComputerHuman,2020.1.3,59.9889155096734,
Human.xlsx,h,Sychronize.jpg,Number9.jpg,9,Human,,,,,1,0,10,4,0,7,7,6,,,,,,,,,,,,,,,,,,,,,,,,,,,,,1961.7374344543696,None,1961.7374344543696,None,1962.1871472501462,None,1962.1871472501462,None,v,8.987218722391844,1962.1871472501462,None,t,8.40679416185958,1962.1871472501462,None,8.987218722391844,8.40679416185958,8.651943181147201,False,False,False,1971.2681591790824,None,1971.2681591790824,None,1971.2681591790824,None,1971.2681591790824,None,1971.2681591790824,None,1971.2681591790824,None,1971.2681591790824,None,1971.2681591790824,None,1972.2535679983976,None,1972.2535679983976,None,1973.2510584500524,None,1973.2510584500524,None,h,,,,,,,,,,,,,,,,,,,,,,,,,,,,,,,,,,,,,,,,,,,,,,,1_2Exp,001,2021_Apr_22_1117,ComputerHuman,2020.1.3,59.9889155096734,
Human.xlsx,h,Sychronize.jpg,Number6.jpg,6,Human,,,,,1,0,10,4,0,8,8,1,,,,,,,,,,,,,,,,,,,,,,,,,,,,,1974.3011769181867,None,1974.3011769181867,None,1974.7512964770085,None,1974.7512964770085,None,v,5.71865598817385,1974.7512964770085,None,t,6.254310308877393,1974.7512964770085,None,5.71865598817385,6.254310308877393,6.212005895280586,False,False,False,1981.0994959089512,None,1981.0994959089512,None,1981.0994959089512,None,1981.0994959089512,None,1981.0994959089512,None,1981.0994959089512,None,1981.0994959089512,None,1981.0994959089512,None,1982.0685248167156,None,1982.0685248167156,None,1983.0657493325944,None,1983.0657493325944,None,h,,,,,,,,,,,,,,,,,,,,,,,,,,,,,,,,,,,,,,,,,,,,,,,1_2Exp,001,2021_Apr_22_1117,ComputerHuman,2020.1.3,59.9889155096734,
Human.xlsx,h,Sychronize.jpg,Number10.jpg,10,Human,,,,,1,0,10,4,0,9,9,8,,,,,,,,,,,,,,,,,,,,,,,,,,,,,1984.1328620271288,None,1984.1328620271288,None,1984.5826970442959,None,1984.5826970442959,None,v,10.378785254133618,1984.5826970442959,None,t,9.937748893751632,1984.5826970442959,None,10.378785254133618,9.937748893751632,9.608521502254847,False,False,False,1995.0465317034577,None,1995.0465317034577,None,1995.0465317034577,None,1995.0465317034577,None,1995.0465317034577,None,1995.0465317034577,None,1995.0465317034577,None,1995.0465317034577,None,1996.0157851649528,None,1996.0157851649528,None,1997.0129227464586,None,1997.0129227464586,None,h,,,,,,,,,,,,,,,,,,,,,,,,,,,,,,,,,,,,,,,,,,,,,,,1_2Exp,001,2021_Apr_22_1117,ComputerHuman,2020.1.3,59.9889155096734,
Human.xlsx,h,,,,,,,,,1,0,10,4,,,,,,,,,,,,,,,,,,,,,,,,,,,,,,,,,,,,,,,,,,,,,,,,,,,,,,,,,,,,,,,,,,,,,,,,,,,,,,,h,1998.0130950112507,None,1998.0130950112507,None,a,0,5.204020538325494,1998.0130950112507,None,o,0,3.183899240815663,1998.0130950112507,None,c,h,2003.294941702643,None,2003.294941702643,None,2005.311247511463,None,None,None,None,None,None,None,None,,,,,,,,,,,,,,,,,,1_2Exp,001,2021_Apr_22_1117,ComputerHuman,2020.1.3,59.9889155096734,
Computer.xlsx,c,Sychronize.jpg,Number10.jpg,10,Computer,,,,,1,1,11,3,0,0,0,8,,,,,,,,,,,,,,,,,,,,,,,,,2010.314290535316,None,2010.314290535316,None,2013.3766276135648,None,2013.3766276135648,None,2013.8099136622986,None,2013.8099136622986,None,v,9.718575790411705,2013.8099136622986,None,t,9.841670371803048,2013.8099136622986,None,9.718575790411705,9.841670371803048,9.633777940133308,False,True,True,2023.7407719644016,None,2023.7407719644016,None,2023.7407719644016,None,2023.7407719644016,None,2023.7407719644016,None,2023.7407719644016,None,2023.7407719644016,None,2023.7407719644016,None,2024.7572779468337,None,2024.7572779468337,None,2025.7404293595664,None,2025.7404293595664,None,c,,,,,,,,,,,,,,,,,,,,,,,,,,,,,,,,,,,,,,,,,,,,,,,1_2Exp,001,2021_Apr_22_1117,ComputerHuman,2020.1.3,59.9889155096734,
Computer.xlsx,c,Sychronize.jpg,Number7.jpg,7,Computer,,,,,1,1,11,3,0,1,1,2,,,,,,,,,,,,,,,,,,,,,,,,,,,,,2026.7905250515341,None,2026.7905250515341,None,2027.2239830442686,None,2027.2239830442686,None,v,8.944116275204578,2027.2239830442686,None,t,6.939855528546104,2027.2239830442686,None,8.944116275204578,6.939855528546104,7.460902192769077,False,False,False,2036.239875032641,None,2036.239875032641,None,2036.239875032641,None,2036.239875032641,None,2036.239875032641,None,2036.239875032641,None,2036.239875032641,None,2036.239875032641,None,2037.2546689532646,None,2037.2546689532646,None,2038.2379037716692,None,2038.2379037716692,None,c,,,,,,,,,,,,,,,,,,,,,,,,,,,,,,,,,,,,,,,,,,,,,,,1_2Exp,001,2021_Apr_22_1117,ComputerHuman,2020.1.3,59.9889155096734,
Computer.xlsx,c,Sychronize.jpg,Number7.jpg,7,Computer,,,,,1,1,11,3,0,2,2,3,,,,,,,,,,,,,,,,,,,,,,,,,,,,,2039.2886747287866,None,2039.2886747287866,None,2039.7380798859522,None,2039.7380798859522,None,v,6.409718493025139,2039.7380798859522,None,t,7.668819174577948,2039.7380798859522,None,6.409718493025139,7.668819174577948,6.494941810738357,False,True,False,2047.5026314489423,None,2047.5026314489423,None,2047.5026314489423,None,2047.5026314489423,None,2047.5026314489423,None,2047.5026314489423,None,2047.5026314489423,None,2047.5026314489423,None,2048.485779974555,None,2048.485779974555,None,2049.468905724003,None,2049.468905724003,None,c,,,,,,,,,,,,,,,,,,,,,,,,,,,,,,,,,,,,,,,,,,,,,,,1_2Exp,001,2021_Apr_22_1117,ComputerHuman,2020.1.3,59.9889155096734,
Computer.xlsx,c,Sychronize.jpg,Number6.jpg,6,Computer,,,,,1,1,11,3,0,3,3,1,,,,,,,,,,,,,,,,,,,,,,,,,,,,,2050.535964525643,None,2050.535964525643,None,2050.9856539036737,None,2050.9856539036737,None,v,5.781752699616845,2050.9856539036737,None,t,5.692847065434762,2050.9856539036737,None,5.781752699616845,5.692847065434762,6.093540742936826,False,False,False,2056.850630065692,None,2056.850630065692,None,2056.850630065692,None,2056.850630065692,None,2056.850630065692,None,2056.850630065692,None,2056.850630065692,None,2056.850630065692,None,2057.850516826453,None,2057.850516826453,None,2058.8170278453035,None,2058.8170278453035,None,c,,,,,,,,,,,,,,,,,,,,,,,,,,,,,,,,,,,,,,,,,,,,,,,1_2Exp,001,2021_Apr_22_1117,ComputerHuman,2020.1.3,59.9889155096734,
Computer.xlsx,c,Sychronize.jpg,Number8.jpg,8,Computer,,,,,1,1,11,3,0,4,4,4,,,,,,,,,,,,,,,,,,,,,,,,,,,,,2059.8841398982568,None,2059.8841398982568,None,2060.31713114002,None,2060.31713114002,None,v,7.4458790219996445,2060.31713114002,None,t,7.44479699380463,2060.31713114002,None,7.4458790219996445,7.44479699380463,7.525717495678143,False,True,True,2067.865137199122,None,2067.865137199122,None,2067.865137199122,None,2067.865137199122,None,2067.865137199122,None,2067.865137199122,None,2067.865137199122,None,2067.865137199122,None,2068.864922269122,None,2068.864922269122,None,2069.8480730402716,None,2069.8480730402716,None,c,,,,,,,,,,,,,,,,,,,,,,,,,,,,,,,,,,,,,,,,,,,,,,,1_2Exp,001,2021_Apr_22_1117,ComputerHuman,2020.1.3,59.9889155096734,
Computer.xlsx,c,Sychronize.jpg,Number10.jpg,10,Computer,,,,,1,1,11,3,0,5,5,9,,,,,,,,,,,,,,,,,,,,,,,,,,,,,2070.8980846849863,None,2070.8980846849863,None,2071.347985785107,None,2071.347985785107,None,v,9.402903608066481,2071.347985785107,None,t,9.769681011801367,2071.347985785107,None,9.402903608066481,9.769681011801367,10.131292475940151,False,False,False,2081.196957361095,None,2081.196957361095,None,2081.196957361095,None,2081.196957361095,None,2081.196957361095,None,2081.196957361095,None,2081.196957361095,None,2081.196957361095,None,2082.195493912348,None,2082.195493912348,None,2083.19542365911,None,2083.19542365911,None,c,,,,,,,,,,,,,,,,,,,,,,,,,,,,,,,,,,,,,,,,,,,,,,,1_2Exp,001,2021_Apr_22_1117,ComputerHuman,2020.1.3,59.9889155096734,
Computer.xlsx,c,Sychronize.jpg,Number9.jpg,9,Computer,,,,,1,1,11,3,0,6,6,6,,,,,,,,,,,,,,,,,,,,,,,,,,,,,2084.2453076289876,None,2084.2453076289876,None,2084.6954358491694,None,2084.6954358491694,None,v,9.390714510725957,2084.6954358491694,None,t,9.289789156877305,2084.6954358491694,None,9.390714510725957,9.289789156877305,9.350333064882811,False,True,True,2094.1764851181815,None,2094.1764851181815,None,2094.1764851181815,None,2094.1764851181815,None,2094.1764851181815,None,2094.1764851181815,None,2094.1764851181815,None,2094.1764851181815,None,2095.1596496833463,None,2095.1596496833463,None,2096.142814248511,None,2096.142814248511,None,c,,,,,,,,,,,,,,,,,,,,,,,,,,,,,,,,,,,,,,,,,,,,,,,1_2Exp,001,2021_Apr_22_1117,ComputerHuman,2020.1.3,59.9889155096734,
Computer.xlsx,c,Sychronize.jpg,Number9.jpg,9,Computer,,,,,1,1,11,3,0,7,7,7,,,,,,,,,,,,,,,,,,,,,,,,,,,,,2097.1929160355103,None,2097.1929160355103,None,2097.6431010357064,None,2097.6431010357064,None,v,9.750518237933647,2097.6431010357064,None,t,9.841730038937385,2097.6431010357064,None,9.750518237933647,9.841730038937385,8.76308229075217,False,False,False,2107.573782902735,None,2107.573782902735,None,2107.573782902735,None,2107.573782902735,None,2107.573782902735,None,2107.573782902735,None,2107.573782902735,None,2107.573782902735,None,2108.573570859855,None,2108.573570859855,None,2109.5403099611394,None,2109.5403099611394,None,c,,,,,,,,,,,,,,,,,,,,,,,,,,,,,,,,,,,,,,,,,,,,,,,1_2Exp,001,2021_Apr_22_1117,ComputerHuman,2020.1.3,59.9889155096734,
Computer.xlsx,c,Sychronize.jpg,Number6.jpg,6,Computer,,,,,1,1,11,3,0,8,8,0,,,,,,,,,,,,,,,,,,,,,,,,,,,,,2110.606839457554,None,2110.606839457554,None,2111.0403741193477,None,2111.0403741193477,None,v,6.012933653353684,2111.0403741193477,None,t,5.491861851976864,2111.0403741193477,None,6.012933653353684,5.491861851976864,6.287863703170328,False,True,False,2117.138537141507,None,2117.138537141507,None,2117.138537141507,None,2117.138537141507,None,2117.138537141507,None,2117.138537141507,None,2117.138537141507,None,2117.138537141507,None,2118.138334722358,None,2118.138334722358,None,2119.1214293550747,None,2119.1214293550747,None,c,,,,,,,,,,,,,,,,,,,,,,,,,,,,,,,,,,,,,,,,,,,,,,,1_2Exp,001,2021_Apr_22_1117,ComputerHuman,2020.1.3,59.9889155096734,
Computer.xlsx,c,Sychronize.jpg,Number8.jpg,8,Computer,,,,,1,1,11,3,0,9,9,5,,,,,,,,,,,,,,,,,,,,,,,,,,,,,2120.188150363745,None,2120.188150363745,None,2120.6214242224178,None,2120.6214242224178,None,v,7.8595705121169885,2120.6214242224178,None,t,8.371367282006759,2120.6214242224178,None,7.8595705121169885,8.371367282006759,8.48603527449916,False,False,True,2129.086017552403,None,2129.086017552403,None,2129.086017552403,None,2129.086017552403,None,2129.086017552403,None,2129.086017552403,None,2129.086017552403,None,2129.086017552403,None,2130.069214838253,None,2130.069214838253,None,2131.052358231209,None,2131.052358231209,None,c,,,,,,,,,,,,,,,,,,,,,,,,,,,,,,,,,,,,,,,,,,,,,,,1_2Exp,001,2021_Apr_22_1117,ComputerHuman,2020.1.3,59.9889155096734,
Computer.xlsx,c,,,,,,,,,1,1,11,3,,,,,,,,,,,,,,,,,,,,,,,,,,,,,,,,,,,,,,,,,,,,,,,,,,,,,,,,,,,,,,,,,,,,,,,,,,,,,,,c,2132.05288946118,None,2132.05288946118,None,q,0,2.563920182055881,2132.05288946118,None,o,0,1.3469756141057587,2132.05288946118,None,h,h,2134.7019074877117,None,2134.7019074877117,None,2136.7012405631285,None,None,None,None,None,None,None,None,,,,,,,,,,,,,,,,,,1_2Exp,001,2021_Apr_22_1117,ComputerHuman,2020.1.3,59.9889155096734,
