Condition,CorrectTuringReply,Sychronize,NumberImage,Number,Partner,trials.thisRepN,trials.thisTrialN,trials.thisN,trials.thisIndex,Block.thisRepN,Block.thisTrialN,Block.thisN,Block.thisIndex,trials_loop.thisRepN,trials_loop.thisTrialN,trials_loop.thisN,trials_loop.thisIndex,key_resp_Istr.keys,key_resp_Istr.rt,key_resp_Istr.started,key_resp_Istr.stopped,key_respPrLeft.keys,key_respPrRight.keys,key_respPrRight.rt,RTPrLeft,RTPrRight,CompPr,SychronizedRTsPr,SychronizedRTsLeftCPr,SychronizedRTsRightCPr,CreditLeftPr.started,CreditLeftPr.stopped,CreditRightPr.started,CreditRightPr.stopped,key_respPrLeft.rt,text_StartExp.started,text_StartExp.stopped,key_startExp.keys,key_startExp.rt,key_startExp.started,key_startExp.stopped,SychroLeft.started,SychroLeft.stopped,SychroRight.started,SychroRight.stopped,NumberLeft.started,NumberLeft.stopped,NumberRight.started,NumberRight.stopped,CrossLeft.started,CrossLeft.stopped,CrossRight.started,CrossRight.stopped,key_respLeft.keys,key_respLeft.rt,key_respLeft.started,key_respLeft.stopped,key_respRight.keys,key_respRight.rt,key_respRight.started,key_respRight.stopped,RTLeft,RTRight,Comp,SychronizedRTs,SychronizedRTsLeftC,SychronizedRTsRightC,FeedbackLeftLeft.started,FeedbackLeftLeft.stopped,FeedbackLeftRight.started,FeedbackLeftRight.stopped,FeedbackRightLeft.started,FeedbackRightLeft.stopped,FeedbackRightRight.started,FeedbackRightRight.stopped,textLeftLeft.started,textLeftLeft.stopped,textLeftRight.started,textLeftRight.stopped,textRightLeft.started,textRightLeft.stopped,textRightRight.started,textRightRight.stopped,CreditLeft.started,CreditLeft.stopped,CreditRight.started,CreditRight.stopped,BlankLeft.started,BlankLeft.stopped,BlankRight.started,BlankRight.stopped,CorrectTuringReply,TuringtextLeft.started,TuringtextLeft.stopped,TuringtextRight.started,TuringtextRight.stopped,keyTuringLeft.keys,keyTuringLeft.corr,keyTuringLeft.rt,keyTuringLeft.started,keyTuringLeft.stopped,keyTuringRight.keys,keyTuringRight.corr,keyTuringRight.rt,keyTuringRight.started,keyTuringRight.stopped,RespTuringLeft,RespTuringRight,ScoreLeft.started,ScoreLeft.stopped,ScoreRight.started,ScoreRight.stopped,BlockText.started,BlockText.stopped,text_Pause.started,text_Pause.stopped,text_LongPause.started,text_LongPause.stopped,key_respPause.keys,key_respPause.started,key_respPause.stopped,key_respPause.rt,QuestImageLeft.started,QuestImageLeft.stopped,QuestImageRight.started,QuestImageRight.stopped,respQuestLeft.keys,respQuestLeft.rt,respQuestLeft.started,respQuestLeft.stopped,respQuestRight.keys,respQuestRight.rt,respQuestRight.started,respQuestRight.stopped,RespInclusionLeft,RespInclusionRight,EndText.started,EndText.stopped,participant,session,date,expName,psychopyVersion,frameRate,
,,,,,,,,,,,,,,,,,,"['v', 'v', 't']","[61.72732530519352, 68.99083289520786, 245.69163043781373]",32.68851571363848,None,,,,,,,,,,,,,,,,,,,,,,,,,,,,,,,,,,,,,,,,,,,,,,,,,,,,,,,,,,,,,,,,,,,,,,,,,,,,,,,,,,,,,,,,,,,,,,,,,,,,,,,,,,,,,,,,,,,,,,21_22Exp,001,2021_Apr_30_1513,ComputerHuman,2020.1.3,60.016075128569845,
,,,,,,,,,,,,,,,,,,,,,,v,t,8.177363172671903,4.902445619834907,8.177363172671903,9,False,False,False,340.8438291411803,None,340.8438291411803,None,4.902445619834907,341.8435545578759,None,"['space', 'space']","[8.099339813201368, 8.895195145010803]",342.8266866103113,None,,,,,,,,,,,,,,,,,,,,,,,,,,,,,,,,,,,,,,,,,,,,,,,,,,,,,,,,,,,,,,,,,,,,,,,,,,,,,,,,,,,,,,,,,,,,,,,,,,21_22Exp,001,2021_Apr_30_1513,ComputerHuman,2020.1.3,60.016075128569845,
Human.xlsx,h,Sychronize.jpg,Number10.jpg,10,Human,,,,,0,0,0,4,0,0,0,8,,,,,,,,,,,,,,,,,,,,,,,,,351.79286667216365,None,351.79286667216365,None,354.8237640302941,None,354.8237640302941,None,355.29026855594566,None,355.29026855594566,None,v,10.166368934107595,355.29026855594566,None,t,8.202816339373385,355.29026855594566,None,10.166368934107595,8.202816339373385,10.618697886467418,False,False,False,365.53803283516027,None,365.53803283516027,None,365.53803283516027,None,365.53803283516027,None,365.53803283516027,None,365.53803283516027,None,365.53803283516027,None,365.53803283516027,None,366.5403574907832,None,366.5403574907832,None,367.5364507734048,None,367.5364507734048,None,h,,,,,,,,,,,,,,,,,,,,,,,,,,,,,,,,,,,,,,,,,,,,,,,21_22Exp,001,2021_Apr_30_1513,ComputerHuman,2020.1.3,60.016075128569845,
Human.xlsx,h,Sychronize.jpg,Number8.jpg,8,Human,,,,,0,0,0,4,0,1,1,5,,,,,,,,,,,,,,,,,,,,,,,,,,,,,368.55378063680837,None,368.55378063680837,None,369.0363976851622,None,369.0363976851622,None,v,7.403625269489567,369.0363976851622,None,t,7.222353134020523,369.0363976851622,None,7.403625269489567,7.222353134020523,8.42875478857849,True,False,False,376.5016033932843,None,376.5016033932843,None,376.5016033932843,None,376.5016033932843,None,376.5016033932843,None,376.5016033932843,None,376.5016033932843,None,376.5016033932843,None,377.50343822565264,None,377.50343822565264,None,378.50040529907346,None,378.50040529907346,None,h,,,,,,,,,,,,,,,,,,,,,,,,,,,,,,,,,,,,,,,,,,,,,,,21_22Exp,001,2021_Apr_30_1513,ComputerHuman,2020.1.3,60.016075128569845,
Human.xlsx,h,Sychronize.jpg,Number9.jpg,9,Human,,,,,0,0,0,4,0,2,2,6,,,,,,,,,,,,,,,,,,,,,,,,,,,,,379.5350268536713,None,379.5350268536713,None,380.0005934335459,None,380.0005934335459,None,v,4.706545187076699,380.0005934335459,None,t,8.077286218773224,380.0005934335459,None,4.706545187076699,8.077286218773224,9.645462629182818,False,False,False,388.13219614357877,None,388.13219614357877,None,388.13219614357877,None,388.13219614357877,None,388.13219614357877,None,388.13219614357877,None,388.13219614357877,None,388.13219614357877,None,389.13298813678193,None,389.13298813678193,None,390.1309457630596,None,390.1309457630596,None,h,,,,,,,,,,,,,,,,,,,,,,,,,,,,,,,,,,,,,,,,,,,,,,,21_22Exp,001,2021_Apr_30_1513,ComputerHuman,2020.1.3,60.016075128569845,
Human.xlsx,h,Sychronize.jpg,Number6.jpg,6,Human,,,,,0,0,0,4,0,3,3,0,,,,,,,,,,,,,,,,,,,,,,,,,,,,,391.1643782051433,None,391.1643782051433,None,391.6306023735415,None,391.6306023735415,None,v,5.039490275867138,391.6306023735415,None,t,5.042617510269338,391.6306023735415,None,5.039490275867138,5.042617510269338,6.416233180540735,True,False,False,396.7299049768553,None,396.7299049768553,None,396.7299049768553,None,396.7299049768553,None,396.7299049768553,None,396.7299049768553,None,396.7299049768553,None,396.7299049768553,None,397.76404312369414,None,397.76404312369414,None,398.7618653829704,None,398.7618653829704,None,h,,,,,,,,,,,,,,,,,,,,,,,,,,,,,,,,,,,,,,,,,,,,,,,21_22Exp,001,2021_Apr_30_1513,ComputerHuman,2020.1.3,60.016075128569845,
Human.xlsx,h,Sychronize.jpg,Number8.jpg,8,Human,,,,,0,0,0,4,0,4,4,4,,,,,,,,,,,,,,,,,,,,,,,,,,,,,399.77975082848207,None,399.77975082848207,None,400.2618774120274,None,400.2618774120274,None,v,6.087839071089547,400.2618774120274,None,t,6.710430412538699,400.2618774120274,None,6.087839071089547,6.710430412538699,8.425070265082011,False,False,False,407.02708847709437,None,407.02708847709437,None,407.02708847709437,None,407.02708847709437,None,407.02708847709437,None,407.02708847709437,None,407.02708847709437,None,407.02708847709437,None,408.028457544322,None,408.028457544322,None,409.0260575065986,None,409.0260575065986,None,h,,,,,,,,,,,,,,,,,,,,,,,,,,,,,,,,,,,,,,,,,,,,,,,21_22Exp,001,2021_Apr_30_1513,ComputerHuman,2020.1.3,60.016075128569845,
Human.xlsx,h,Sychronize.jpg,Number7.jpg,7,Human,,,,,0,0,0,4,0,5,5,2,,,,,,,,,,,,,,,,,,,,,,,,,,,,,410.0601398386061,None,410.0601398386061,None,410.52618052376783,None,410.52618052376783,None,v,5.626279611129576,410.52618052376783,None,t,5.701610706950305,410.52618052376783,None,5.626279611129576,5.701610706950305,6.905400062806841,True,False,False,416.3086011616542,None,416.3086011616542,None,416.3086011616542,None,416.3086011616542,None,416.3086011616542,None,416.3086011616542,None,416.3086011616542,None,416.3086011616542,None,417.30982555940864,None,417.30982555940864,None,418.3070081935548,None,418.3070081935548,None,h,,,,,,,,,,,,,,,,,,,,,,,,,,,,,,,,,,,,,,,,,,,,,,,21_22Exp,001,2021_Apr_30_1513,ComputerHuman,2020.1.3,60.016075128569845,
Human.xlsx,h,Sychronize.jpg,Number10.jpg,10,Human,,,,,0,0,0,4,0,6,6,9,,,,,,,,,,,,,,,,,,,,,,,,,,,,,419.3243114326433,None,419.3243114326433,None,419.80671901499227,None,419.80671901499227,None,v,8.452784662855265,419.80671901499227,None,t,8.192371908975474,419.80671901499227,None,8.452784662855265,8.192371908975474,10.050473550900906,True,False,False,428.3218959977239,None,428.3218959977239,None,428.3218959977239,None,428.3218959977239,None,428.3218959977239,None,428.3218959977239,None,428.3218959977239,None,428.3218959977239,None,429.3226873493768,None,429.3226873493768,None,430.32063374853533,None,430.32063374853533,None,h,,,,,,,,,,,,,,,,,,,,,,,,,,,,,,,,,,,,,,,,,,,,,,,21_22Exp,001,2021_Apr_30_1513,ComputerHuman,2020.1.3,60.016075128569845,
Human.xlsx,h,Sychronize.jpg,Number7.jpg,7,Human,,,,,0,0,0,4,0,7,7,3,,,,,,,,,,,,,,,,,,,,,,,,,,,,,431.35526781335284,None,431.35526781335284,None,431.8372346510005,None,431.8372346510005,None,v,4.949418290776521,431.8372346510005,None,t,6.012488087220845,431.8372346510005,None,4.949418290776521,6.012488087220845,7.0333334988384095,False,False,False,437.9026092150307,None,437.9026092150307,None,437.9026092150307,None,437.9026092150307,None,437.9026092150307,None,437.9026092150307,None,437.9026092150307,None,437.9026092150307,None,438.9037749109775,None,438.9037749109775,None,439.9015182596304,None,439.9015182596304,None,h,,,,,,,,,,,,,,,,,,,,,,,,,,,,,,,,,,,,,,,,,,,,,,,21_22Exp,001,2021_Apr_30_1513,ComputerHuman,2020.1.3,60.016075128569845,
Human.xlsx,h,Sychronize.jpg,Number9.jpg,9,Human,,,,,0,0,0,4,0,8,8,7,,,,,,,,,,,,,,,,,,,,,,,,,,,,,440.93545752603677,None,440.93545752603677,None,441.40142539529916,None,441.40142539529916,None,v,6.48435308205444,441.40142539529916,None,t,7.3113476362559595,441.40142539529916,None,6.48435308205444,7.3113476362559595,9.173117036728332,False,False,False,448.7836132789271,None,448.7836132789271,None,448.7836132789271,None,448.7836132789271,None,448.7836132789271,None,448.7836132789271,None,448.7836132789271,None,448.7836132789271,None,449.7847391987889,None,449.7847391987889,None,450.78219224616623,None,450.78219224616623,None,h,,,,,,,,,,,,,,,,,,,,,,,,,,,,,,,,,,,,,,,,,,,,,,,21_22Exp,001,2021_Apr_30_1513,ComputerHuman,2020.1.3,60.016075128569845,
Human.xlsx,h,Sychronize.jpg,Number6.jpg,6,Human,,,,,0,0,0,4,0,9,9,1,,,,,,,,,,,,,,,,,,,,,,,,,,,,,451.7994945229293,None,451.7994945229293,None,452.2817484541047,None,452.2817484541047,None,v,4.65930081980332,452.2817484541047,None,t,4.286715653270221,452.2817484541047,None,4.65930081980332,4.286715653270221,5.728373517493036,False,False,False,456.99795121078205,None,456.99795121078205,None,456.99795121078205,None,456.99795121078205,None,456.99795121078205,None,456.99795121078205,None,456.99795121078205,None,456.99795121078205,None,457.99949574187485,None,457.99949574187485,None,458.99660074849817,None,458.99660074849817,None,h,,,,,,,,,,,,,,,,,,,,,,,,,,,,,,,,,,,,,,,,,,,,,,,21_22Exp,001,2021_Apr_30_1513,ComputerHuman,2020.1.3,60.016075128569845,
Human.xlsx,h,,,,,,,,,0,0,0,4,,,,,,,,,,,,,,,,,,,,,,,,,,,,,,,,,,,,,,,,,,,,,,,,,,,,,,,,,,,,,,,,,,,,,,,,,,,,,,,h,459.9967441348708,None,459.9967441348708,None,q,0,10.059174626963795,459.9967441348708,None,o,1,11.57012604207921,459.9967441348708,None,h,h,471.6609175252488,None,471.6609175252488,None,473.6430718558222,None,None,None,None,None,None,None,None,,,,,,,,,,,,,,,,,,21_22Exp,001,2021_Apr_30_1513,ComputerHuman,2020.1.3,60.016075128569845,
Human.xlsx,h,Sychronize.jpg,Number9.jpg,9,Human,,,,,0,1,1,2,0,0,0,6,,,,,,,,,,,,,,,,,,,,,,,,,478.64568905814303,None,478.64568905814303,None,481.7080993414165,None,481.7080993414165,None,482.1742426745441,None,482.1742426745441,None,v,6.996072111476678,482.1742426745441,None,t,6.571730558072886,482.1742426745441,None,6.996072111476678,6.571730558072886,9.490765298215203,False,False,False,489.2231406363717,None,489.2231406363717,None,489.2231406363717,None,489.2231406363717,None,489.2231406363717,None,489.2231406363717,None,489.2231406363717,None,489.2231406363717,None,490.22464057975594,None,490.22464057975594,None,491.2219172009427,None,491.2219172009427,None,h,,,,,,,,,,,,,,,,,,,,,,,,,,,,,,,,,,,,,,,,,,,,,,,21_22Exp,001,2021_Apr_30_1513,ComputerHuman,2020.1.3,60.016075128569845,
Human.xlsx,h,Sychronize.jpg,Number6.jpg,6,Human,,,,,0,1,1,2,0,1,1,1,,,,,,,,,,,,,,,,,,,,,,,,,,,,,492.25616024117335,None,492.25616024117335,None,492.72207774877825,None,492.72207774877825,None,v,3.33966692660033,492.72207774877825,None,t,4.722664766821254,492.72207774877825,None,3.33966692660033,4.722664766821254,5.7004527103982126,False,False,False,497.5211857379654,None,497.5211857379654,None,497.5211857379654,None,497.5211857379654,None,497.5211857379654,None,497.5211857379654,None,497.5211857379654,None,497.5211857379654,None,498.5219270487323,None,498.5219270487323,None,499.5197380808859,None,499.5197380808859,None,h,,,,,,,,,,,,,,,,,,,,,,,,,,,,,,,,,,,,,,,,,,,,,,,21_22Exp,001,2021_Apr_30_1513,ComputerHuman,2020.1.3,60.016075128569845,
Human.xlsx,h,Sychronize.jpg,Number8.jpg,8,Human,,,,,0,1,1,2,0,2,2,5,,,,,,,,,,,,,,,,,,,,,,,,,,,,,500.55329402130155,None,500.55329402130155,None,501.0195929302499,None,501.0195929302499,None,v,6.5130973991253995,501.0195929302499,None,t,6.952550657573738,501.0195929302499,None,6.5130973991253995,6.952550657573738,7.678138124835706,False,False,False,508.0351139440536,None,508.0351139440536,None,508.0351139440536,None,508.0351139440536,None,508.0351139440536,None,508.0351139440536,None,508.0351139440536,None,508.0351139440536,None,509.0370581606585,None,509.0370581606585,None,510.03378978530964,None,510.03378978530964,None,h,,,,,,,,,,,,,,,,,,,,,,,,,,,,,,,,,,,,,,,,,,,,,,,21_22Exp,001,2021_Apr_30_1513,ComputerHuman,2020.1.3,60.016075128569845,
Human.xlsx,h,Sychronize.jpg,Number7.jpg,7,Human,,,,,0,1,1,2,0,3,3,2,,,,,,,,,,,,,,,,,,,,,,,,,,,,,511.06754877622734,None,511.06754877622734,None,511.53349066272494,None,511.53349066272494,None,v,2.8907864149259694,511.53349066272494,None,t,6.401477360828721,511.53349066272494,None,2.8907864149259694,6.401477360828721,6.9437901070205665,False,False,False,517.9986938046495,None,517.9986938046495,None,517.9986938046495,None,517.9986938046495,None,517.9986938046495,None,517.9986938046495,None,517.9986938046495,None,517.9986938046495,None,519.0171890432284,None,519.0171890432284,None,519.9980936348329,None,519.9980936348329,None,h,,,,,,,,,,,,,,,,,,,,,,,,,,,,,,,,,,,,,,,,,,,,,,,21_22Exp,001,2021_Apr_30_1513,ComputerHuman,2020.1.3,60.016075128569845,
Human.xlsx,h,Sychronize.jpg,Number9.jpg,9,Human,,,,,0,1,1,2,0,4,4,7,,,,,,,,,,,,,,,,,,,,,,,,,,,,,521.0312543805812,None,521.0312543805812,None,521.4978179288155,None,521.4978179288155,None,v,11.353177964949282,521.4978179288155,None,t,7.312416137414402,521.4978179288155,None,11.353177964949282,7.312416137414402,9.609017657025987,False,False,False,532.9286737786751,None,532.9286737786751,None,532.9286737786751,None,532.9286737786751,None,532.9286737786751,None,532.9286737786751,None,532.9286737786751,None,532.9286737786751,None,533.9298333798979,None,533.9298333798979,None,534.927453550994,None,534.927453550994,None,h,,,,,,,,,,,,,,,,,,,,,,,,,,,,,,,,,,,,,,,,,,,,,,,21_22Exp,001,2021_Apr_30_1513,ComputerHuman,2020.1.3,60.016075128569845,
Human.xlsx,h,Sychronize.jpg,Number10.jpg,10,Human,,,,,0,1,1,2,0,5,5,8,,,,,,,,,,,,,,,,,,,,,,,,,,,,,535.9451083593631,None,535.9451083593631,None,536.4275640579435,None,536.4275640579435,None,v,7.749970408516674,536.4275640579435,None,t,8.137367034800263,536.4275640579435,None,7.749970408516674,8.137367034800263,9.956441533011319,False,False,False,544.625951779195,None,544.625951779195,None,544.625951779195,None,544.625951779195,None,544.625951779195,None,544.625951779195,None,544.625951779195,None,544.625951779195,None,545.626724205129,None,545.626724205129,None,546.624545822855,None,546.624545822855,None,h,,,,,,,,,,,,,,,,,,,,,,,,,,,,,,,,,,,,,,,,,,,,,,,21_22Exp,001,2021_Apr_30_1513,ComputerHuman,2020.1.3,60.016075128569845,
Human.xlsx,h,Sychronize.jpg,Number8.jpg,8,Human,,,,,0,1,1,2,0,6,6,4,,,,,,,,,,,,,,,,,,,,,,,,,,,,,547.658610191469,None,547.658610191469,None,548.1416420017522,None,548.1416420017522,None,v,5.519216821689042,548.1416420017522,None,t,5.830465338509384,548.1416420017522,None,5.519216821689042,5.830465338509384,7.982098377304357,False,False,False,554.0234762310611,None,554.0234762310611,None,554.0234762310611,None,554.0234762310611,None,554.0234762310611,None,554.0234762310611,None,554.0234762310611,None,554.0234762310611,None,555.0240847410278,None,555.0240847410278,None,556.0221132585575,None,556.0221132585575,None,h,,,,,,,,,,,,,,,,,,,,,,,,,,,,,,,,,,,,,,,,,,,,,,,21_22Exp,001,2021_Apr_30_1513,ComputerHuman,2020.1.3,60.016075128569845,
Human.xlsx,h,Sychronize.jpg,Number10.jpg,10,Human,,,,,0,1,1,2,0,7,7,9,,,,,,,,,,,,,,,,,,,,,,,,,,,,,557.0563479586381,None,557.0563479586381,None,557.5217413200735,None,557.5217413200735,None,v,6.278209023977979,557.5217413200735,None,t,6.685444294071203,557.5217413200735,None,6.278209023977979,6.685444294071203,9.517603682671638,False,False,False,564.2876353148786,None,564.2876353148786,None,564.2876353148786,None,564.2876353148786,None,564.2876353148786,None,564.2876353148786,None,564.2876353148786,None,564.2876353148786,None,565.2882929034022,None,565.2882929034022,None,566.2862306416355,None,566.2862306416355,None,h,,,,,,,,,,,,,,,,,,,,,,,,,,,,,,,,,,,,,,,,,,,,,,,21_22Exp,001,2021_Apr_30_1513,ComputerHuman,2020.1.3,60.016075128569845,
Human.xlsx,h,Sychronize.jpg,Number6.jpg,6,Human,,,,,0,1,1,2,0,8,8,0,,,,,,,,,,,,,,,,,,,,,,,,,,,,,567.3036641153303,None,567.3036641153303,None,567.7858628732247,None,567.7858628732247,None,v,5.021570507440629,567.7858628732247,None,t,3.4408094946811616,567.7858628732247,None,5.021570507440629,3.4408094946811616,6.216693778517301,False,False,False,572.868328644141,None,572.868328644141,None,572.868328644141,None,572.868328644141,None,572.868328644141,None,572.868328644141,None,572.868328644141,None,572.868328644141,None,573.8694568094252,None,573.8694568094252,None,574.8674657596857,None,574.8674657596857,None,h,,,,,,,,,,,,,,,,,,,,,,,,,,,,,,,,,,,,,,,,,,,,,,,21_22Exp,001,2021_Apr_30_1513,ComputerHuman,2020.1.3,60.016075128569845,
Human.xlsx,h,Sychronize.jpg,Number7.jpg,7,Human,,,,,0,1,1,2,0,9,9,3,,,,,,,,,,,,,,,,,,,,,,,,,,,,,575.9011169702426,None,575.9011169702426,None,576.3670816317572,None,576.3670816317572,None,v,3.683497190490016,576.3670816317572,None,t,5.146601181542792,576.3670816317572,None,3.683497190490016,5.146601181542792,7.181885760273261,False,False,False,581.583382705936,None,581.583382705936,None,581.583382705936,None,581.583382705936,None,581.583382705936,None,581.583382705936,None,581.583382705936,None,581.583382705936,None,582.5844380553208,None,582.5844380553208,None,583.5817470747752,None,583.5817470747752,None,h,,,,,,,,,,,,,,,,,,,,,,,,,,,,,,,,,,,,,,,,,,,,,,,21_22Exp,001,2021_Apr_30_1513,ComputerHuman,2020.1.3,60.016075128569845,
Human.xlsx,h,,,,,,,,,0,1,1,2,,,,,,,,,,,,,,,,,,,,,,,,,,,,,,,,,,,,,,,,,,,,,,,,,,,,,,,,,,,,,,,,,,,,,,,,,,,,,,,h,584.5821855740469,None,584.5821855740469,None,a,0,3.4037134825848625,584.5821855740469,None,o,0,2.958785879873176,584.5821855740469,None,c,h,588.0644542608679,None,588.0644542608679,None,590.063511182696,None,None,None,None,None,None,None,None,,,,,,,,,,,,,,,,,,21_22Exp,001,2021_Apr_30_1513,ComputerHuman,2020.1.3,60.016075128569845,
Computer.xlsx,c,Sychronize.jpg,Number10.jpg,10,Computer,,,,,0,2,2,7,0,0,0,9,,,,,,,,,,,,,,,,,,,,,,,,,595.0654778535427,None,595.0654778535427,None,598.1292090878087,None,598.1292090878087,None,598.5947990842506,None,598.5947990842506,None,None,,598.5947990842506,None,t,6.941432279127184,598.5947990842506,None,13,6.941432279127184,9.831066350622736,False,False,False,611.6420822652872,None,611.6420822652872,None,611.6420822652872,None,611.6420822652872,None,611.6420822652872,None,611.6420822652872,None,611.6420822652872,None,611.6420822652872,None,612.6577999140973,None,612.6577999140973,None,613.6408668492295,None,613.6408668492295,None,c,,,,,,,,,,,,,,,,,,,,,,,,,,,,,,,,,,,,,,,,,,,,,,,21_22Exp,001,2021_Apr_30_1513,ComputerHuman,2020.1.3,60.016075128569845,
Computer.xlsx,c,Sychronize.jpg,Number6.jpg,6,Computer,,,,,0,2,2,7,0,1,1,0,,,,,,,,,,,,,,,,,,,,,,,,,,,,,614.6919374193858,None,614.6919374193858,None,615.1572165849611,None,615.1572165849611,None,v,3.090165009809425,615.1572165849611,None,t,4.389661617777165,615.1572165849611,None,3.090165009809425,4.389661617777165,5.567854672928269,False,False,False,619.6070424202335,None,619.6070424202335,None,619.6070424202335,None,619.6070424202335,None,619.6070424202335,None,619.6070424202335,None,619.6070424202335,None,619.6070424202335,None,620.6224123490647,None,620.6224123490647,None,621.6055944423824,None,621.6055944423824,None,c,,,,,,,,,,,,,,,,,,,,,,,,,,,,,,,,,,,,,,,,,,,,,,,21_22Exp,001,2021_Apr_30_1513,ComputerHuman,2020.1.3,60.016075128569845,
Computer.xlsx,c,Sychronize.jpg,Number6.jpg,6,Computer,,,,,0,2,2,7,0,2,2,1,,,,,,,,,,,,,,,,,,,,,,,,,,,,,622.6396296204803,None,622.6396296204803,None,623.1052606761114,None,623.1052606761114,None,v,3.509421960439795,623.1052606761114,None,t,4.720893447884009,623.1052606761114,None,3.509421960439795,4.720893447884009,6.105145848219301,False,False,False,627.8883908680509,None,627.8883908680509,None,627.8883908680509,None,627.8883908680509,None,627.8883908680509,None,627.8883908680509,None,627.8883908680509,None,627.8883908680509,None,628.9037056236011,None,628.9037056236011,None,629.8867263671527,None,629.8867263671527,None,c,,,,,,,,,,,,,,,,,,,,,,,,,,,,,,,,,,,,,,,,,,,,,,,21_22Exp,001,2021_Apr_30_1513,ComputerHuman,2020.1.3,60.016075128569845,
Computer.xlsx,c,Sychronize.jpg,Number9.jpg,9,Computer,,,,,0,2,2,7,0,3,3,7,,,,,,,,,,,,,,,,,,,,,,,,,,,,,630.9213415062513,None,630.9213415062513,None,631.4035678507862,None,631.4035678507862,None,v,3.8623814776874497,631.4035678507862,None,t,6.457442314251239,631.4035678507862,None,3.8623814776874497,6.457442314251239,9.600886400886282,False,False,False,637.9188699357255,None,637.9188699357255,None,637.9188699357255,None,637.9188699357255,None,637.9188699357255,None,637.9188699357255,None,637.9188699357255,None,637.9188699357255,None,638.9345837352375,None,638.9345837352375,None,639.9176471418468,None,639.9176471418468,None,c,,,,,,,,,,,,,,,,,,,,,,,,,,,,,,,,,,,,,,,,,,,,,,,21_22Exp,001,2021_Apr_30_1513,ComputerHuman,2020.1.3,60.016075128569845,
Computer.xlsx,c,Sychronize.jpg,Number10.jpg,10,Computer,,,,,0,2,2,7,0,4,4,8,,,,,,,,,,,,,,,,,,,,,,,,,,,,,640.9511395688351,None,640.9511395688351,None,641.4177990287571,None,641.4177990287571,None,v,6.4350663410587,641.4177990287571,None,t,1.3150176217677654,641.4177990287571,None,6.4350663410587,1.3150176217677654,9.819650808001688,False,False,False,647.9329397639303,None,647.9329397639303,None,647.9329397639303,None,647.9329397639303,None,647.9329397639303,None,647.9329397639303,None,647.9329397639303,None,647.9329397639303,None,648.9486041641067,None,648.9486041641067,None,649.9316816848113,None,649.9316816848113,None,c,,,,,,,,,,,,,,,,,,,,,,,,,,,,,,,,,,,,,,,,,,,,,,,21_22Exp,001,2021_Apr_30_1513,ComputerHuman,2020.1.3,60.016075128569845,
Computer.xlsx,c,Sychronize.jpg,Number9.jpg,9,Computer,,,,,0,2,2,7,0,5,5,6,,,,,,,,,,,,,,,,,,,,,,,,,,,,,650.9490121897688,None,650.9490121897688,None,651.4319323703894,None,651.4319323703894,None,v,3.284339032110438,651.4319323703894,None,t,7.995349405653542,651.4319323703894,None,3.284339032110438,7.995349405653542,8.483953900666044,False,False,False,659.4799635984673,None,659.4799635984673,None,659.4799635984673,None,659.4799635984673,None,659.4799635984673,None,659.4799635984673,None,659.4799635984673,None,659.4799635984673,None,660.4956770772005,None,660.4956770772005,None,661.4789024751299,None,661.4789024751299,None,c,,,,,,,,,,,,,,,,,,,,,,,,,,,,,,,,,,,,,,,,,,,,,,,21_22Exp,001,2021_Apr_30_1513,ComputerHuman,2020.1.3,60.016075128569845,
Computer.xlsx,c,Sychronize.jpg,Number7.jpg,7,Computer,,,,,0,2,2,7,0,6,6,2,,,,,,,,,,,,,,,,,,,,,,,,,,,,,662.5126611452761,None,662.5126611452761,None,662.9787672685161,None,662.9787672685161,None,v,5.220531774197298,662.9787672685161,None,t,6.375532446221769,662.9787672685161,None,5.220531774197298,6.375532446221769,6.660172490662774,False,False,True,669.4108401383055,None,669.4108401383055,None,669.4108401383055,None,669.4108401383055,None,669.4108401383055,None,669.4108401383055,None,669.4108401383055,None,669.4108401383055,None,670.4431274140334,None,670.4431274140334,None,671.4096090042804,None,671.4096090042804,None,c,,,,,,,,,,,,,,,,,,,,,,,,,,,,,,,,,,,,,,,,,,,,,,,21_22Exp,001,2021_Apr_30_1513,ComputerHuman,2020.1.3,60.016075128569845,
Computer.xlsx,c,Sychronize.jpg,Number8.jpg,8,Computer,,,,,0,2,2,7,0,7,7,5,,,,,,,,,,,,,,,,,,,,,,,,,,,,,672.442955157916,None,672.442955157916,None,672.9093782067466,None,672.9093782067466,None,v,7.720937714821048,672.9093782067466,None,t,7.352405859786813,672.9093782067466,None,7.720937714821048,7.352405859786813,8.463130900828018,False,False,False,680.6913616284583,None,680.6913616284583,None,680.6913616284583,None,680.6913616284583,None,680.6913616284583,None,680.6913616284583,None,680.6913616284583,None,680.6913616284583,None,681.7237525144737,None,681.7237525144737,None,682.7067177639692,None,682.7067177639692,None,c,,,,,,,,,,,,,,,,,,,,,,,,,,,,,,,,,,,,,,,,,,,,,,,21_22Exp,001,2021_Apr_30_1513,ComputerHuman,2020.1.3,60.016075128569845,
Computer.xlsx,c,Sychronize.jpg,Number7.jpg,7,Computer,,,,,0,2,2,7,0,8,8,3,,,,,,,,,,,,,,,,,,,,,,,,,,,,,683.7408751573021,None,683.7408751573021,None,684.2069735819423,None,684.2069735819423,None,v,5.154647498868144,684.2069735819423,None,t,7.2174651662535325,684.2069735819423,None,5.154647498868144,7.2174651662535325,6.978388635029344,False,False,True,691.4884846626301,None,691.4884846626301,None,691.4884846626301,None,691.4884846626301,None,691.4884846626301,None,691.4884846626301,None,691.4884846626301,None,691.4884846626301,None,692.5042308604061,None,692.5042308604061,None,693.4873680452401,None,693.4873680452401,None,c,,,,,,,,,,,,,,,,,,,,,,,,,,,,,,,,,,,,,,,,,,,,,,,21_22Exp,001,2021_Apr_30_1513,ComputerHuman,2020.1.3,60.016075128569845,
Computer.xlsx,c,Sychronize.jpg,Number8.jpg,8,Computer,,,,,0,2,2,7,0,9,9,4,,,,,,,,,,,,,,,,,,,,,,,,,,,,,694.5215411565405,None,694.5215411565405,None,694.9870724511784,None,694.9870724511784,None,v,5.36135034680774,694.9870724511784,None,t,7.52050184590189,694.9870724511784,None,5.36135034680774,7.52050184590189,7.81899556831051,False,False,True,702.5691027701796,None,702.5691027701796,None,702.5691027701796,None,702.5691027701796,None,702.5691027701796,None,702.5691027701796,None,702.5691027701796,None,702.5691027701796,None,703.6015379231321,None,703.6015379231321,None,704.5678912034236,None,704.5678912034236,None,c,,,,,,,,,,,,,,,,,,,,,,,,,,,,,,,,,,,,,,,,,,,,,,,21_22Exp,001,2021_Apr_30_1513,ComputerHuman,2020.1.3,60.016075128569845,
Computer.xlsx,c,,,,,,,,,0,2,2,7,,,,,,,,,,,,,,,,,,,,,,,,,,,,,,,,,,,,,,,,,,,,,,,,,,,,,,,,,,,,,,,,,,,,,,,,,,,,,,,c,705.5677471754971,None,705.5677471754971,None,q,0,4.588067943972419,705.5677471754971,None,o,0,1.887929272987094,705.5677471754971,None,h,h,710.2332116848047,None,710.2332116848047,None,712.2326079864615,None,None,None,None,None,None,None,None,,,,,,,,,,,,,,,,,,21_22Exp,001,2021_Apr_30_1513,ComputerHuman,2020.1.3,60.016075128569845,
Human.xlsx,h,Sychronize.jpg,Number9.jpg,9,Human,,,,,0,3,3,0,0,0,0,6,,,,,,,,,,,,,,,,,,,,,,,,,717.2511372271765,None,717.2511372271765,None,720.2978866387966,None,720.2978866387966,None,720.747153363438,None,720.747153363438,None,v,4.299151133411215,720.747153363438,None,t,8.098304672632366,720.747153363438,None,4.299151133411215,8.098304672632366,8.587738768844979,False,False,False,728.8959688540417,None,728.8959688540417,None,728.8959688540417,None,728.8959688540417,None,728.8959688540417,None,728.8959688540417,None,728.8959688540417,None,728.8959688540417,None,729.8971034348251,None,729.8971034348251,None,730.9113169701777,None,730.9113169701777,None,h,,,,,,,,,,,,,,,,,,,,,,,,,,,,,,,,,,,,,,,,,,,,,,,21_22Exp,001,2021_Apr_30_1513,ComputerHuman,2020.1.3,60.016075128569845,
Human.xlsx,h,Sychronize.jpg,Number8.jpg,8,Human,,,,,0,3,3,0,0,1,1,4,,,,,,,,,,,,,,,,,,,,,,,,,,,,,731.9288935094737,None,731.9288935094737,None,732.4108879337655,None,732.4108879337655,None,v,4.086416755228129,732.4108879337655,None,t,6.6055068708374165,732.4108879337655,None,4.086416755228129,6.6055068708374165,8.553823253967447,False,False,False,739.0766635947111,None,739.0766635947111,None,739.0766635947111,None,739.0766635947111,None,739.0766635947111,None,739.0766635947111,None,739.0766635947111,None,739.0766635947111,None,740.0771181327327,None,740.0771181327327,None,741.0752784887409,None,741.0752784887409,None,h,,,,,,,,,,,,,,,,,,,,,,,,,,,,,,,,,,,,,,,,,,,,,,,21_22Exp,001,2021_Apr_30_1513,ComputerHuman,2020.1.3,60.016075128569845,
Human.xlsx,h,Sychronize.jpg,Number10.jpg,10,Human,,,,,0,3,3,0,0,2,2,9,,,,,,,,,,,,,,,,,,,,,,,,,,,,,742.1098605880252,None,742.1098605880252,None,742.5751788881353,None,742.5751788881353,None,v,7.213049699897965,742.5751788881353,None,t,8.284344485284237,742.5751788881353,None,7.213049699897965,8.284344485284237,9.997738085110385,False,False,False,750.9237864524584,None,750.9237864524584,None,750.9237864524584,None,750.9237864524584,None,750.9237864524584,None,750.9237864524584,None,750.9237864524584,None,750.9237864524584,None,751.9417626772629,None,751.9417626772629,None,752.9390457139525,None,752.9390457139525,None,h,,,,,,,,,,,,,,,,,,,,,,,,,,,,,,,,,,,,,,,,,,,,,,,21_22Exp,001,2021_Apr_30_1513,ComputerHuman,2020.1.3,60.016075128569845,
Human.xlsx,h,Sychronize.jpg,Number7.jpg,7,Human,,,,,0,3,3,0,0,3,3,3,,,,,,,,,,,,,,,,,,,,,,,,,,,,,753.9557372353265,None,753.9557372353265,None,754.422104790101,None,754.422104790101,None,v,4.6614022161047615,754.422104790101,None,t,4.980617498080392,754.422104790101,None,4.6614022161047615,4.980617498080392,6.733270843244122,False,False,False,759.4544199732409,None,759.4544199732409,None,759.4544199732409,None,759.4544199732409,None,759.4544199732409,None,759.4544199732409,None,759.4544199732409,None,759.4544199732409,None,760.4556350685234,None,760.4556350685234,None,761.453448346103,None,761.453448346103,None,h,,,,,,,,,,,,,,,,,,,,,,,,,,,,,,,,,,,,,,,,,,,,,,,21_22Exp,001,2021_Apr_30_1513,ComputerHuman,2020.1.3,60.016075128569845,
Human.xlsx,h,Sychronize.jpg,Number7.jpg,7,Human,,,,,0,3,3,0,0,4,4,2,,,,,,,,,,,,,,,,,,,,,,,,,,,,,762.4707817380295,None,762.4707817380295,None,762.9533250081549,None,762.9533250081549,None,None,,762.9533250081549,None,t,5.708542010765086,762.9533250081549,None,13,5.708542010765086,6.540648551423588,False,False,False,776.000346436882,None,776.000346436882,None,776.000346436882,None,776.000346436882,None,776.000346436882,None,776.000346436882,None,776.000346436882,None,776.000346436882,None,777.0014784514678,None,777.0014784514678,None,777.9992205170201,None,777.9992205170201,None,h,,,,,,,,,,,,,,,,,,,,,,,,,,,,,,,,,,,,,,,,,,,,,,,21_22Exp,001,2021_Apr_30_1513,ComputerHuman,2020.1.3,60.016075128569845,
Human.xlsx,h,Sychronize.jpg,Number6.jpg,6,Human,,,,,0,3,3,0,0,5,5,0,,,,,,,,,,,,,,,,,,,,,,,,,,,,,779.0334401406799,None,779.0334401406799,None,779.5000591829667,None,779.5000591829667,None,v,4.277326251478371,779.5000591829667,None,t,5.900532839168591,779.5000591829667,None,4.277326251478371,5.900532839168591,6.378887147295212,False,False,False,785.4650081107939,None,785.4650081107939,None,785.4650081107939,None,785.4650081107939,None,785.4650081107939,None,785.4650081107939,None,785.4650081107939,None,785.4650081107939,None,786.4822109473425,None,786.4822109473425,None,787.4636287787689,None,787.4636287787689,None,h,,,,,,,,,,,,,,,,,,,,,,,,,,,,,,,,,,,,,,,,,,,,,,,21_22Exp,001,2021_Apr_30_1513,ComputerHuman,2020.1.3,60.016075128569845,
Human.xlsx,h,Sychronize.jpg,Number9.jpg,9,Human,,,,,0,3,3,0,0,6,6,7,,,,,,,,,,,,,,,,,,,,,,,,,,,,,788.4966685923864,None,788.4966685923864,None,788.9632177057465,None,788.9632177057465,None,v,6.877127820131136,788.9632177057465,None,t,10.200138510597753,788.9632177057465,None,6.877127820131136,10.200138510597753,8.910747122172983,False,False,False,799.245312275958,None,799.245312275958,None,799.245312275958,None,799.245312275958,None,799.245312275958,None,799.245312275958,None,799.245312275958,None,799.245312275958,None,800.2451804374796,None,800.2451804374796,None,801.2434411960276,None,801.2434411960276,None,h,,,,,,,,,,,,,,,,,,,,,,,,,,,,,,,,,,,,,,,,,,,,,,,21_22Exp,001,2021_Apr_30_1513,ComputerHuman,2020.1.3,60.016075128569845,
Human.xlsx,h,Sychronize.jpg,Number10.jpg,10,Human,,,,,0,3,3,0,0,7,7,8,,,,,,,,,,,,,,,,,,,,,,,,,,,,,802.2605744244247,None,802.2605744244247,None,802.7430753522676,None,802.7430753522676,None,v,6.164158153569588,802.7430753522676,None,t,7.9673842507872905,802.7430753522676,None,6.164158153569588,7.9673842507872905,9.603226369586068,False,False,False,810.7746126563034,None,810.7746126563034,None,810.7746126563034,None,810.7746126563034,None,810.7746126563034,None,810.7746126563034,None,810.7746126563034,None,810.7746126563034,None,811.7762678547333,None,811.7762678547333,None,812.7739441614322,None,812.7739441614322,None,h,,,,,,,,,,,,,,,,,,,,,,,,,,,,,,,,,,,,,,,,,,,,,,,21_22Exp,001,2021_Apr_30_1513,ComputerHuman,2020.1.3,60.016075128569845,
Human.xlsx,h,Sychronize.jpg,Number8.jpg,8,Human,,,,,0,3,3,0,0,8,8,5,,,,,,,,,,,,,,,,,,,,,,,,,,,,,813.8238002778562,None,813.8238002778562,None,814.2901254903445,None,814.2901254903445,None,v,3.5724644910224015,814.2901254903445,None,t,5.507559862209746,814.2901254903445,None,3.5724644910224015,5.507559862209746,8.340771424457031,False,False,False,819.8557850628604,None,819.8557850628604,None,819.8557850628604,None,819.8557850628604,None,819.8557850628604,None,819.8557850628604,None,819.8557850628604,None,819.8557850628604,None,820.8573943904812,None,820.8573943904812,None,821.854835248414,None,821.854835248414,None,h,,,,,,,,,,,,,,,,,,,,,,,,,,,,,,,,,,,,,,,,,,,,,,,21_22Exp,001,2021_Apr_30_1513,ComputerHuman,2020.1.3,60.016075128569845,
Human.xlsx,h,Sychronize.jpg,Number6.jpg,6,Human,,,,,0,3,3,0,0,9,9,1,,,,,,,,,,,,,,,,,,,,,,,,,,,,,822.8888617655903,None,822.8888617655903,None,823.3545547307731,None,823.3545547307731,None,v,6.346921892276441,823.3545547307731,None,t,3.310803281270637,823.3545547307731,None,6.346921892276441,3.310803281270637,6.20725137699614,False,False,False,829.7536541873487,None,829.7536541873487,None,829.7536541873487,None,829.7536541873487,None,829.7536541873487,None,829.7536541873487,None,829.7536541873487,None,829.7536541873487,None,830.7717064358039,None,830.7717064358039,None,831.7689772830417,None,831.7689772830417,None,h,,,,,,,,,,,,,,,,,,,,,,,,,,,,,,,,,,,,,,,,,,,,,,,21_22Exp,001,2021_Apr_30_1513,ComputerHuman,2020.1.3,60.016075128569845,
Human.xlsx,h,,,,,,,,,0,3,3,0,,,,,,,,,,,,,,,,,,,,,,,,,,,,,,,,,,,,,,,,,,,,,,,,,,,,,,,,,,,,,,,,,,,,,,,,,,,,,,,h,832.7688582755582,None,832.7688582755582,None,q,0,5.487973668230552,832.7688582755582,None,o,1,26.157744259653555,832.7688582755582,None,h,h,858.9954655261645,None,858.9954655261645,None,860.9949474747154,None,None,None,None,None,None,None,None,,,,,,,,,,,,,,,,,,21_22Exp,001,2021_Apr_30_1513,ComputerHuman,2020.1.3,60.016075128569845,
Computer.xlsx,c,Sychronize.jpg,Number9.jpg,9,Computer,,,,,0,4,4,9,0,0,0,6,,,,,,,,,,,,,,,,,,,,,,,,,866.0140316559919,None,866.0140316559919,None,869.0600391152911,None,869.0600391152911,None,869.5264227088082,None,869.5264227088082,None,v,6.703041042186669,869.5264227088082,None,t,6.698468075363053,869.5264227088082,None,6.703041042186669,6.698468075363053,9.453046167399656,False,False,False,876.2918008975939,None,876.2918008975939,None,876.2918008975939,None,876.2918008975939,None,876.2918008975939,None,876.2918008975939,None,876.2918008975939,None,876.2918008975939,None,877.3074678639714,None,877.3074678639714,None,878.2904886075194,None,878.2904886075194,None,c,,,,,,,,,,,,,,,,,,,,,,,,,,,,,,,,,,,,,,,,,,,,,,,21_22Exp,001,2021_Apr_30_1513,ComputerHuman,2020.1.3,60.016075128569845,
Computer.xlsx,c,Sychronize.jpg,Number10.jpg,10,Computer,,,,,0,4,4,9,0,1,1,9,,,,,,,,,,,,,,,,,,,,,,,,,,,,,879.3247929157515,None,879.3247929157515,None,879.7906000767944,None,879.7906000767944,None,v,5.906233971280017,879.7906000767944,None,t,8.357289015930291,879.7906000767944,None,5.906233971280017,8.357289015930291,10.21544580457638,False,False,False,888.2053648958718,None,888.2053648958718,None,888.2053648958718,None,888.2053648958718,None,888.2053648958718,None,888.2053648958718,None,888.2053648958718,None,888.2053648958718,None,889.2212288180308,None,889.2212288180308,None,890.204255977078,None,890.204255977078,None,c,,,,,,,,,,,,,,,,,,,,,,,,,,,,,,,,,,,,,,,,,,,,,,,21_22Exp,001,2021_Apr_30_1513,ComputerHuman,2020.1.3,60.016075128569845,
Computer.xlsx,c,Sychronize.jpg,Number8.jpg,8,Computer,,,,,0,4,4,9,0,2,2,4,,,,,,,,,,,,,,,,,,,,,,,,,,,,,891.2375437496848,None,891.2375437496848,None,891.7039728932396,None,891.7039728932396,None,v,3.7040113862276485,891.7039728932396,None,t,8.351405362907826,891.7039728932396,None,3.7040113862276485,8.351405362907826,8.050862858179697,False,False,False,900.1354879354949,None,900.1354879354949,None,900.1354879354949,None,900.1354879354949,None,900.1354879354949,None,900.1354879354949,None,900.1354879354949,None,900.1354879354949,None,901.1514073517101,None,901.1514073517101,None,902.1346102953976,None,902.1346102953976,None,c,,,,,,,,,,,,,,,,,,,,,,,,,,,,,,,,,,,,,,,,,,,,,,,21_22Exp,001,2021_Apr_30_1513,ComputerHuman,2020.1.3,60.016075128569845,
Computer.xlsx,c,Sychronize.jpg,Number6.jpg,6,Computer,,,,,0,4,4,9,0,3,3,0,,,,,,,,,,,,,,,,,,,,,,,,,,,,,903.1510503292593,None,903.1510503292593,None,903.6175936686741,None,903.6175936686741,None,v,2.777385434448661,903.6175936686741,None,t,5.044605673032493,903.6175936686741,None,2.777385434448661,5.044605673032493,5.586598582000166,False,False,False,908.7168128705162,None,908.7168128705162,None,908.7168128705162,None,908.7168128705162,None,908.7168128705162,None,908.7168128705162,None,908.7168128705162,None,908.7168128705162,None,909.7325433503211,None,909.7325433503211,None,910.7158614521941,None,910.7158614521941,None,c,,,,,,,,,,,,,,,,,,,,,,,,,,,,,,,,,,,,,,,,,,,,,,,21_22Exp,001,2021_Apr_30_1513,ComputerHuman,2020.1.3,60.016075128569845,
Computer.xlsx,c,Sychronize.jpg,Number6.jpg,6,Computer,,,,,0,4,4,9,0,4,4,1,,,,,,,,,,,,,,,,,,,,,,,,,,,,,911.7493121784428,None,911.7493121784428,None,912.2157297740996,None,912.2157297740996,None,v,9.56589951213391,912.2157297740996,None,t,5.017647430544457,912.2157297740996,None,9.56589951213391,5.017647430544457,6.010875818077062,False,False,False,921.8467260592079,None,921.8467260592079,None,921.8467260592079,None,921.8467260592079,None,921.8467260592079,None,921.8467260592079,None,921.8467260592079,None,921.8467260592079,None,922.8625739426207,None,922.8625739426207,None,923.845763413763,None,923.845763413763,None,c,,,,,,,,,,,,,,,,,,,,,,,,,,,,,,,,,,,,,,,,,,,,,,,21_22Exp,001,2021_Apr_30_1513,ComputerHuman,2020.1.3,60.016075128569845,
Computer.xlsx,c,Sychronize.jpg,Number10.jpg,10,Computer,,,,,0,4,4,9,0,5,5,8,,,,,,,,,,,,,,,,,,,,,,,,,,,,,924.8792677094207,None,924.8792677094207,None,925.345651944488,None,925.345651944488,None,v,4.539479209135607,925.345651944488,None,t,8.546311393507494,925.345651944488,None,4.539479209135607,8.546311393507494,9.787844512568727,False,False,False,933.9602380278011,None,933.9602380278011,None,933.9602380278011,None,933.9602380278011,None,933.9602380278011,None,933.9602380278011,None,933.9602380278011,None,933.9602380278011,None,934.9761398013943,None,934.9761398013943,None,935.95935493453,None,935.95935493453,None,c,,,,,,,,,,,,,,,,,,,,,,,,,,,,,,,,,,,,,,,,,,,,,,,21_22Exp,001,2021_Apr_30_1513,ComputerHuman,2020.1.3,60.016075128569845,
Computer.xlsx,c,Sychronize.jpg,Number9.jpg,9,Computer,,,,,0,4,4,9,0,6,6,7,,,,,,,,,,,,,,,,,,,,,,,,,,,,,936.9762305806908,None,936.9762305806908,None,937.4422792852238,None,937.4422792852238,None,v,4.6219469046991435,937.4422792852238,None,t,8.324371096772666,937.4422792852238,None,4.6219469046991435,8.324371096772666,9.60272619913328,False,False,False,945.8243071021825,None,945.8243071021825,None,945.8243071021825,None,945.8243071021825,None,945.8243071021825,None,945.8243071021825,None,945.8243071021825,None,945.8243071021825,None,946.83973797824,None,946.83973797824,None,947.8395795154429,None,947.8395795154429,None,c,,,,,,,,,,,,,,,,,,,,,,,,,,,,,,,,,,,,,,,,,,,,,,,21_22Exp,001,2021_Apr_30_1513,ComputerHuman,2020.1.3,60.016075128569845,
Computer.xlsx,c,Sychronize.jpg,Number7.jpg,7,Computer,,,,,0,4,4,9,0,7,7,3,,,,,,,,,,,,,,,,,,,,,,,,,,,,,948.8735081962805,None,948.8735081962805,None,949.3397708576667,None,949.3397708576667,None,v,4.783074056336773,949.3397708576667,None,t,7.006522636602313,949.3397708576667,None,4.783074056336773,7.006522636602313,7.379106487903693,False,False,False,956.4226648630574,None,956.4226648630574,None,956.4226648630574,None,956.4226648630574,None,956.4226648630574,None,956.4226648630574,None,956.4226648630574,None,956.4226648630574,None,957.4377249233439,None,957.4377249233439,None,958.4040907138551,None,958.4040907138551,None,c,,,,,,,,,,,,,,,,,,,,,,,,,,,,,,,,,,,,,,,,,,,,,,,21_22Exp,001,2021_Apr_30_1513,ComputerHuman,2020.1.3,60.016075128569845,
Computer.xlsx,c,Sychronize.jpg,Number7.jpg,7,Computer,,,,,0,4,4,9,0,8,8,2,,,,,,,,,,,,,,,,,,,,,,,,,,,,,959.4536141867175,None,959.4536141867175,None,959.9038570293487,None,959.9038570293487,None,v,4.05834574464825,959.9038570293487,None,t,6.321703212015564,959.9038570293487,None,4.05834574464825,6.321703212015564,7.12669723242373,False,False,False,966.3036410195382,None,966.3036410195382,None,966.3036410195382,None,966.3036410195382,None,966.3036410195382,None,966.3036410195382,None,966.3036410195382,None,966.3036410195382,None,967.3184617817569,None,967.3184617817569,None,968.3016053820902,None,968.3016053820902,None,c,,,,,,,,,,,,,,,,,,,,,,,,,,,,,,,,,,,,,,,,,,,,,,,21_22Exp,001,2021_Apr_30_1513,ComputerHuman,2020.1.3,60.016075128569845,
Computer.xlsx,c,Sychronize.jpg,Number8.jpg,8,Computer,,,,,0,4,4,9,0,9,9,5,,,,,,,,,,,,,,,,,,,,,,,,,,,,,969.3515782605718,None,969.3515782605718,None,969.801706907343,None,969.801706907343,None,v,3.4197284897163627,969.801706907343,None,t,7.874265866568749,969.801706907343,None,3.4197284897163627,7.874265866568749,7.871471040974006,False,False,True,977.7329805664958,None,977.7329805664958,None,977.7329805664958,None,977.7329805664958,None,977.7329805664958,None,977.7329805664958,None,977.7329805664958,None,977.7329805664958,None,978.7489391172458,None,978.7489391172458,None,979.7320102224548,None,979.7320102224548,None,c,,,,,,,,,,,,,,,,,,,,,,,,,,,,,,,,,,,,,,,,,,,,,,,21_22Exp,001,2021_Apr_30_1513,ComputerHuman,2020.1.3,60.016075128569845,
Computer.xlsx,c,,,,,,,,,0,4,4,9,,,,,,,,,,,,,,,,,,,,,,,,,,,,,,,,,,,,,,,,,,,,,,,,,,,,,,,,,,,,,,,,,,,,,,,,,,,,,,,c,980.7500836420513,None,980.7500836420513,None,q,0,3.3823742538370425,980.7500836420513,None,l,1,18.28477368208769,980.7500836420513,None,h,c,999.1280065027495,None,999.1280065027495,None,None,None,1001.1267054397977,None,1001.1267054397977,None,"['space', 'space']",1002.1097258625705,None,"[1.541154616381391, 4.624880391060287]",,,,,,,,,,,,,,,,,21_22Exp,001,2021_Apr_30_1513,ComputerHuman,2020.1.3,60.016075128569845,
Computer.xlsx,c,Sychronize.jpg,Number7.jpg,7,Computer,,,,,0,5,5,5,0,0,0,2,,,,,,,,,,,,,,,,,,,,,,,,,1006.7948933279149,None,1006.7948933279149,None,1009.8582434816126,None,1009.8582434816126,None,1010.2913960796832,None,1010.2913960796832,None,v,6.166357706984854,1010.2913960796832,None,t,6.025517642457999,1010.2913960796832,None,6.166357706984854,6.025517642457999,6.889204784715685,False,False,False,1016.5397217149512,None,1016.5397217149512,None,1016.5397217149512,None,1016.5397217149512,None,1016.5397217149512,None,1016.5397217149512,None,1016.5397217149512,None,1016.5397217149512,None,1017.5557309481374,None,1017.5557309481374,None,1018.5555622205466,None,1018.5555622205466,None,c,,,,,,,,,,,,,,,,,,,,,,,,,,,,,,,,,,,,,,,,,,,,,,,21_22Exp,001,2021_Apr_30_1513,ComputerHuman,2020.1.3,60.016075128569845,
Computer.xlsx,c,Sychronize.jpg,Number10.jpg,10,Computer,,,,,0,5,5,5,0,1,1,9,,,,,,,,,,,,,,,,,,,,,,,,,,,,,1019.6055514585496,None,1019.6055514585496,None,1020.0552714381083,None,1020.0552714381083,None,v,6.141671833815053,1020.0552714381083,None,t,9.888194233044487,1020.0552714381083,None,6.141671833815053,9.888194233044487,9.390064081886212,False,False,False,1030.0041091263338,None,1030.0041091263338,None,1030.0041091263338,None,1030.0041091263338,None,1030.0041091263338,None,1030.0041091263338,None,1030.0041091263338,None,1030.0041091263338,None,1031.0356846025825,None,1031.0356846025825,None,1032.018774954282,None,1032.018774954282,None,c,,,,,,,,,,,,,,,,,,,,,,,,,,,,,,,,,,,,,,,,,,,,,,,21_22Exp,001,2021_Apr_30_1513,ComputerHuman,2020.1.3,60.016075128569845,
Computer.xlsx,c,Sychronize.jpg,Number6.jpg,6,Computer,,,,,0,5,5,5,0,2,2,1,,,,,,,,,,,,,,,,,,,,,,,,,,,,,1033.0683195982892,None,1033.0683195982892,None,1033.5186397476646,None,1033.5186397476646,None,v,3.4896680011952412,1033.5186397476646,None,t,5.032512780475372,1033.5186397476646,None,3.4896680011952412,5.032512780475372,6.083677532196624,False,False,False,1038.6504753402696,None,1038.6504753402696,None,1038.6504753402696,None,1038.6504753402696,None,1038.6504753402696,None,1038.6504753402696,None,1038.6504753402696,None,1038.6504753402696,None,1039.6500685977117,None,1039.6500685977117,None,1040.6166672707914,None,1040.6166672707914,None,c,,,,,,,,,,,,,,,,,,,,,,,,,,,,,,,,,,,,,,,,,,,,,,,21_22Exp,001,2021_Apr_30_1513,ComputerHuman,2020.1.3,60.016075128569845,
Computer.xlsx,c,Sychronize.jpg,Number8.jpg,8,Computer,,,,,0,5,5,5,0,3,3,5,,,,,,,,,,,,,,,,,,,,,,,,,,,,,1041.6836867684542,None,1041.6836867684542,None,1042.1167351146833,None,1042.1167351146833,None,v,4.298546151967457,1042.1167351146833,None,t,8.637407612819516,1042.1167351146833,None,4.298546151967457,8.637407612819516,7.731668088650428,False,False,False,1050.8473743452596,None,1050.8473743452596,None,1050.8473743452596,None,1050.8473743452596,None,1050.8473743452596,None,1050.8473743452596,None,1050.8473743452596,None,1050.8473743452596,None,1051.8471440288886,None,1051.8471440288886,None,1052.8302302105149,None,1052.8302302105149,None,c,,,,,,,,,,,,,,,,,,,,,,,,,,,,,,,,,,,,,,,,,,,,,,,21_22Exp,001,2021_Apr_30_1513,ComputerHuman,2020.1.3,60.016075128569845,
Computer.xlsx,c,Sychronize.jpg,Number7.jpg,7,Computer,,,,,0,5,5,5,0,4,4,3,,,,,,,,,,,,,,,,,,,,,,,,,,,,,1053.8805071835923,None,1053.8805071835923,None,1054.3305575612903,None,1054.3305575612903,None,v,4.415641817628057,1054.3305575612903,None,t,6.502468843937095,1054.3305575612903,None,4.415641817628057,6.502468843937095,6.740448608779693,False,False,True,1060.9281563687764,None,1060.9281563687764,None,1060.9281563687764,None,1060.9281563687764,None,1060.9281563687764,None,1060.9281563687764,None,1060.9281563687764,None,1060.9281563687764,None,1061.911222662362,None,1061.911222662362,None,1062.8943248827345,None,1062.8943248827345,None,c,,,,,,,,,,,,,,,,,,,,,,,,,,,,,,,,,,,,,,,,,,,,,,,21_22Exp,001,2021_Apr_30_1513,ComputerHuman,2020.1.3,60.016075128569845,
Computer.xlsx,c,Sychronize.jpg,Number9.jpg,9,Computer,,,,,0,5,5,5,0,5,5,7,,,,,,,,,,,,,,,,,,,,,,,,,,,,,1063.9782411976958,None,1063.9782411976958,None,1064.4108250618847,None,1064.4108250618847,None,v,4.270598960494681,1064.4108250618847,None,t,9.505219488612056,1064.4108250618847,None,4.270598960494681,9.505219488612056,9.643343725236733,False,False,True,1074.0079914648231,None,1074.0079914648231,None,1074.0079914648231,None,1074.0079914648231,None,1074.0079914648231,None,1074.0079914648231,None,1074.0079914648231,None,1074.0079914648231,None,1074.991170029618,None,1074.991170029618,None,1075.9743473113122,None,1075.9743473113122,None,c,,,,,,,,,,,,,,,,,,,,,,,,,,,,,,,,,,,,,,,,,,,,,,,21_22Exp,001,2021_Apr_30_1513,ComputerHuman,2020.1.3,60.016075128569845,
Computer.xlsx,c,Sychronize.jpg,Number10.jpg,10,Computer,,,,,0,5,5,5,0,6,6,8,,,,,,,,,,,,,,,,,,,,,,,,,,,,,1077.0247788978886,None,1077.0247788978886,None,1077.4745931852667,None,1077.4745931852667,None,v,4.322306268804823,1077.4745931852667,None,t,11.552345489952131,1077.4745931852667,None,4.322306268804823,11.552345489952131,10.534549355967032,False,False,False,1089.120990514366,None,1089.120990514366,None,1089.120990514366,None,1089.120990514366,None,1089.120990514366,None,1089.120990514366,None,1089.120990514366,None,1089.120990514366,None,1090.1208089557804,None,1090.1208089557804,None,1091.0872132392797,None,1091.0872132392797,None,c,,,,,,,,,,,,,,,,,,,,,,,,,,,,,,,,,,,,,,,,,,,,,,,21_22Exp,001,2021_Apr_30_1513,ComputerHuman,2020.1.3,60.016075128569845,
Computer.xlsx,c,Sychronize.jpg,Number8.jpg,8,Computer,,,,,0,5,5,5,0,7,7,4,,,,,,,,,,,,,,,,,,,,,,,,,,,,,1092.154133617496,None,1092.154133617496,None,1092.587336577224,None,1092.587336577224,None,v,4.067643404821865,1092.587336577224,None,t,7.734408977077692,1092.587336577224,None,4.067643404821865,7.734408977077692,7.5901771686600465,False,False,True,1100.418106972651,None,1100.418106972651,None,1100.418106972651,None,1100.418106972651,None,1100.418106972651,None,1100.418106972651,None,1100.418106972651,None,1100.418106972651,None,1101.4178997520721,None,1101.4178997520721,None,1102.4010321252863,None,1102.4010321252863,None,c,,,,,,,,,,,,,,,,,,,,,,,,,,,,,,,,,,,,,,,,,,,,,,,21_22Exp,001,2021_Apr_30_1513,ComputerHuman,2020.1.3,60.016075128569845,
Computer.xlsx,c,Sychronize.jpg,Number9.jpg,9,Computer,,,,,0,5,5,5,0,8,8,6,,,,,,,,,,,,,,,,,,,,,,,,,,,,,1103.450371794137,None,1103.450371794137,None,1103.9008680489278,None,1103.9008680489278,None,v,6.012992024574487,1103.9008680489278,None,t,8.504526614851784,1103.9008680489278,None,6.012992024574487,8.504526614851784,8.419459350406969,False,False,True,1112.4835097648684,None,1112.4835097648684,None,1112.4835097648684,None,1112.4835097648684,None,1112.4835097648684,None,1112.4835097648684,None,1112.4835097648684,None,1112.4835097648684,None,1113.4815344331,None,1113.4815344331,None,1114.4812476603474,None,1114.4812476603474,None,c,,,,,,,,,,,,,,,,,,,,,,,,,,,,,,,,,,,,,,,,,,,,,,,21_22Exp,001,2021_Apr_30_1513,ComputerHuman,2020.1.3,60.016075128569845,
Computer.xlsx,c,Sychronize.jpg,Number6.jpg,6,Computer,,,,,0,5,5,5,0,9,9,0,,,,,,,,,,,,,,,,,,,,,,,,,,,,,1115.5313202998223,None,1115.5313202998223,None,1115.9813806215388,None,1115.9813806215388,None,v,3.9596670484934293,1115.9813806215388,None,t,6.27447777046109,1115.9813806215388,None,3.9596670484934293,6.27447777046109,5.9414541552324405,False,False,False,1122.3304674235478,None,1122.3304674235478,None,1122.3304674235478,None,1122.3304674235478,None,1122.3304674235478,None,1122.3304674235478,None,1122.3304674235478,None,1122.3304674235478,None,1123.3457234772904,None,1123.3457234772904,None,1124.3121181375427,None,1124.3121181375427,None,c,,,,,,,,,,,,,,,,,,,,,,,,,,,,,,,,,,,,,,,,,,,,,,,21_22Exp,001,2021_Apr_30_1513,ComputerHuman,2020.1.3,60.016075128569845,
Computer.xlsx,c,,,,,,,,,0,5,5,5,,,,,,,,,,,,,,,,,,,,,,,,,,,,,,,,,,,,,,,,,,,,,,,,,,,,,,,,,,,,,,,,,,,,,,,,,,,,,,,c,1125.3127680274702,None,1125.3127680274702,None,q,0,2.6195459046539327,1125.3127680274702,None,o,0,1.526882379228482,1125.3127680274702,None,h,h,1128.0114141328922,None,1128.0114141328922,None,1130.0106933517163,None,None,None,None,None,None,None,None,,,,,,,,,,,,,,,,,,21_22Exp,001,2021_Apr_30_1513,ComputerHuman,2020.1.3,60.016075128569845,
Human.xlsx,h,Sychronize.jpg,Number6.jpg,6,Human,,,,,0,6,6,6,0,0,0,1,,,,,,,,,,,,,,,,,,,,,,,,,1135.0290339767962,None,1135.0290339767962,None,1138.0924425115263,None,1138.0924425115263,None,1138.5424037138037,None,1138.5424037138037,None,v,4.672671037973487,1138.5424037138037,None,t,5.091585721795127,1138.5424037138037,None,4.672671037973487,5.091585721795127,6.340678261367301,False,False,False,1143.7076900326574,None,1143.7076900326574,None,1143.7076900326574,None,1143.7076900326574,None,1143.7076900326574,None,1143.7076900326574,None,1143.7076900326574,None,1143.7076900326574,None,1144.7095572632898,None,1144.7095572632898,None,1145.7066648361106,None,1145.7066648361106,None,h,,,,,,,,,,,,,,,,,,,,,,,,,,,,,,,,,,,,,,,,,,,,,,,21_22Exp,001,2021_Apr_30_1513,ComputerHuman,2020.1.3,60.016075128569845,
Human.xlsx,h,Sychronize.jpg,Number8.jpg,8,Human,,,,,0,6,6,6,0,1,1,5,,,,,,,,,,,,,,,,,,,,,,,,,,,,,1146.7897410416408,None,1146.7897410416408,None,1147.2235797771973,None,1147.2235797771973,None,v,3.462839030991745,1147.2235797771973,None,t,6.3774968716425064,1147.2235797771973,None,3.462839030991745,6.3774968716425064,7.556068524891812,False,False,False,1153.6880213995355,None,1153.6880213995355,None,1153.6880213995355,None,1153.6880213995355,None,1153.6880213995355,None,1153.6880213995355,None,1153.6880213995355,None,1153.6880213995355,None,1154.673707140868,None,1154.673707140868,None,1155.6708297901096,None,1155.6708297901096,None,h,,,,,,,,,,,,,,,,,,,,,,,,,,,,,,,,,,,,,,,,,,,,,,,21_22Exp,001,2021_Apr_30_1513,ComputerHuman,2020.1.3,60.016075128569845,
Human.xlsx,h,Sychronize.jpg,Number9.jpg,9,Human,,,,,0,6,6,6,0,2,2,7,,,,,,,,,,,,,,,,,,,,,,,,,,,,,1156.70461315992,None,1156.70461315992,None,1157.154041234331,None,1157.154041234331,None,v,6.471557050939737,1157.154041234331,None,t,7.518391788675217,1157.154041234331,None,6.471557050939737,7.518391788675217,8.747980937298083,False,False,False,1164.7684694963937,None,1164.7684694963937,None,1164.7684694963937,None,1164.7684694963937,None,1164.7684694963937,None,1164.7684694963937,None,1164.7684694963937,None,1164.7684694963937,None,1165.753804951546,None,1165.753804951546,None,1166.7514652195023,None,1166.7514652195023,None,h,,,,,,,,,,,,,,,,,,,,,,,,,,,,,,,,,,,,,,,,,,,,,,,21_22Exp,001,2021_Apr_30_1513,ComputerHuman,2020.1.3,60.016075128569845,
Human.xlsx,h,Sychronize.jpg,Number10.jpg,10,Human,,,,,0,6,6,6,0,3,3,9,,,,,,,,,,,,,,,,,,,,,,,,,,,,,1167.802125197799,None,1167.802125197799,None,1168.2514711538388,None,1168.2514711538388,None,v,5.209011464816285,1168.2514711538388,None,t,6.748452501738939,1168.2514711538388,None,5.209011464816285,6.748452501738939,9.356665139248037,False,False,False,1175.082570985076,None,1175.082570985076,None,1175.082570985076,None,1175.082570985076,None,1175.082570985076,None,1175.082570985076,None,1175.082570985076,None,1175.082570985076,None,1176.0502740861048,None,1176.0502740861048,None,1177.048752330029,None,1177.048752330029,None,h,,,,,,,,,,,,,,,,,,,,,,,,,,,,,,,,,,,,,,,,,,,,,,,21_22Exp,001,2021_Apr_30_1513,ComputerHuman,2020.1.3,60.016075128569845,
Human.xlsx,h,Sychronize.jpg,Number7.jpg,7,Human,,,,,0,6,6,6,0,4,4,2,,,,,,,,,,,,,,,,,,,,,,,,,,,,,1178.098851914594,None,1178.098851914594,None,1178.549004298704,None,1178.549004298704,None,v,5.758639349904115,1178.549004298704,None,t,5.381584826835024,1178.549004298704,None,5.758639349904115,5.381584826835024,6.549754537718154,False,False,False,1184.39685146615,None,1184.39685146615,None,1184.39685146615,None,1184.39685146615,None,1184.39685146615,None,1184.39685146615,None,1184.39685146615,None,1184.39685146615,None,1185.3820691969195,None,1185.3820691969195,None,1186.3796912926628,None,1186.3796912926628,None,h,,,,,,,,,,,,,,,,,,,,,,,,,,,,,,,,,,,,,,,,,,,,,,,21_22Exp,001,2021_Apr_30_1513,ComputerHuman,2020.1.3,60.016075128569845,
Human.xlsx,h,Sychronize.jpg,Number8.jpg,8,Human,,,,,0,6,6,6,0,5,5,4,,,,,,,,,,,,,,,,,,,,,,,,,,,,,1187.4294110797564,None,1187.4294110797564,None,1187.8795734078922,None,1187.8795734078922,None,v,5.527246137949987,1187.8795734078922,None,t,6.966435077887581,1187.8795734078922,None,5.527246137949987,6.966435077887581,8.07830524078831,False,False,False,1194.9442166051704,None,1194.9442166051704,None,1194.9442166051704,None,1194.9442166051704,None,1194.9442166051704,None,1194.9442166051704,None,1194.9442166051704,None,1194.9442166051704,None,1195.9132361663433,None,1195.9132361663433,None,1196.9104088564673,None,1196.9104088564673,None,h,,,,,,,,,,,,,,,,,,,,,,,,,,,,,,,,,,,,,,,,,,,,,,,21_22Exp,001,2021_Apr_30_1513,ComputerHuman,2020.1.3,60.016075128569845,
Human.xlsx,h,Sychronize.jpg,Number10.jpg,10,Human,,,,,0,6,6,6,0,6,6,8,,,,,,,,,,,,,,,,,,,,,,,,,,,,,1197.977347839631,None,1197.977347839631,None,1198.4272381506562,None,1198.4272381506562,None,v,4.882745229999273,1198.4272381506562,None,t,7.985328718878009,1198.4272381506562,None,4.882745229999273,7.985328718878009,10.056548759371916,False,False,False,1206.4923346028554,None,1206.4923346028554,None,1206.4923346028554,None,1206.4923346028554,None,1206.4923346028554,None,1206.4923346028554,None,1206.4923346028554,None,1206.4923346028554,None,1207.476233628051,None,1207.476233628051,None,1208.4741344771755,None,1208.4741344771755,None,h,,,,,,,,,,,,,,,,,,,,,,,,,,,,,,,,,,,,,,,,,,,,,,,21_22Exp,001,2021_Apr_30_1513,ComputerHuman,2020.1.3,60.016075128569845,
Human.xlsx,h,Sychronize.jpg,Number7.jpg,7,Human,,,,,0,6,6,6,0,7,7,3,,,,,,,,,,,,,,,,,,,,,,,,,,,,,1209.5245529119784,None,1209.5245529119784,None,1209.9740666332837,None,1209.9740666332837,None,v,2.883096478501102,1209.9740666332837,None,t,6.242445510772086,1209.9740666332837,None,2.883096478501102,6.242445510772086,7.048708415867852,False,False,False,1216.3054627001366,None,1216.3054627001366,None,1216.3054627001366,None,1216.3054627001366,None,1216.3054627001366,None,1216.3054627001366,None,1216.3054627001366,None,1216.3054627001366,None,1217.2913579074702,None,1217.2913579074702,None,1218.2883272263134,None,1218.2883272263134,None,h,,,,,,,,,,,,,,,,,,,,,,,,,,,,,,,,,,,,,,,,,,,,,,,21_22Exp,001,2021_Apr_30_1513,ComputerHuman,2020.1.3,60.016075128569845,
Human.xlsx,h,Sychronize.jpg,Number6.jpg,6,Human,,,,,0,6,6,6,0,8,8,0,,,,,,,,,,,,,,,,,,,,,,,,,,,,,1219.3384329056025,None,1219.3384329056025,None,1219.7885262671334,None,1219.7885262671334,None,v,2.1998616818673327,1219.7885262671334,None,t,5.1745618455606746,1219.7885262671334,None,2.1998616818673327,5.1745618455606746,5.628209938321713,False,False,False,1225.0377920936044,None,1225.0377920936044,None,1225.0377920936044,None,1225.0377920936044,None,1225.0377920936044,None,1225.0377920936044,None,1225.0377920936044,None,1225.0377920936044,None,1226.0220904835405,None,1226.0220904835405,None,1227.0194360713285,None,1227.0194360713285,None,h,,,,,,,,,,,,,,,,,,,,,,,,,,,,,,,,,,,,,,,,,,,,,,,21_22Exp,001,2021_Apr_30_1513,ComputerHuman,2020.1.3,60.016075128569845,
Human.xlsx,h,Sychronize.jpg,Number9.jpg,9,Human,,,,,0,6,6,6,0,9,9,6,,,,,,,,,,,,,,,,,,,,,,,,,,,,,1228.0689220135318,None,1228.0689220135318,None,1228.51938073766,None,1228.51938073766,None,v,4.396104381430632,1228.51938073766,None,t,8.699258785465645,1228.51938073766,None,4.396104381430632,8.699258785465645,8.745505437136897,False,False,False,1237.3018854185684,None,1237.3018854185684,None,1237.3018854185684,None,1237.3018854185684,None,1237.3018854185684,None,1237.3018854185684,None,1237.3018854185684,None,1237.3018854185684,None,1238.3026758078959,None,1238.3026758078959,None,1239.282957133888,None,1239.282957133888,None,h,,,,,,,,,,,,,,,,,,,,,,,,,,,,,,,,,,,,,,,,,,,,,,,21_22Exp,001,2021_Apr_30_1513,ComputerHuman,2020.1.3,60.016075128569845,
Human.xlsx,h,,,,,,,,,0,6,6,6,,,,,,,,,,,,,,,,,,,,,,,,,,,,,,,,,,,,,,,,,,,,,,,,,,,,,,,,,,,,,,,,,,,,,,,,,,,,,,,h,1240.2839415920243,None,1240.2839415920243,None,q,1,2.018734857418167,1240.2839415920243,None,l,0,1.5539211362120113,1240.2839415920243,None,h,c,1242.3826347230497,None,1242.3826347230497,None,1244.3817747255707,None,None,None,None,None,None,None,None,,,,,,,,,,,,,,,,,,21_22Exp,001,2021_Apr_30_1513,ComputerHuman,2020.1.3,60.016075128569845,
Human.xlsx,h,Sychronize.jpg,Number8.jpg,8,Human,,,,,0,7,7,8,0,0,0,5,,,,,,,,,,,,,,,,,,,,,,,,,1249.4002616239995,None,1249.4002616239995,None,1252.479631917231,None,1252.479631917231,None,1252.9130504376808,None,1252.9130504376808,None,v,3.8164250215959328,1252.9130504376808,None,t,5.679545564631553,1252.9130504376808,None,3.8164250215959328,5.679545564631553,7.517632301687116,False,False,False,1258.6629878063832,None,1258.6629878063832,None,1258.6629878063832,None,1258.6629878063832,None,1258.6629878063832,None,1258.6629878063832,None,1258.6629878063832,None,1258.6629878063832,None,1259.6792462816593,None,1259.6792462816593,None,1260.6609210537717,None,1260.6609210537717,None,h,,,,,,,,,,,,,,,,,,,,,,,,,,,,,,,,,,,,,,,,,,,,,,,21_22Exp,001,2021_Apr_30_1513,ComputerHuman,2020.1.3,60.016075128569845,
Human.xlsx,h,Sychronize.jpg,Number7.jpg,7,Human,,,,,0,7,7,8,0,1,1,3,,,,,,,,,,,,,,,,,,,,,,,,,,,,,1261.7112541624556,None,1261.7112541624556,None,1262.1610482410142,None,1262.1610482410142,None,v,4.423601846508973,1262.1610482410142,None,t,2.7148824472278648,1262.1610482410142,None,4.423601846508973,2.7148824472278648,6.679151989414117,False,False,False,1266.676074138777,None,1266.676074138777,None,1266.676074138777,None,1266.676074138777,None,1266.676074138777,None,1266.676074138777,None,1266.676074138777,None,1266.676074138777,None,1267.6611699750865,None,1267.6611699750865,None,1268.6588828501226,None,1268.6588828501226,None,h,,,,,,,,,,,,,,,,,,,,,,,,,,,,,,,,,,,,,,,,,,,,,,,21_22Exp,001,2021_Apr_30_1513,ComputerHuman,2020.1.3,60.016075128569845,
Human.xlsx,h,Sychronize.jpg,Number7.jpg,7,Human,,,,,0,7,7,8,0,2,2,2,,,,,,,,,,,,,,,,,,,,,,,,,,,,,1269.6926559551393,None,1269.6926559551393,None,1270.159002659544,None,1270.159002659544,None,v,3.4290120357945852,1270.159002659544,None,t,5.236589765165263,1270.159002659544,None,3.4290120357945852,5.236589765165263,6.904608658173657,False,False,False,1275.4755901536228,None,1275.4755901536228,None,1275.4755901536228,None,1275.4755901536228,None,1275.4755901536228,None,1275.4755901536228,None,1275.4755901536228,None,1275.4755901536228,None,1276.4593855685307,None,1276.4593855685307,None,1277.4566949087566,None,1277.4566949087566,None,h,,,,,,,,,,,,,,,,,,,,,,,,,,,,,,,,,,,,,,,,,,,,,,,21_22Exp,001,2021_Apr_30_1513,ComputerHuman,2020.1.3,60.016075128569845,
Human.xlsx,h,Sychronize.jpg,Number6.jpg,6,Human,,,,,0,7,7,8,0,3,3,1,,,,,,,,,,,,,,,,,,,,,,,,,,,,,1278.5065798949217,None,1278.5065798949217,None,1278.956636046565,None,1278.956636046565,None,v,3.0307036100966798,1278.956636046565,None,t,2.538302606844809,1278.956636046565,None,3.0307036100966798,2.538302606844809,6.028851768565515,False,False,False,1282.0569879045433,None,1282.0569879045433,None,1282.0569879045433,None,1282.0569879045433,None,1282.0569879045433,None,1282.0569879045433,None,1282.0569879045433,None,1282.0569879045433,None,1283.0579300203935,None,1283.0579300203935,None,1284.0549958924785,None,1284.0549958924785,None,h,,,,,,,,,,,,,,,,,,,,,,,,,,,,,,,,,,,,,,,,,,,,,,,21_22Exp,001,2021_Apr_30_1513,ComputerHuman,2020.1.3,60.016075128569845,
Human.xlsx,h,Sychronize.jpg,Number8.jpg,8,Human,,,,,0,7,7,8,0,4,4,4,,,,,,,,,,,,,,,,,,,,,,,,,,,,,1285.104991545977,None,1285.104991545977,None,1285.5550496222713,None,1285.5550496222713,None,v,3.4356395657850953,1285.5550496222713,None,t,5.514549867824826,1285.5550496222713,None,3.4356395657850953,5.514549867824826,7.692059281457517,False,False,False,1291.153275865443,None,1291.153275865443,None,1291.153275865443,None,1291.153275865443,None,1291.153275865443,None,1291.153275865443,None,1291.153275865443,None,1291.153275865443,None,1292.1218133019574,None,1292.1218133019574,None,1293.1193571286276,None,1293.1193571286276,None,h,,,,,,,,,,,,,,,,,,,,,,,,,,,,,,,,,,,,,,,,,,,,,,,21_22Exp,001,2021_Apr_30_1513,ComputerHuman,2020.1.3,60.016075128569845,
Human.xlsx,h,Sychronize.jpg,Number10.jpg,10,Human,,,,,0,7,7,8,0,5,5,9,,,,,,,,,,,,,,,,,,,,,,,,,,,,,1294.1859721291548,None,1294.1859721291548,None,1294.619304040385,None,1294.619304040385,None,v,6.65838115819497,1294.619304040385,None,t,7.553733162123535,1294.619304040385,None,6.65838115819497,7.553733162123535,10.416584405464008,False,False,False,1302.2670752483355,None,1302.2670752483355,None,1302.2670752483355,None,1302.2670752483355,None,1302.2670752483355,None,1302.2670752483355,None,1302.2670752483355,None,1302.2670752483355,None,1303.2520767768292,None,1303.2520767768292,None,1304.2498894128585,None,1304.2498894128585,None,h,,,,,,,,,,,,,,,,,,,,,,,,,,,,,,,,,,,,,,,,,,,,,,,21_22Exp,001,2021_Apr_30_1513,ComputerHuman,2020.1.3,60.016075128569845,
Human.xlsx,h,Sychronize.jpg,Number9.jpg,9,Human,,,,,0,7,7,8,0,6,6,6,,,,,,,,,,,,,,,,,,,,,,,,,,,,,1305.2667862301605,None,1305.2667862301605,None,1305.7498565334317,None,1305.7498565334317,None,v,4.403180675493786,1305.7498565334317,None,t,4.29064771186313,1305.7498565334317,None,4.403180675493786,4.29064771186313,8.811659250598415,True,False,False,1310.2483862617264,None,1310.2483862617264,None,1310.2483862617264,None,1310.2483862617264,None,1310.2483862617264,None,1310.2483862617264,None,1310.2483862617264,None,1310.2483862617264,None,1311.2171703741296,None,1311.2171703741296,None,1312.2145518887082,None,1312.2145518887082,None,h,,,,,,,,,,,,,,,,,,,,,,,,,,,,,,,,,,,,,,,,,,,,,,,21_22Exp,001,2021_Apr_30_1513,ComputerHuman,2020.1.3,60.016075128569845,
Human.xlsx,h,Sychronize.jpg,Number9.jpg,9,Human,,,,,0,7,7,8,0,7,7,7,,,,,,,,,,,,,,,,,,,,,,,,,,,,,1313.2647631029322,None,1313.2647631029322,None,1313.7313458976569,None,1313.7313458976569,None,v,5.156839995241171,1313.7313458976569,None,t,3.936611674089363,1313.7313458976569,None,5.156839995241171,3.936611674089363,8.942569641792934,False,False,False,1318.979419403866,None,1318.979419403866,None,1318.979419403866,None,1318.979419403866,None,1318.979419403866,None,1318.979419403866,None,1318.979419403866,None,1318.979419403866,None,1319.9647487642942,None,1319.9647487642942,None,1320.9623894649849,None,1320.9623894649849,None,h,,,,,,,,,,,,,,,,,,,,,,,,,,,,,,,,,,,,,,,,,,,,,,,21_22Exp,001,2021_Apr_30_1513,ComputerHuman,2020.1.3,60.016075128569845,
Human.xlsx,h,Sychronize.jpg,Number6.jpg,6,Human,,,,,0,7,7,8,0,8,8,0,,,,,,,,,,,,,,,,,,,,,,,,,,,,,1322.0121454996406,None,1322.0121454996406,None,1322.462255541468,None,1322.462255541468,None,v,2.981389603235584,1322.462255541468,None,t,2.844763879209495,1322.462255541468,None,2.981389603235584,2.844763879209495,5.763847834811022,True,False,False,1325.527822891203,None,1325.527822891203,None,1325.527822891203,None,1325.527822891203,None,1325.527822891203,None,1325.527822891203,None,1325.527822891203,None,1325.527822891203,None,1326.4971757374842,None,1326.4971757374842,None,1327.4939840273364,None,1327.4939840273364,None,h,,,,,,,,,,,,,,,,,,,,,,,,,,,,,,,,,,,,,,,,,,,,,,,21_22Exp,001,2021_Apr_30_1513,ComputerHuman,2020.1.3,60.016075128569845,
Human.xlsx,h,Sychronize.jpg,Number10.jpg,10,Human,,,,,0,7,7,8,0,9,9,8,,,,,,,,,,,,,,,,,,,,,,,,,,,,,1328.561364075973,None,1328.561364075973,None,1328.9942112963436,None,1328.9942112963436,None,v,9.136352744597389,1328.9942112963436,None,t,3.6797117260211962,1328.9942112963436,None,9.136352744597389,3.6797117260211962,9.888071359748018,False,False,False,1338.2085450581253,None,1338.2085450581253,None,1338.2085450581253,None,1338.2085450581253,None,1338.2085450581253,None,1338.2085450581253,None,1338.2085450581253,None,1338.2085450581253,None,1339.2098057034418,None,1339.2098057034418,None,1340.1907991496919,None,1340.1907991496919,None,h,,,,,,,,,,,,,,,,,,,,,,,,,,,,,,,,,,,,,,,,,,,,,,,21_22Exp,001,2021_Apr_30_1513,ComputerHuman,2020.1.3,60.016075128569845,
Human.xlsx,h,,,,,,,,,0,7,7,8,,,,,,,,,,,,,,,,,,,,,,,,,,,,,,,,,,,,,,,,,,,,,,,,,,,,,,,,,,,,,,,,,,,,,,,,,,,,,,,h,1341.1914621913857,None,1341.1914621913857,None,q,0,1.8787082780108904,1341.1914621913857,None,o,1,2.4980213000926597,1341.1914621913857,None,h,h,1343.773700372516,None,1343.773700372516,None,1345.7560667352918,None,None,None,None,None,None,None,None,,,,,,,,,,,,,,,,,,21_22Exp,001,2021_Apr_30_1513,ComputerHuman,2020.1.3,60.016075128569845,
Computer.xlsx,c,Sychronize.jpg,Number6.jpg,6,Computer,,,,,0,8,8,3,0,0,0,0,,,,,,,,,,,,,,,,,,,,,,,,,1350.7747781761464,None,1350.7747781761464,None,1353.8372795594878,None,1353.8372795594878,None,1354.287760096311,None,1354.287760096311,None,v,3.5611161169836123,1354.287760096311,None,t,2.3407950918881397,1354.287760096311,None,3.5611161169836123,2.3407950918881397,5.743022478831488,False,False,False,1357.936159702269,None,1357.936159702269,None,1357.936159702269,None,1357.936159702269,None,1357.936159702269,None,1357.936159702269,None,1357.936159702269,None,1357.936159702269,None,1358.9192099571083,None,1358.9192099571083,None,1359.9190457203658,None,1359.9190457203658,None,c,,,,,,,,,,,,,,,,,,,,,,,,,,,,,,,,,,,,,,,,,,,,,,,21_22Exp,001,2021_Apr_30_1513,ComputerHuman,2020.1.3,60.016075128569845,
Computer.xlsx,c,Sychronize.jpg,Number7.jpg,7,Computer,,,,,0,8,8,3,0,1,1,2,,,,,,,,,,,,,,,,,,,,,,,,,,,,,1360.9855725077978,None,1360.9855725077978,None,1361.4189647247076,None,1361.4189647247076,None,v,3.5333328414781136,1361.4189647247076,None,t,4.472664365857781,1361.4189647247076,None,3.5333328414781136,4.472664365857781,7.36005086558918,False,False,False,1365.9842255740368,None,1365.9842255740368,None,1365.9842255740368,None,1365.9842255740368,None,1365.9842255740368,None,1365.9842255740368,None,1365.9842255740368,None,1365.9842255740368,None,1366.98406775279,None,1366.98406775279,None,1367.9670673251967,None,1367.9670673251967,None,c,,,,,,,,,,,,,,,,,,,,,,,,,,,,,,,,,,,,,,,,,,,,,,,21_22Exp,001,2021_Apr_30_1513,ComputerHuman,2020.1.3,60.016075128569845,
Computer.xlsx,c,Sychronize.jpg,Number9.jpg,9,Computer,,,,,0,8,8,3,0,2,2,6,,,,,,,,,,,,,,,,,,,,,,,,,,,,,1369.0170280142338,None,1369.0170280142338,None,1369.466862831203,None,1369.466862831203,None,v,3.9127399275894277,1369.466862831203,None,t,8.06731172358559,1369.466862831203,None,3.9127399275894277,8.06731172358559,9.213215292986868,False,False,False,1377.6161482570205,None,1377.6161482570205,None,1377.6161482570205,None,1377.6161482570205,None,1377.6161482570205,None,1377.6161482570205,None,1377.6161482570205,None,1377.6161482570205,None,1378.6144112609945,None,1378.6144112609945,None,1379.5974759507044,None,1379.5974759507044,None,c,,,,,,,,,,,,,,,,,,,,,,,,,,,,,,,,,,,,,,,,,,,,,,,21_22Exp,001,2021_Apr_30_1513,ComputerHuman,2020.1.3,60.016075128569845,
Computer.xlsx,c,Sychronize.jpg,Number9.jpg,9,Computer,,,,,0,8,8,3,0,3,3,7,,,,,,,,,,,,,,,,,,,,,,,,,,,,,1380.664688234072,None,1380.664688234072,None,1381.1142988293977,None,1381.1142988293977,None,v,4.040351877221838,1381.1142988293977,None,t,8.24327792161057,1381.1142988293977,None,4.040351877221838,8.24327792161057,9.4792562706727,False,False,False,1389.4299785305375,None,1389.4299785305375,None,1389.4299785305375,None,1389.4299785305375,None,1389.4299785305375,None,1389.4299785305375,None,1389.4299785305375,None,1389.4299785305375,None,1390.4447107588858,None,1390.4447107588858,None,1391.411128194155,None,1391.411128194155,None,c,,,,,,,,,,,,,,,,,,,,,,,,,,,,,,,,,,,,,,,,,,,,,,,21_22Exp,001,2021_Apr_30_1513,ComputerHuman,2020.1.3,60.016075128569845,
Computer.xlsx,c,Sychronize.jpg,Number10.jpg,10,Computer,,,,,0,8,8,3,0,4,4,8,,,,,,,,,,,,,,,,,,,,,,,,,,,,,1392.4610933740405,None,1392.4610933740405,None,1392.9110661242157,None,1392.9110661242157,None,v,4.590455150701018,1392.9110661242157,None,t,10.101213138554158,1392.9110661242157,None,4.590455150701018,10.101213138554158,9.46459042087791,False,False,False,1403.0922872564806,None,1403.0922872564806,None,1403.0922872564806,None,1403.0922872564806,None,1403.0922872564806,None,1403.0922872564806,None,1403.0922872564806,None,1403.0922872564806,None,1404.1079757147745,None,1404.1079757147745,None,1405.0909300579224,None,1405.0909300579224,None,c,,,,,,,,,,,,,,,,,,,,,,,,,,,,,,,,,,,,,,,,,,,,,,,21_22Exp,001,2021_Apr_30_1513,ComputerHuman,2020.1.3,60.016075128569845,
Computer.xlsx,c,Sychronize.jpg,Number7.jpg,7,Computer,,,,,0,8,8,3,0,5,5,3,,,,,,,,,,,,,,,,,,,,,,,,,,,,,1406.1408227426837,None,1406.1408227426837,None,1406.5744795988794,None,1406.5744795988794,None,v,3.1460369385131344,1406.5744795988794,None,t,6.421757070118474,1406.5744795988794,None,3.1460369385131344,6.421757070118474,6.750150898087326,False,False,False,1413.088987124418,None,1413.088987124418,None,1413.088987124418,None,1413.088987124418,None,1413.088987124418,None,1413.088987124418,None,1413.088987124418,None,1413.088987124418,None,1414.0887430147268,None,1414.0887430147268,None,1415.0719077862013,None,1415.0719077862013,None,c,,,,,,,,,,,,,,,,,,,,,,,,,,,,,,,,,,,,,,,,,,,,,,,21_22Exp,001,2021_Apr_30_1513,ComputerHuman,2020.1.3,60.016075128569845,
Computer.xlsx,c,Sychronize.jpg,Number8.jpg,8,Computer,,,,,0,8,8,3,0,6,6,5,,,,,,,,,,,,,,,,,,,,,,,,,,,,,1416.1221857216042,None,1416.1221857216042,None,1416.5719419487286,None,1416.5719419487286,None,v,3.1597455741903104,1416.5719419487286,None,t,8.562302342521434,1416.5719419487286,None,3.1597455741903104,8.562302342521434,7.428946715532871,False,False,False,1425.2192284658195,None,1425.2192284658195,None,1425.2192284658195,None,1425.2192284658195,None,1425.2192284658195,None,1425.2192284658195,None,1425.2192284658195,None,1425.2192284658195,None,1426.2021241071634,None,1426.2021241071634,None,1427.1853373156482,None,1427.1853373156482,None,c,,,,,,,,,,,,,,,,,,,,,,,,,,,,,,,,,,,,,,,,,,,,,,,21_22Exp,001,2021_Apr_30_1513,ComputerHuman,2020.1.3,60.016075128569845,
Computer.xlsx,c,Sychronize.jpg,Number6.jpg,6,Computer,,,,,0,8,8,3,0,7,7,1,,,,,,,,,,,,,,,,,,,,,,,,,,,,,1428.252188727267,None,1428.252188727267,None,1428.6854542380934,None,1428.6854542380934,None,v,2.997164991527825,1428.6854542380934,None,t,5.264583468997444,1428.6854542380934,None,2.997164991527825,5.264583468997444,6.3793635782900555,False,False,False,1434.0172349140375,None,1434.0172349140375,None,1434.0172349140375,None,1434.0172349140375,None,1434.0172349140375,None,1434.0172349140375,None,1434.0172349140375,None,1434.0172349140375,None,1435.033440461455,None,1435.033440461455,None,1436.0159296810125,None,1436.0159296810125,None,c,,,,,,,,,,,,,,,,,,,,,,,,,,,,,,,,,,,,,,,,,,,,,,,21_22Exp,001,2021_Apr_30_1513,ComputerHuman,2020.1.3,60.016075128569845,
Computer.xlsx,c,Sychronize.jpg,Number8.jpg,8,Computer,,,,,0,8,8,3,0,8,8,4,,,,,,,,,,,,,,,,,,,,,,,,,,,,,1437.0661367251632,None,1437.0661367251632,None,1437.5164860650584,None,1437.5164860650584,None,v,3.5213676173261774,1437.5164860650584,None,t,8.824277270116,1437.5164860650584,None,3.5213676173261774,8.824277270116,7.800944133538069,False,False,False,1446.398523665648,None,1446.398523665648,None,1446.398523665648,None,1446.398523665648,None,1446.398523665648,None,1446.398523665648,None,1446.398523665648,None,1446.398523665648,None,1447.4303236843189,None,1447.4303236843189,None,1448.4133864493779,None,1448.4133864493779,None,c,,,,,,,,,,,,,,,,,,,,,,,,,,,,,,,,,,,,,,,,,,,,,,,21_22Exp,001,2021_Apr_30_1513,ComputerHuman,2020.1.3,60.016075128569845,
Computer.xlsx,c,Sychronize.jpg,Number10.jpg,10,Computer,,,,,0,8,8,3,0,9,9,9,,,,,,,,,,,,,,,,,,,,,,,,,,,,,1449.4631197090202,None,1449.4631197090202,None,1449.9132473934624,None,1449.9132473934624,None,v,1.4917896063161606,1449.9132473934624,None,t,10.262120238618081,1449.9132473934624,None,1.4917896063161606,10.262120238618081,9.834275497628955,False,False,False,1460.2603845256926,None,1460.2603845256926,None,1460.2603845256926,None,1460.2603845256926,None,1460.2603845256926,None,1460.2603845256926,None,1460.2603845256926,None,1460.2603845256926,None,1461.2434453661008,None,1461.2434453661008,None,1462.2265581720458,None,1462.2265581720458,None,c,,,,,,,,,,,,,,,,,,,,,,,,,,,,,,,,,,,,,,,,,,,,,,,21_22Exp,001,2021_Apr_30_1513,ComputerHuman,2020.1.3,60.016075128569845,
Computer.xlsx,c,,,,,,,,,0,8,8,3,,,,,,,,,,,,,,,,,,,,,,,,,,,,,,,,,,,,,,,,,,,,,,,,,,,,,,,,,,,,,,,,,,,,,,,,,,,,,,,c,1463.2271817584297,None,1463.2271817584297,None,a,0,2.3488593726069666,1463.2271817584297,None,o,0,2.4197939277946716,1463.2271817584297,None,c,h,1465.7430808054414,None,1465.7430808054414,None,1467.7417595336701,None,None,None,None,None,None,None,None,,,,,,,,,,,,,,,,,,21_22Exp,001,2021_Apr_30_1513,ComputerHuman,2020.1.3,60.016075128569845,
Computer.xlsx,c,Sychronize.jpg,Number8.jpg,8,Computer,,,,,0,9,9,1,0,0,0,5,,,,,,,,,,,,,,,,,,,,,,,,,1472.743527003313,None,1472.743527003313,None,1475.8070061085164,None,1475.8070061085164,None,1476.240026868105,None,1476.240026868105,None,v,4.418471693701576,1476.240026868105,None,t,6.985389666107949,1476.240026868105,None,4.418471693701576,6.985389666107949,8.507284064002095,False,False,False,1483.3058267796368,None,1483.3058267796368,None,1483.3058267796368,None,1483.3058267796368,None,1483.3058267796368,None,1483.3058267796368,None,1483.3058267796368,None,1483.3058267796368,None,1484.3374869404543,None,1484.3374869404543,None,1485.3207062436595,None,1485.3207062436595,None,c,,,,,,,,,,,,,,,,,,,,,,,,,,,,,,,,,,,,,,,,,,,,,,,21_22Exp,001,2021_Apr_30_1513,ComputerHuman,2020.1.3,60.016075128569845,
Computer.xlsx,c,Sychronize.jpg,Number10.jpg,10,Computer,,,,,0,9,9,1,0,1,1,9,,,,,,,,,,,,,,,,,,,,,,,,,,,,,1486.3709639702429,None,1486.3709639702429,None,1486.8032799874018,None,1486.8032799874018,None,v,5.562262566436402,1486.8032799874018,None,t,9.697318097380048,1486.8032799874018,None,5.562262566436402,9.697318097380048,9.33812601255664,False,False,False,1496.5844977194502,None,1496.5844977194502,None,1496.5844977194502,None,1496.5844977194502,None,1496.5844977194502,None,1496.5844977194502,None,1496.5844977194502,None,1496.5844977194502,None,1497.5842507227862,None,1497.5842507227862,None,1498.5673317720139,None,1498.5673317720139,None,c,,,,,,,,,,,,,,,,,,,,,,,,,,,,,,,,,,,,,,,,,,,,,,,21_22Exp,001,2021_Apr_30_1513,ComputerHuman,2020.1.3,60.016075128569845,
Computer.xlsx,c,Sychronize.jpg,Number7.jpg,7,Computer,,,,,0,9,9,1,0,2,2,2,,,,,,,,,,,,,,,,,,,,,,,,,,,,,1499.6168870015936,None,1499.6168870015936,None,1500.06770050275,None,1500.06770050275,None,v,2.6809460677977768,1500.06770050275,None,t,6.315433987576398,1500.06770050275,None,2.6809460677977768,6.315433987576398,7.501532520330366,False,False,False,1506.4820852035846,None,1506.4820852035846,None,1506.4820852035846,None,1506.4820852035846,None,1506.4820852035846,None,1506.4820852035846,None,1506.4820852035846,None,1506.4820852035846,None,1507.465074831969,None,1507.465074831969,None,1508.4482213192787,None,1508.4482213192787,None,c,,,,,,,,,,,,,,,,,,,,,,,,,,,,,,,,,,,,,,,,,,,,,,,21_22Exp,001,2021_Apr_30_1513,ComputerHuman,2020.1.3,60.016075128569845,
Computer.xlsx,c,Sychronize.jpg,Number7.jpg,7,Computer,,,,,0,9,9,1,0,3,3,3,,,,,,,,,,,,,,,,,,,,,,,,,,,,,1509.4982997326988,None,1509.4982997326988,None,1509.9479340653634,None,1509.9479340653634,None,v,2.8278802136737795,1509.9479340653634,None,t,6.994419800023024,1509.9479340653634,None,2.8278802136737795,6.994419800023024,7.059790025645074,False,False,True,1517.0293935654481,None,1517.0293935654481,None,1517.0293935654481,None,1517.0293935654481,None,1517.0293935654481,None,1517.0293935654481,None,1517.0293935654481,None,1517.0293935654481,None,1518.0290939617007,None,1518.0290939617007,None,1519.0122106169438,None,1519.0122106169438,None,c,,,,,,,,,,,,,,,,,,,,,,,,,,,,,,,,,,,,,,,,,,,,,,,21_22Exp,001,2021_Apr_30_1513,ComputerHuman,2020.1.3,60.016075128569845,
Computer.xlsx,c,Sychronize.jpg,Number6.jpg,6,Computer,,,,,0,9,9,1,0,4,4,1,,,,,,,,,,,,,,,,,,,,,,,,,,,,,1520.062224554611,None,1520.062224554611,None,1520.5122993112018,None,1520.5122993112018,None,v,2.918604654892988,1520.5122993112018,None,t,5.8495174422932905,1520.5122993112018,None,2.918604654892988,5.8495174422932905,5.840886115242409,False,False,True,1526.460289512168,None,1526.460289512168,None,1526.460289512168,None,1526.460289512168,None,1526.460289512168,None,1526.460289512168,None,1526.460289512168,None,1526.460289512168,None,1527.4434186776307,None,1527.4434186776307,None,1528.4264695740203,None,1528.4264695740203,None,c,,,,,,,,,,,,,,,,,,,,,,,,,,,,,,,,,,,,,,,,,,,,,,,21_22Exp,001,2021_Apr_30_1513,ComputerHuman,2020.1.3,60.016075128569845,
Computer.xlsx,c,Sychronize.jpg,Number6.jpg,6,Computer,,,,,0,9,9,1,0,5,5,0,,,,,,,,,,,,,,,,,,,,,,,,,,,,,1529.4933389490325,None,1529.4933389490325,None,1529.9262593060812,None,1529.9262593060812,None,v,0.04412098217653693,1529.9262593060812,None,t,4.722619858341204,1529.9262593060812,None,0.04412098217653693,4.722619858341204,6.114262336493324,False,False,False,1534.7415478222429,None,1534.7415478222429,None,1534.7415478222429,None,1534.7415478222429,None,1534.7415478222429,None,1534.7415478222429,None,1534.7415478222429,None,1534.7415478222429,None,1535.7411073983203,None,1535.7411073983203,None,1536.724353967391,None,1536.724353967391,None,c,,,,,,,,,,,,,,,,,,,,,,,,,,,,,,,,,,,,,,,,,,,,,,,21_22Exp,001,2021_Apr_30_1513,ComputerHuman,2020.1.3,60.016075128569845,
Computer.xlsx,c,Sychronize.jpg,Number9.jpg,9,Computer,,,,,0,9,9,1,0,6,6,6,,,,,,,,,,,,,,,,,,,,,,,,,,,,,1537.7582085492286,None,1537.7582085492286,None,1538.2245446680645,None,1538.2245446680645,None,v,4.092826479067298,1538.2245446680645,None,t,8.019661576076032,1538.2245446680645,None,4.092826479067298,8.019661576076032,9.29975728995902,False,False,False,1546.3386362768833,None,1546.3386362768833,None,1546.3386362768833,None,1546.3386362768833,None,1546.3386362768833,None,1546.3386362768833,None,1546.3386362768833,None,1546.3386362768833,None,1547.338266102659,None,1547.338266102659,None,1548.3214347234316,None,1548.3214347234316,None,c,,,,,,,,,,,,,,,,,,,,,,,,,,,,,,,,,,,,,,,,,,,,,,,21_22Exp,001,2021_Apr_30_1513,ComputerHuman,2020.1.3,60.016075128569845,
Computer.xlsx,c,Sychronize.jpg,Number8.jpg,8,Computer,,,,,0,9,9,1,0,7,7,4,,,,,,,,,,,,,,,,,,,,,,,,,,,,,1549.3716616556303,None,1549.3716616556303,None,1549.8215692884987,None,1549.8215692884987,None,v,3.422820759653405,1549.8215692884987,None,t,8.001376765827445,1549.8215692884987,None,3.422820759653405,8.001376765827445,8.429165673243132,False,False,False,1557.9033652814433,None,1557.9033652814433,None,1557.9033652814433,None,1557.9033652814433,None,1557.9033652814433,None,1557.9033652814433,None,1557.9033652814433,None,1557.9033652814433,None,1558.9019923649175,None,1558.9019923649175,None,1559.8851693258366,None,1559.8851693258366,None,c,,,,,,,,,,,,,,,,,,,,,,,,,,,,,,,,,,,,,,,,,,,,,,,21_22Exp,001,2021_Apr_30_1513,ComputerHuman,2020.1.3,60.016075128569845,
Computer.xlsx,c,Sychronize.jpg,Number10.jpg,10,Computer,,,,,0,9,9,1,0,8,8,8,,,,,,,,,,,,,,,,,,,,,,,,,,,,,1560.9516967548188,None,1560.9516967548188,None,1561.3850280244988,None,1561.3850280244988,None,v,4.030367438012036,1561.3850280244988,None,t,8.673268641592585,1561.3850280244988,None,4.030367438012036,8.673268641592585,9.707842532754276,False,False,False,1570.149228969436,None,1570.149228969436,None,1570.149228969436,None,1570.149228969436,None,1570.149228969436,None,1570.149228969436,None,1570.149228969436,None,1570.149228969436,None,1571.1489736326257,None,1571.1489736326257,None,1572.1320803438466,None,1572.1320803438466,None,c,,,,,,,,,,,,,,,,,,,,,,,,,,,,,,,,,,,,,,,,,,,,,,,21_22Exp,001,2021_Apr_30_1513,ComputerHuman,2020.1.3,60.016075128569845,
Computer.xlsx,c,Sychronize.jpg,Number9.jpg,9,Computer,,,,,0,9,9,1,0,9,9,7,,,,,,,,,,,,,,,,,,,,,,,,,,,,,1573.1817497692828,None,1573.1817497692828,None,1573.6156446404457,None,1573.6156446404457,None,v,4.290664712931175,1573.6156446404457,None,t,7.829406460597966,1573.6156446404457,None,4.290664712931175,7.829406460597966,8.333641263893169,False,False,False,1581.529640080953,None,1581.529640080953,None,1581.529640080953,None,1581.529640080953,None,1581.529640080953,None,1581.529640080953,None,1581.529640080953,None,1581.529640080953,None,1582.5294617301115,None,1582.5294617301115,None,1583.5125164757992,None,1583.5125164757992,None,c,,,,,,,,,,,,,,,,,,,,,,,,,,,,,,,,,,,,,,,,,,,,,,,21_22Exp,001,2021_Apr_30_1513,ComputerHuman,2020.1.3,60.016075128569845,
Computer.xlsx,c,,,,,,,,,0,9,9,1,,,,,,,,,,,,,,,,,,,,,,,,,,,,,,,,,,,,,,,,,,,,,,,,,,,,,,,,,,,,,,,,,,,,,,,,,,,,,,,c,1584.5128154379963,None,1584.5128154379963,None,a,0,2.0007207811759145,1584.5128154379963,None,o,0,2.1958003509935224,1584.5128154379963,None,c,h,1586.7955053664045,None,1586.7955053664045,None,None,None,1588.7945420794094,None,1588.7945420794094,None,"['space', 'space']",1589.777625374063,None,"[3.1074615126271965, 317.98486840691476]",,,,,,,,,,,,,,,,,21_22Exp,001,2021_Apr_30_1513,ComputerHuman,2020.1.3,60.016075128569845,
Computer.xlsx,c,Sychronize.jpg,Number7.jpg,7,Computer,,,,,1,0,10,5,0,0,0,2,,,,,,,,,,,,,,,,,,,,,,,,,1907.8167265499942,None,1907.8167265499942,None,1910.8800670804449,None,1910.8800670804449,None,1911.3129582469774,None,1911.3129582469774,None,v,4.308829874149524,1911.3129582469774,None,t,5.363503708638746,1911.3129582469774,None,4.308829874149524,5.363503708638746,7.290460221531732,False,False,False,1916.7615022657956,None,1916.7615022657956,None,1916.7615022657956,None,1916.7615022657956,None,1916.7615022657956,None,1916.7615022657956,None,1916.7615022657956,None,1916.7615022657956,None,1917.7778428594393,None,1917.7778428594393,None,1918.7609790819479,None,1918.7609790819479,None,c,,,,,,,,,,,,,,,,,,,,,,,,,,,,,,,,,,,,,,,,,,,,,,,21_22Exp,001,2021_Apr_30_1513,ComputerHuman,2020.1.3,60.016075128569845,
Computer.xlsx,c,Sychronize.jpg,Number8.jpg,8,Computer,,,,,1,0,10,5,0,1,1,5,,,,,,,,,,,,,,,,,,,,,,,,,,,,,1919.811432481216,None,1919.811432481216,None,1920.261207313284,None,1920.261207313284,None,v,4.239803608779766,1920.261207313284,None,t,6.534512330748839,1920.261207313284,None,4.239803608779766,6.534512330748839,7.892728299712593,False,False,False,1926.8922709611143,None,1926.8922709611143,None,1926.8922709611143,None,1926.8922709611143,None,1926.8922709611143,None,1926.8922709611143,None,1926.8922709611143,None,1926.8922709611143,None,1927.8753378962501,None,1927.8753378962501,None,1928.858413813079,None,1928.858413813079,None,c,,,,,,,,,,,,,,,,,,,,,,,,,,,,,,,,,,,,,,,,,,,,,,,21_22Exp,001,2021_Apr_30_1513,ComputerHuman,2020.1.3,60.016075128569845,
Computer.xlsx,c,Sychronize.jpg,Number7.jpg,7,Computer,,,,,1,0,10,5,0,2,2,3,,,,,,,,,,,,,,,,,,,,,,,,,,,,,1929.9415618721832,None,1929.9415618721832,None,1930.3753762288507,None,1930.3753762288507,None,v,3.768805989253451,1930.3753762288507,None,t,7.231354718969669,1930.3753762288507,None,3.768805989253451,7.231354718969669,6.796766018521396,False,False,False,1937.706146143115,None,1937.706146143115,None,1937.706146143115,None,1937.706146143115,None,1937.706146143115,None,1937.706146143115,None,1937.706146143115,None,1937.706146143115,None,1938.7059299408393,None,1938.7059299408393,None,1939.6723319789162,None,1939.6723319789162,None,c,,,,,,,,,,,,,,,,,,,,,,,,,,,,,,,,,,,,,,,,,,,,,,,21_22Exp,001,2021_Apr_30_1513,ComputerHuman,2020.1.3,60.016075128569845,
Computer.xlsx,c,Sychronize.jpg,Number10.jpg,10,Computer,,,,,1,0,10,5,0,3,3,9,,,,,,,,,,,,,,,,,,,,,,,,,,,,,1940.7224437529258,None,1940.7224437529258,None,1941.1724848281483,None,1941.1724848281483,None,v,4.074752097145392,1941.1724848281483,None,t,10.557097449167486,1941.1724848281483,None,4.074752097145392,10.557097449167486,9.873770804394697,False,False,False,1951.8193010892574,None,1951.8193010892574,None,1951.8193010892574,None,1951.8193010892574,None,1951.8193010892574,None,1951.8193010892574,None,1951.8193010892574,None,1951.8193010892574,None,1952.819024260527,None,1952.819024260527,None,1953.8021370664683,None,1953.8021370664683,None,c,,,,,,,,,,,,,,,,,,,,,,,,,,,,,,,,,,,,,,,,,,,,,,,21_22Exp,001,2021_Apr_30_1513,ComputerHuman,2020.1.3,60.016075128569845,
Computer.xlsx,c,Sychronize.jpg,Number9.jpg,9,Computer,,,,,1,0,10,5,0,4,4,7,,,,,,,,,,,,,,,,,,,,,,,,,,,,,1954.8523723388134,None,1954.8523723388134,None,1955.302250139619,None,1955.302250139619,None,v,6.56359698997403,1955.302250139619,None,t,9.430217828601599,1955.302250139619,None,6.56359698997403,9.430217828601599,8.505351940424017,False,False,False,1964.8158880444316,None,1964.8158880444316,None,1964.8158880444316,None,1964.8158880444316,None,1964.8158880444316,None,1964.8158880444316,None,1964.8158880444316,None,1964.8158880444316,None,1965.815721241488,None,1965.815721241488,None,1966.7987872142985,None,1966.7987872142985,None,c,,,,,,,,,,,,,,,,,,,,,,,,,,,,,,,,,,,,,,,,,,,,,,,21_22Exp,001,2021_Apr_30_1513,ComputerHuman,2020.1.3,60.016075128569845,
Computer.xlsx,c,Sychronize.jpg,Number6.jpg,6,Computer,,,,,1,0,10,5,0,5,5,0,,,,,,,,,,,,,,,,,,,,,,,,,,,,,1967.849054884904,None,1967.849054884904,None,1968.29902121958,None,1968.29902121958,None,v,2.4580829017031647,1968.29902121958,None,t,4.001540361019579,1968.29902121958,None,2.4580829017031647,4.001540361019579,6.145847165361334,False,False,False,1972.3973756123196,None,1972.3973756123196,None,1972.3973756123196,None,1972.3973756123196,None,1972.3973756123196,None,1972.3973756123196,None,1972.3973756123196,None,1972.3973756123196,None,1973.3971683917407,None,1973.3971683917407,None,1974.363624319998,None,1974.363624319998,None,c,,,,,,,,,,,,,,,,,,,,,,,,,,,,,,,,,,,,,,,,,,,,,,,21_22Exp,001,2021_Apr_30_1513,ComputerHuman,2020.1.3,60.016075128569845,
Computer.xlsx,c,Sychronize.jpg,Number10.jpg,10,Computer,,,,,1,0,10,5,0,6,6,8,,,,,,,,,,,,,,,,,,,,,,,,,,,,,1975.43059409755,None,1975.43059409755,None,1975.863400900289,None,1975.863400900289,None,v,6.3447364529565675,1975.863400900289,None,t,10.096181784414512,1975.863400900289,None,6.3447364529565675,10.096181784414512,9.397142873018863,False,False,False,1986.0286480846044,None,1986.0286480846044,None,1986.0286480846044,None,1986.0286480846044,None,1986.0286480846044,None,1986.0286480846044,None,1986.0286480846044,None,1986.0286480846044,None,1987.0437354107562,None,1987.0437354107562,None,1988.0267490972583,None,1988.0267490972583,None,c,,,,,,,,,,,,,,,,,,,,,,,,,,,,,,,,,,,,,,,,,,,,,,,21_22Exp,001,2021_Apr_30_1513,ComputerHuman,2020.1.3,60.016075128569845,
Computer.xlsx,c,Sychronize.jpg,Number8.jpg,8,Computer,,,,,1,0,10,5,0,7,7,4,,,,,,,,,,,,,,,,,,,,,,,,,,,,,1989.076496150221,None,1989.076496150221,None,1989.5101664789618,None,1989.5101664789618,None,v,3.961012378382293,1989.5101664789618,None,t,7.404919275395514,1989.5101664789618,None,3.961012378382293,7.404919275395514,7.724400677112694,False,False,False,1997.0077595445764,None,1997.0077595445764,None,1997.0077595445764,None,1997.0077595445764,None,1997.0077595445764,None,1997.0077595445764,None,1997.0077595445764,None,1997.0077595445764,None,1998.0073922573283,None,1998.0073922573283,None,1998.9906952827805,None,1998.9906952827805,None,c,,,,,,,,,,,,,,,,,,,,,,,,,,,,,,,,,,,,,,,,,,,,,,,21_22Exp,001,2021_Apr_30_1513,ComputerHuman,2020.1.3,60.016075128569845,
Computer.xlsx,c,Sychronize.jpg,Number6.jpg,6,Computer,,,,,1,0,10,5,0,8,8,1,,,,,,,,,,,,,,,,,,,,,,,,,,,,,2000.0405459460308,None,2000.0405459460308,None,2000.4907592773707,None,2000.4907592773707,None,v,3.887458696222893,2000.4907592773707,None,t,6.5184758316972875,2000.4907592773707,None,3.887458696222893,6.5184758316972875,6.022104841141839,False,False,False,2007.1051034964148,None,2007.1051034964148,None,2007.1051034964148,None,2007.1051034964148,None,2007.1051034964148,None,2007.1051034964148,None,2007.1051034964148,None,2007.1051034964148,None,2008.088267305564,None,2008.088267305564,None,2009.071477306301,None,2009.071477306301,None,c,,,,,,,,,,,,,,,,,,,,,,,,,,,,,,,,,,,,,,,,,,,,,,,21_22Exp,001,2021_Apr_30_1513,ComputerHuman,2020.1.3,60.016075128569845,
Computer.xlsx,c,Sychronize.jpg,Number9.jpg,9,Computer,,,,,1,0,10,5,0,9,9,6,,,,,,,,,,,,,,,,,,,,,,,,,,,,,2010.1379765070888,None,2010.1379765070888,None,2010.571651326678,None,2010.571651326678,None,v,7.977412956934131,2010.571651326678,None,t,8.70430746144848,2010.571651326678,None,7.977412956934131,8.70430746144848,8.881034990029898,False,False,True,2019.3536963371698,None,2019.3536963371698,None,2019.3536963371698,None,2019.3536963371698,None,2019.3536963371698,None,2019.3536963371698,None,2019.3536963371698,None,2019.3536963371698,None,2020.3685963307835,None,2020.3685963307835,None,2021.3516934187573,None,2021.3516934187573,None,c,,,,,,,,,,,,,,,,,,,,,,,,,,,,,,,,,,,,,,,,,,,,,,,21_22Exp,001,2021_Apr_30_1513,ComputerHuman,2020.1.3,60.016075128569845,
Computer.xlsx,c,,,,,,,,,1,0,10,5,,,,,,,,,,,,,,,,,,,,,,,,,,,,,,,,,,,,,,,,,,,,,,,,,,,,,,,,,,,,,,,,,,,,,,,,,,,,,,,c,2022.3519032055374,None,2022.3519032055374,None,q,0,2.2926583288717666,2022.3519032055374,None,o,0,1.6560702958959155,2022.3519032055374,None,h,h,2024.7179901143609,None,2024.7179901143609,None,2026.717013996371,None,None,None,None,None,None,None,None,,,,,,,,,,,,,,,,,,21_22Exp,001,2021_Apr_30_1513,ComputerHuman,2020.1.3,60.016075128569845,
Computer.xlsx,c,Sychronize.jpg,Number9.jpg,9,Computer,,,,,1,1,11,1,0,0,0,7,,,,,,,,,,,,,,,,,,,,,,,,,2031.7348631943205,None,2031.7348631943205,None,2034.8154594891785,None,2034.8154594891785,None,2035.248678166874,None,2035.248678166874,None,v,5.598468107436929,2035.248678166874,None,t,8.001361047856335,2035.248678166874,None,5.598468107436929,8.001361047856335,8.603862542925764,False,False,False,2043.3304424031048,None,2043.3304424031048,None,2043.3304424031048,None,2043.3304424031048,None,2043.3304424031048,None,2043.3304424031048,None,2043.3304424031048,None,2043.3304424031048,None,2044.3456721533075,None,2044.3456721533075,None,2045.3289219301296,None,2045.3289219301296,None,c,,,,,,,,,,,,,,,,,,,,,,,,,,,,,,,,,,,,,,,,,,,,,,,21_22Exp,001,2021_Apr_30_1513,ComputerHuman,2020.1.3,60.016075128569845,
Computer.xlsx,c,Sychronize.jpg,Number10.jpg,10,Computer,,,,,1,1,11,1,0,1,1,9,,,,,,,,,,,,,,,,,,,,,,,,,,,,,2046.3960803233167,None,2046.3960803233167,None,2046.8456761629932,None,2046.8456761629932,None,v,6.4604364270708174,2046.8456761629932,None,t,9.543199556304899,2046.8456761629932,None,6.4604364270708174,9.543199556304899,9.266444171811289,False,False,True,2056.476009085629,None,2056.476009085629,None,2056.476009085629,None,2056.476009085629,None,2056.476009085629,None,2056.476009085629,None,2056.476009085629,None,2056.476009085629,None,2057.47574091782,None,2057.47574091782,None,2058.4423466479493,None,2058.4423466479493,None,c,,,,,,,,,,,,,,,,,,,,,,,,,,,,,,,,,,,,,,,,,,,,,,,21_22Exp,001,2021_Apr_30_1513,ComputerHuman,2020.1.3,60.016075128569845,
Computer.xlsx,c,Sychronize.jpg,Number8.jpg,8,Computer,,,,,1,1,11,1,0,2,2,4,,,,,,,,,,,,,,,,,,,,,,,,,,,,,2059.4930342128864,None,2059.4930342128864,None,2059.9424016608427,None,2059.9424016608427,None,v,5.138995288136357,2059.9424016608427,None,t,8.025312667305116,2059.9424016608427,None,5.138995288136357,8.025312667305116,8.311403358336705,False,False,True,2068.0412625571335,None,2068.0412625571335,None,2068.0412625571335,None,2068.0412625571335,None,2068.0412625571335,None,2068.0412625571335,None,2068.0412625571335,None,2068.0412625571335,None,2069.056239215948,None,2069.056239215948,None,2070.0393635697874,None,2070.0393635697874,None,c,,,,,,,,,,,,,,,,,,,,,,,,,,,,,,,,,,,,,,,,,,,,,,,21_22Exp,001,2021_Apr_30_1513,ComputerHuman,2020.1.3,60.016075128569845,
Computer.xlsx,c,Sychronize.jpg,Number9.jpg,9,Computer,,,,,1,1,11,1,0,3,3,6,,,,,,,,,,,,,,,,,,,,,,,,,,,,,2071.0897675697233,None,2071.0897675697233,None,2071.539563893708,None,2071.539563893708,None,v,5.056592068329337,2071.539563893708,None,t,9.843162570959976,2071.539563893708,None,5.056592068329337,9.843162570959976,9.234270998377461,False,False,False,2081.4545835684366,None,2081.4545835684366,None,2081.4545835684366,None,2081.4545835684366,None,2081.4545835684366,None,2081.4545835684366,None,2081.4545835684366,None,2081.4545835684366,None,2082.4695483585783,None,2082.4695483585783,None,2083.4525854616477,None,2083.4525854616477,None,c,,,,,,,,,,,,,,,,,,,,,,,,,,,,,,,,,,,,,,,,,,,,,,,21_22Exp,001,2021_Apr_30_1513,ComputerHuman,2020.1.3,60.016075128569845,
Computer.xlsx,c,Sychronize.jpg,Number8.jpg,8,Computer,,,,,1,1,11,1,0,4,4,5,,,,,,,,,,,,,,,,,,,,,,,,,,,,,2084.5024643530887,None,2084.5024643530887,None,2084.9525217878327,None,2084.9525217878327,None,v,5.790455086542352,2084.9525217878327,None,t,7.737714241538924,2084.9525217878327,None,5.790455086542352,7.737714241538924,7.721718342551038,False,False,True,2092.7836142412525,None,2092.7836142412525,None,2092.7836142412525,None,2092.7836142412525,None,2092.7836142412525,None,2092.7836142412525,None,2092.7836142412525,None,2092.7836142412525,None,2093.76665519362,None,2093.76665519362,None,2094.7497663956856,None,2094.7497663956856,None,c,,,,,,,,,,,,,,,,,,,,,,,,,,,,,,,,,,,,,,,,,,,,,,,21_22Exp,001,2021_Apr_30_1513,ComputerHuman,2020.1.3,60.016075128569845,
Computer.xlsx,c,Sychronize.jpg,Number6.jpg,6,Computer,,,,,1,1,11,1,0,5,5,0,,,,,,,,,,,,,,,,,,,,,,,,,,,,,2095.8166508471186,None,2095.8166508471186,None,2096.249622207375,None,2096.249622207375,None,v,4.5765094623784535,2096.249622207375,None,t,6.307482298838295,2096.249622207375,None,4.5765094623784535,6.307482298838295,5.764304219236567,False,False,False,2102.647714110022,None,2102.647714110022,None,2102.647714110022,None,2102.647714110022,None,2102.647714110022,None,2102.647714110022,None,2102.647714110022,None,2102.647714110022,None,2103.64750207782,None,2103.64750207782,None,2104.6306212992604,None,2104.6306212992604,None,c,,,,,,,,,,,,,,,,,,,,,,,,,,,,,,,,,,,,,,,,,,,,,,,21_22Exp,001,2021_Apr_30_1513,ComputerHuman,2020.1.3,60.016075128569845,
Computer.xlsx,c,Sychronize.jpg,Number6.jpg,6,Computer,,,,,1,1,11,1,0,6,6,1,,,,,,,,,,,,,,,,,,,,,,,,,,,,,2105.6806426147523,None,2105.6806426147523,None,2106.1138491030033,None,2106.1138491030033,None,v,3.5115275268144615,2106.1138491030033,None,t,6.382385160181002,2106.1138491030033,None,3.5115275268144615,6.382385160181002,5.655811902898227,False,False,False,2112.5953357406433,None,2112.5953357406433,None,2112.5953357406433,None,2112.5953357406433,None,2112.5953357406433,None,2112.5953357406433,None,2112.5953357406433,None,2112.5953357406433,None,2113.5949588301482,None,2113.5949588301482,None,2114.578066182916,None,2114.578066182916,None,c,,,,,,,,,,,,,,,,,,,,,,,,,,,,,,,,,,,,,,,,,,,,,,,21_22Exp,001,2021_Apr_30_1513,ComputerHuman,2020.1.3,60.016075128569845,
Computer.xlsx,c,Sychronize.jpg,Number7.jpg,7,Computer,,,,,1,1,11,1,0,7,7,3,,,,,,,,,,,,,,,,,,,,,,,,,,,,,2115.628377478908,None,2115.628377478908,None,2116.077930976302,None,2116.077930976302,None,v,3.4785945312360127,2116.077930976302,None,t,5.705590561006829,2116.077930976302,None,3.4785945312360127,5.705590561006829,6.565526393228748,False,False,False,2121.876227405017,None,2121.876227405017,None,2121.876227405017,None,2121.876227405017,None,2121.876227405017,None,2121.876227405017,None,2121.876227405017,None,2121.876227405017,None,2122.8759563502354,None,2122.8759563502354,None,2123.8423247069477,None,2123.8423247069477,None,c,,,,,,,,,,,,,,,,,,,,,,,,,,,,,,,,,,,,,,,,,,,,,,,21_22Exp,001,2021_Apr_30_1513,ComputerHuman,2020.1.3,60.016075128569845,
Computer.xlsx,c,Sychronize.jpg,Number10.jpg,10,Computer,,,,,1,1,11,1,0,8,8,8,,,,,,,,,,,,,,,,,,,,,,,,,,,,,2124.9092790873074,None,2124.9092790873074,None,2125.342160630593,None,2125.342160630593,None,v,5.0934548770783294,2125.342160630593,None,t,9.876143682773545,2125.342160630593,None,5.0934548770783294,9.876143682773545,10.301310455057315,False,False,False,2135.306157819323,None,2135.306157819323,None,2135.306157819323,None,2135.306157819323,None,2135.306157819323,None,2135.306157819323,None,2135.306157819323,None,2135.306157819323,None,2136.3058790659416,None,2136.3058790659416,None,2137.2890107976054,None,2137.2890107976054,None,c,,,,,,,,,,,,,,,,,,,,,,,,,,,,,,,,,,,,,,,,,,,,,,,21_22Exp,001,2021_Apr_30_1513,ComputerHuman,2020.1.3,60.016075128569845,
Computer.xlsx,c,Sychronize.jpg,Number7.jpg,7,Computer,,,,,1,1,11,1,0,9,9,2,,,,,,,,,,,,,,,,,,,,,,,,,,,,,2138.339363473555,None,2138.339363473555,None,2138.7890250720848,None,2138.7890250720848,None,v,4.537468271351827,2138.7890250720848,None,t,6.04049141430005,2138.7890250720848,None,4.537468271351827,6.04049141430005,6.600228271161889,False,False,False,2144.905010856626,None,2144.905010856626,None,2144.905010856626,None,2144.905010856626,None,2144.905010856626,None,2144.905010856626,None,2144.905010856626,None,2144.905010856626,None,2145.903364319118,None,2145.903364319118,None,2146.9032158003465,None,2146.9032158003465,None,c,,,,,,,,,,,,,,,,,,,,,,,,,,,,,,,,,,,,,,,,,,,,,,,21_22Exp,001,2021_Apr_30_1513,ComputerHuman,2020.1.3,60.016075128569845,
