Condition,CorrectTuringReply,Sychronize,NumberImage,Number,Partner,trials.thisRepN,trials.thisTrialN,trials.thisN,trials.thisIndex,Block.thisRepN,Block.thisTrialN,Block.thisN,Block.thisIndex,trials_loop.thisRepN,trials_loop.thisTrialN,trials_loop.thisN,trials_loop.thisIndex,key_resp_Istr.keys,key_resp_Istr.rt,key_resp_Istr.started,key_resp_Istr.stopped,key_respPrLeft.keys,key_respPrRight.keys,key_respPrRight.rt,RTPrLeft,RTPrRight,CompPr,SychronizedRTsPr,SychronizedRTsLeftCPr,SychronizedRTsRightCPr,CreditLeftPr.started,CreditLeftPr.stopped,CreditRightPr.started,CreditRightPr.stopped,key_respPrLeft.rt,text_StartExp.started,text_StartExp.stopped,key_startExp.keys,key_startExp.rt,key_startExp.started,key_startExp.stopped,SychroLeft.started,SychroLeft.stopped,SychroRight.started,SychroRight.stopped,NumberLeft.started,NumberLeft.stopped,NumberRight.started,NumberRight.stopped,CrossLeft.started,CrossLeft.stopped,CrossRight.started,CrossRight.stopped,key_respLeft.keys,key_respLeft.rt,key_respLeft.started,key_respLeft.stopped,key_respRight.keys,key_respRight.rt,key_respRight.started,key_respRight.stopped,RTLeft,RTRight,Comp,SychronizedRTs,SychronizedRTsLeftC,SychronizedRTsRightC,FeedbackLeftLeft.started,FeedbackLeftLeft.stopped,FeedbackLeftRight.started,FeedbackLeftRight.stopped,FeedbackRightLeft.started,FeedbackRightLeft.stopped,FeedbackRightRight.started,FeedbackRightRight.stopped,textLeftLeft.started,textLeftLeft.stopped,textLeftRight.started,textLeftRight.stopped,textRightLeft.started,textRightLeft.stopped,textRightRight.started,textRightRight.stopped,CreditLeft.started,CreditLeft.stopped,CreditRight.started,CreditRight.stopped,BlankLeft.started,BlankLeft.stopped,BlankRight.started,BlankRight.stopped,CorrectTuringReply,TuringtextLeft.started,TuringtextLeft.stopped,TuringtextRight.started,TuringtextRight.stopped,keyTuringLeft.keys,keyTuringLeft.corr,keyTuringLeft.rt,keyTuringLeft.started,keyTuringLeft.stopped,keyTuringRight.keys,keyTuringRight.corr,keyTuringRight.rt,keyTuringRight.started,keyTuringRight.stopped,RespTuringLeft,RespTuringRight,ScoreLeft.started,ScoreLeft.stopped,ScoreRight.started,ScoreRight.stopped,BlockText.started,BlockText.stopped,text_Pause.started,text_Pause.stopped,text_LongPause.started,text_LongPause.stopped,key_respPause.keys,key_respPause.started,key_respPause.stopped,key_respPause.rt,QuestImageLeft.started,QuestImageLeft.stopped,QuestImageRight.started,QuestImageRight.stopped,respQuestLeft.keys,respQuestLeft.rt,respQuestLeft.started,respQuestLeft.stopped,respQuestRight.keys,respQuestRight.rt,respQuestRight.started,respQuestRight.stopped,RespInclusionLeft,RespInclusionRight,EndText.started,EndText.stopped,participant,session,date,expName,psychopyVersion,frameRate,
,,,,,,,,,,,,,,,,,,"['v', 't']","[315.8774738273851, 316.677446239275]",21.98028540861651,None,,,,,,,,,,,,,,,,,,,,,,,,,,,,,,,,,,,,,,,,,,,,,,,,,,,,,,,,,,,,,,,,,,,,,,,,,,,,,,,,,,,,,,,,,,,,,,,,,,,,,,,,,,,,,,,,,,,,,,23_24Exp,001,2021_May_03_1549,ComputerHuman,2020.1.3,60.002367537957056,
,,,,,,,,,,,,,,,,,,,,,,v,t,9.960180413405396,7.784874337765359,9.960180413405396,10,False,False,True,400.2213349116291,None,400.2213349116291,None,7.784874337765359,401.22117996910765,None,"['space', 'space']","[3.339396301589659, 4.655414567484513]",402.20425947579315,None,,,,,,,,,,,,,,,,,,,,,,,,,,,,,,,,,,,,,,,,,,,,,,,,,,,,,,,,,,,,,,,,,,,,,,,,,,,,,,,,,,,,,,,,,,,,,,,,,,23_24Exp,001,2021_May_03_1549,ComputerHuman,2020.1.3,60.002367537957056,
Human.xlsx,h,Sychronize.jpg,Number7.jpg,7,Human,,,,,0,0,0,4,0,0,0,2,,,,,,,,,,,,,,,,,,,,,,,,,406.9557477099461,None,406.9557477099461,None,410.0029211316896,None,410.0029211316896,None,410.4363787719112,None,410.4363787719112,None,v,4.99879959644386,410.4363787719112,None,t,4.502308579420969,410.4363787719112,None,4.99879959644386,4.502308579420969,7.051038462969152,False,False,False,415.51827022553243,None,415.51827022553243,None,415.51827022553243,None,415.51827022553243,None,415.51827022553243,None,415.51827022553243,None,415.51827022553243,None,415.51827022553243,None,416.50521495468,None,416.50521495468,None,417.5012329639412,None,417.5012329639412,None,h,,,,,,,,,,,,,,,,,,,,,,,,,,,,,,,,,,,,,,,,,,,,,,,23_24Exp,001,2021_May_03_1549,ComputerHuman,2020.1.3,60.002367537957056,
Human.xlsx,h,Sychronize.jpg,Number8.jpg,8,Human,,,,,0,0,0,4,0,1,1,4,,,,,,,,,,,,,,,,,,,,,,,,,,,,,418.5520666220764,None,418.5520666220764,None,418.98461898735513,None,418.98461898735513,None,v,6.830227906656546,418.98461898735513,None,t,7.23321736703565,418.98461898735513,None,6.830227906656546,7.23321736703565,8.003647545279282,False,False,False,426.3012345679008,None,426.3012345679008,None,426.3012345679008,None,426.3012345679008,None,426.3012345679008,None,426.3012345679008,None,426.3012345679008,None,426.3012345679008,None,427.3019925993285,None,427.3019925993285,None,428.29903489735443,None,428.29903489735443,None,h,,,,,,,,,,,,,,,,,,,,,,,,,,,,,,,,,,,,,,,,,,,,,,,23_24Exp,001,2021_May_03_1549,ComputerHuman,2020.1.3,60.002367537957056,
Human.xlsx,h,Sychronize.jpg,Number9.jpg,9,Human,,,,,0,0,0,4,0,2,2,6,,,,,,,,,,,,,,,,,,,,,,,,,,,,,429.34929722498873,None,429.34929722498873,None,429.7992567250021,None,429.7992567250021,None,v,8.03122685285416,429.7992567250021,None,t,6.590266530009103,429.7992567250021,None,8.03122685285416,6.590266530009103,9.31327189834454,False,False,False,437.88089507375753,None,437.88089507375753,None,437.88089507375753,None,437.88089507375753,None,437.88089507375753,None,437.88089507375753,None,437.88089507375753,None,437.88089507375753,None,438.88235660197824,None,438.88235660197824,None,439.8968734010523,None,439.8968734010523,None,h,,,,,,,,,,,,,,,,,,,,,,,,,,,,,,,,,,,,,,,,,,,,,,,23_24Exp,001,2021_May_03_1549,ComputerHuman,2020.1.3,60.002367537957056,
Human.xlsx,h,Sychronize.jpg,Number9.jpg,9,Human,,,,,0,0,0,4,0,3,3,7,,,,,,,,,,,,,,,,,,,,,,,,,,,,,440.94690058817196,None,440.94690058817196,None,441.3966243060868,None,441.3966243060868,None,v,8.44547162033632,441.3966243060868,None,t,6.381212497413799,441.3966243060868,None,8.44547162033632,6.381212497413799,8.442218386603585,False,False,False,449.9281143687531,None,449.9281143687531,None,449.9281143687531,None,449.9281143687531,None,449.9281143687531,None,449.9281143687531,None,449.9281143687531,None,449.9281143687531,None,450.89694686241364,None,450.89694686241364,None,451.89438918802716,None,451.89438918802716,None,h,,,,,,,,,,,,,,,,,,,,,,,,,,,,,,,,,,,,,,,,,,,,,,,23_24Exp,001,2021_May_03_1549,ComputerHuman,2020.1.3,60.002367537957056,
Human.xlsx,h,Sychronize.jpg,Number8.jpg,8,Human,,,,,0,0,0,4,0,4,4,5,,,,,,,,,,,,,,,,,,,,,,,,,,,,,452.9614074426945,None,452.9614074426945,None,453.39463282952875,None,453.39463282952875,None,v,6.859138962270663,453.39463282952875,None,t,6.250286707824671,453.39463282952875,None,6.859138962270663,6.250286707824671,7.5468916601421006,False,False,False,460.32664867023686,None,460.32664867023686,None,460.32664867023686,None,460.32664867023686,None,460.32664867023686,None,460.32664867023686,None,460.32664867023686,None,460.32664867023686,None,461.3278266183552,None,461.3278266183552,None,462.32554161714415,None,462.32554161714415,None,h,,,,,,,,,,,,,,,,,,,,,,,,,,,,,,,,,,,,,,,,,,,,,,,23_24Exp,001,2021_May_03_1549,ComputerHuman,2020.1.3,60.002367537957056,
Human.xlsx,h,Sychronize.jpg,Number7.jpg,7,Human,,,,,0,0,0,4,0,5,5,3,,,,,,,,,,,,,,,,,,,,,,,,,,,,,463.3588420693004,None,463.3588420693004,None,463.8081753833858,None,463.8081753833858,None,v,5.565297686929625,463.8081753833858,None,t,5.116349002417337,463.8081753833858,None,5.565297686929625,5.116349002417337,6.602086753545969,False,False,False,469.4574987529204,None,469.4574987529204,None,469.4574987529204,None,469.4574987529204,None,469.4574987529204,None,469.4574987529204,None,469.4574987529204,None,469.4574987529204,None,470.4266292623224,None,470.4266292623224,None,471.4237989147605,None,471.4237989147605,None,h,,,,,,,,,,,,,,,,,,,,,,,,,,,,,,,,,,,,,,,,,,,,,,,23_24Exp,001,2021_May_03_1549,ComputerHuman,2020.1.3,60.002367537957056,
Human.xlsx,h,Sychronize.jpg,Number10.jpg,10,Human,,,,,0,0,0,4,0,6,6,8,,,,,,,,,,,,,,,,,,,,,,,,,,,,,472.4739852146977,None,472.4739852146977,None,472.9244092214858,None,472.9244092214858,None,v,7.900706544316563,472.9244092214858,None,t,8.268211600799987,472.9244092214858,None,7.900706544316563,8.268211600799987,10.013966260045173,False,False,False,481.2723562330675,None,481.2723562330675,None,481.2723562330675,None,481.2723562330675,None,481.2723562330675,None,481.2723562330675,None,481.2723562330675,None,481.2723562330675,None,482.27427007796814,None,482.27427007796814,None,483.25472582712155,None,483.25472582712155,None,h,,,,,,,,,,,,,,,,,,,,,,,,,,,,,,,,,,,,,,,,,,,,,,,23_24Exp,001,2021_May_03_1549,ComputerHuman,2020.1.3,60.002367537957056,
Human.xlsx,h,Sychronize.jpg,Number10.jpg,10,Human,,,,,0,0,0,4,0,7,7,9,,,,,,,,,,,,,,,,,,,,,,,,,,,,,484.30451209947114,None,484.30451209947114,None,484.7550544784963,None,484.7550544784963,None,v,8.769646022098641,484.7550544784963,None,t,6.305333326918117,484.7550544784963,None,8.769646022098641,6.305333326918117,9.30450032916496,False,False,False,493.6030565059009,None,493.6030565059009,None,493.6030565059009,None,493.6030565059009,None,493.6030565059009,None,493.6030565059009,None,493.6030565059009,None,493.6030565059009,None,494.60488309538505,None,494.60488309538505,None,495.6023440269337,None,495.6023440269337,None,h,,,,,,,,,,,,,,,,,,,,,,,,,,,,,,,,,,,,,,,,,,,,,,,23_24Exp,001,2021_May_03_1549,ComputerHuman,2020.1.3,60.002367537957056,
Human.xlsx,h,Sychronize.jpg,Number6.jpg,6,Human,,,,,0,0,0,4,0,8,8,0,,,,,,,,,,,,,,,,,,,,,,,,,,,,,496.6521392814575,None,496.6521392814575,None,497.1022056051979,None,497.1022056051979,None,v,4.518233976040392,497.1022056051979,None,t,3.189382748128992,497.1022056051979,None,4.518233976040392,3.189382748128992,6.0558075305025705,False,False,False,501.7016557677589,None,501.7016557677589,None,501.7016557677589,None,501.7016557677589,None,501.7016557677589,None,501.7016557677589,None,501.7016557677589,None,501.7016557677589,None,502.68650251741474,None,502.68650251741474,None,503.68399681132723,None,503.68399681132723,None,h,,,,,,,,,,,,,,,,,,,,,,,,,,,,,,,,,,,,,,,,,,,,,,,23_24Exp,001,2021_May_03_1549,ComputerHuman,2020.1.3,60.002367537957056,
Human.xlsx,h,Sychronize.jpg,Number6.jpg,6,Human,,,,,0,0,0,4,0,9,9,1,,,,,,,,,,,,,,,,,,,,,,,,,,,,,504.73395374500524,None,504.73395374500524,None,505.1838449163288,None,505.1838449163288,None,v,4.30436485595601,505.1838449163288,None,t,4.863264347020049,505.1838449163288,None,4.30436485595601,4.863264347020049,6.327516687124527,False,False,False,510.1175429901332,None,510.1175429901332,None,510.1175429901332,None,510.1175429901332,None,510.1175429901332,None,510.1175429901332,None,510.1175429901332,None,510.1175429901332,None,511.11800332661187,None,511.11800332661187,None,512.1156891333321,None,512.1156891333321,None,h,,,,,,,,,,,,,,,,,,,,,,,,,,,,,,,,,,,,,,,,,,,,,,,23_24Exp,001,2021_May_03_1549,ComputerHuman,2020.1.3,60.002367537957056,
Human.xlsx,h,,,,,,,,,0,0,0,4,,,,,,,,,,,,,,,,,,,,,,,,,,,,,,,,,,,,,,,,,,,,,,,,,,,,,,,,,,,,,,,,,,,,,,,,,,,,,,,h,513.1168029230557,None,513.1168029230557,None,q,0,6.899045162697803,513.1168029230557,None,l,0,42.16512157213765,513.1168029230557,None,h,c,555.3737319494367,None,555.3737319494367,None,557.3732924644355,None,None,None,None,None,None,None,None,,,,,,,,,,,,,,,,,,23_24Exp,001,2021_May_03_1549,ComputerHuman,2020.1.3,60.002367537957056,
Computer.xlsx,c,Sychronize.jpg,Number6.jpg,6,Computer,,,,,0,1,1,1,0,0,0,0,,,,,,,,,,,,,,,,,,,,,,,,,562.3754196359969,None,562.3754196359969,None,565.4388507948415,None,565.4388507948415,None,565.8888491106836,None,565.8888491106836,None,v,3.5054741545927754,565.8888491106836,None,t,3.1483390193707237,565.8888491106836,None,3.5054741545927754,3.1483390193707237,6.339187717389951,False,False,False,569.487523598259,None,569.487523598259,None,569.487523598259,None,569.487523598259,None,569.487523598259,None,569.487523598259,None,569.487523598259,None,569.487523598259,None,570.4872660023057,None,570.4872660023057,None,571.4704616356858,None,571.4704616356858,None,c,,,,,,,,,,,,,,,,,,,,,,,,,,,,,,,,,,,,,,,,,,,,,,,23_24Exp,001,2021_May_03_1549,ComputerHuman,2020.1.3,60.002367537957056,
Computer.xlsx,c,Sychronize.jpg,Number8.jpg,8,Computer,,,,,0,1,1,1,0,1,1,5,,,,,,,,,,,,,,,,,,,,,,,,,,,,,572.5538364313816,None,572.5538364313816,None,572.9707245247064,None,572.9707245247064,None,v,5.3952869243585155,572.9707245247064,None,t,5.390278399312592,572.9707245247064,None,5.3952869243585155,5.390278399312592,8.09328158847022,False,False,False,578.4362498135388,None,578.4362498135388,None,578.4362498135388,None,578.4362498135388,None,578.4362498135388,None,578.4362498135388,None,578.4362498135388,None,578.4362498135388,None,579.4688477312784,None,579.4688477312784,None,580.4519512973629,None,580.4519512973629,None,c,,,,,,,,,,,,,,,,,,,,,,,,,,,,,,,,,,,,,,,,,,,,,,,23_24Exp,001,2021_May_03_1549,ComputerHuman,2020.1.3,60.002367537957056,
Computer.xlsx,c,Sychronize.jpg,Number8.jpg,8,Computer,,,,,0,1,1,1,0,2,2,4,,,,,,,,,,,,,,,,,,,,,,,,,,,,,581.4857008582785,None,581.4857008582785,None,581.9522299051896,None,581.9522299051896,None,v,5.869540000352572,581.9522299051896,None,t,6.889212247196156,581.9522299051896,None,5.869540000352572,6.889212247196156,8.222267517465458,False,False,False,588.9019464052853,None,588.9019464052853,None,588.9019464052853,None,588.9019464052853,None,588.9019464052853,None,588.9019464052853,None,588.9019464052853,None,588.9019464052853,None,589.9167772596984,None,589.9167772596984,None,590.916595691443,None,590.916595691443,None,c,,,,,,,,,,,,,,,,,,,,,,,,,,,,,,,,,,,,,,,,,,,,,,,23_24Exp,001,2021_May_03_1549,ComputerHuman,2020.1.3,60.002367537957056,
Computer.xlsx,c,Sychronize.jpg,Number9.jpg,9,Computer,,,,,0,1,1,1,0,3,3,6,,,,,,,,,,,,,,,,,,,,,,,,,,,,,591.9669670883477,None,591.9669670883477,None,592.4167703626708,None,592.4167703626708,None,v,7.432608824667113,592.4167703626708,None,t,8.212200360248971,592.4167703626708,None,7.432608824667113,8.212200360248971,9.158505452239254,False,False,False,600.6985671826606,None,600.6985671826606,None,600.6985671826606,None,600.6985671826606,None,600.6985671826606,None,600.6985671826606,None,600.6985671826606,None,600.6985671826606,None,601.6976782681077,None,601.6976782681077,None,602.6808806381187,None,602.6808806381187,None,c,,,,,,,,,,,,,,,,,,,,,,,,,,,,,,,,,,,,,,,,,,,,,,,23_24Exp,001,2021_May_03_1549,ComputerHuman,2020.1.3,60.002367537957056,
Computer.xlsx,c,Sychronize.jpg,Number10.jpg,10,Computer,,,,,0,1,1,1,0,4,4,8,,,,,,,,,,,,,,,,,,,,,,,,,,,,,603.7312677538303,None,603.7312677538303,None,604.1806924936282,None,604.1806924936282,None,v,8.176309833717823,604.1806924936282,None,t,7.947223304895488,604.1806924936282,None,8.176309833717823,7.947223304895488,9.955611996404444,False,False,False,612.4296443860603,None,612.4296443860603,None,612.4296443860603,None,612.4296443860603,None,612.4296443860603,None,612.4296443860603,None,612.4296443860603,None,612.4296443860603,None,613.4453096203906,None,613.4453096203906,None,614.4285087824819,None,614.4285087824819,None,c,,,,,,,,,,,,,,,,,,,,,,,,,,,,,,,,,,,,,,,,,,,,,,,23_24Exp,001,2021_May_03_1549,ComputerHuman,2020.1.3,60.002367537957056,
Computer.xlsx,c,Sychronize.jpg,Number7.jpg,7,Computer,,,,,0,1,1,1,0,5,5,3,,,,,,,,,,,,,,,,,,,,,,,,,,,,,615.4786479259992,None,615.4786479259992,None,615.9120683543524,None,615.9120683543524,None,v,6.348638318279882,615.9120683543524,None,t,6.932167254517481,615.9120683543524,None,6.348638318279882,6.932167254517481,7.036714204542678,False,False,True,622.9268077830548,None,622.9268077830548,None,622.9268077830548,None,622.9268077830548,None,622.9268077830548,None,622.9268077830548,None,622.9268077830548,None,622.9268077830548,None,623.9265816247143,None,623.9265816247143,None,624.9097965056126,None,624.9097965056126,None,c,,,,,,,,,,,,,,,,,,,,,,,,,,,,,,,,,,,,,,,,,,,,,,,23_24Exp,001,2021_May_03_1549,ComputerHuman,2020.1.3,60.002367537957056,
Computer.xlsx,c,Sychronize.jpg,Number6.jpg,6,Computer,,,,,0,1,1,1,0,6,6,1,,,,,,,,,,,,,,,,,,,,,,,,,,,,,625.9598243343162,None,625.9598243343162,None,626.4100696599762,None,626.4100696599762,None,v,4.72633653964931,626.4100696599762,None,t,5.633259390783678,626.4100696599762,None,4.72633653964931,5.633259390783678,5.664813767480149,False,False,True,632.1267474741635,None,632.1267474741635,None,632.1267474741635,None,632.1267474741635,None,632.1267474741635,None,632.1267474741635,None,632.1267474741635,None,632.1267474741635,None,633.1415141701827,None,633.1415141701827,None,634.1078926052633,None,634.1078926052633,None,c,,,,,,,,,,,,,,,,,,,,,,,,,,,,,,,,,,,,,,,,,,,,,,,23_24Exp,001,2021_May_03_1549,ComputerHuman,2020.1.3,60.002367537957056,
Computer.xlsx,c,Sychronize.jpg,Number7.jpg,7,Computer,,,,,0,1,1,1,0,7,7,2,,,,,,,,,,,,,,,,,,,,,,,,,,,,,635.1418766651104,None,635.1418766651104,None,635.607928373568,None,635.607928373568,None,v,6.312134116707057,635.607928373568,None,t,5.567306165461559,635.607928373568,None,6.312134116707057,5.567306165461559,7.093815639800209,False,False,False,642.0063770235956,None,642.0063770235956,None,642.0063770235956,None,642.0063770235956,None,642.0063770235956,None,642.0063770235956,None,642.0063770235956,None,642.0063770235956,None,643.0060180573801,None,643.0060180573801,None,643.9892858689527,None,643.9892858689527,None,c,,,,,,,,,,,,,,,,,,,,,,,,,,,,,,,,,,,,,,,,,,,,,,,23_24Exp,001,2021_May_03_1549,ComputerHuman,2020.1.3,60.002367537957056,
Computer.xlsx,c,Sychronize.jpg,Number10.jpg,10,Computer,,,,,0,1,1,1,0,8,8,9,,,,,,,,,,,,,,,,,,,,,,,,,,,,,645.0395728975691,None,645.0395728975691,None,645.4895025639298,None,645.4895025639298,None,v,7.994211629671554,645.4895025639298,None,t,8.913297949979096,645.4895025639298,None,7.994211629671554,8.913297949979096,9.544576908212358,False,False,False,654.4872201290545,None,654.4872201290545,None,654.4872201290545,None,654.4872201290545,None,654.4872201290545,None,654.4872201290545,None,654.4872201290545,None,654.4872201290545,None,655.4701533546013,None,655.4701533546013,None,656.45343014835,None,656.45343014835,None,c,,,,,,,,,,,,,,,,,,,,,,,,,,,,,,,,,,,,,,,,,,,,,,,23_24Exp,001,2021_May_03_1549,ComputerHuman,2020.1.3,60.002367537957056,
Computer.xlsx,c,Sychronize.jpg,Number9.jpg,9,Computer,,,,,0,1,1,1,0,9,9,7,,,,,,,,,,,,,,,,,,,,,,,,,,,,,657.5199601576369,None,657.5199601576369,None,657.9702058040884,None,657.9702058040884,None,v,7.717092918998787,657.9702058040884,None,t,7.852205043812319,657.9702058040884,None,7.717092918998787,7.852205043812319,8.707371248682923,False,False,False,665.9182493740545,None,665.9182493740545,None,665.9182493740545,None,665.9182493740545,None,665.9182493740545,None,665.9182493740545,None,665.9182493740545,None,665.9182493740545,None,666.9179157504041,None,666.9179157504041,None,667.8845293259992,None,667.8845293259992,None,c,,,,,,,,,,,,,,,,,,,,,,,,,,,,,,,,,,,,,,,,,,,,,,,23_24Exp,001,2021_May_03_1549,ComputerHuman,2020.1.3,60.002367537957056,
Computer.xlsx,c,,,,,,,,,0,1,1,1,,,,,,,,,,,,,,,,,,,,,,,,,,,,,,,,,,,,,,,,,,,,,,,,,,,,,,,,,,,,,,,,,,,,,,,,,,,,,,,c,668.8846842685216,None,668.8846842685216,None,a,0,3.4904736012267676,668.8846842685216,None,o,0,4.2333113590839275,668.8846842685216,None,c,h,673.2173179545662,None,673.2173179545662,None,675.2163828459697,None,None,None,None,None,None,None,None,,,,,,,,,,,,,,,,,,23_24Exp,001,2021_May_03_1549,ComputerHuman,2020.1.3,60.002367537957056,
Human.xlsx,h,Sychronize.jpg,Number8.jpg,8,Human,,,,,0,2,2,0,0,0,0,4,,,,,,,,,,,,,,,,,,,,,,,,,680.2183910037093,None,680.2183910037093,None,683.2821634852116,None,683.2821634852116,None,683.7153292047406,None,683.7153292047406,None,v,5.919213995512109,683.7153292047406,None,t,7.126266927791221,683.7153292047406,None,5.919213995512109,7.126266927791221,7.66029187621118,False,False,False,690.914671260407,None,690.914671260407,None,690.914671260407,None,690.914671260407,None,690.914671260407,None,690.914671260407,None,690.914671260407,None,690.914671260407,None,691.9324883672807,None,691.9324883672807,None,692.9294693940392,None,692.9294693940392,None,h,,,,,,,,,,,,,,,,,,,,,,,,,,,,,,,,,,,,,,,,,,,,,,,23_24Exp,001,2021_May_03_1549,ComputerHuman,2020.1.3,60.002367537957056,
Human.xlsx,h,Sychronize.jpg,Number10.jpg,10,Human,,,,,0,2,2,0,0,1,1,9,,,,,,,,,,,,,,,,,,,,,,,,,,,,,693.9789647080706,None,693.9789647080706,None,694.4295683583623,None,694.4295683583623,None,v,8.096612276387532,694.4295683583623,None,t,6.792275970917217,694.4295683583623,None,8.096612276387532,6.792275970917217,10.716967280047946,False,False,False,702.594714631482,None,702.594714631482,None,702.594714631482,None,702.594714631482,None,702.594714631482,None,702.594714631482,None,702.594714631482,None,702.594714631482,None,703.580022679992,None,703.580022679992,None,704.5771987482694,None,704.5771987482694,None,h,,,,,,,,,,,,,,,,,,,,,,,,,,,,,,,,,,,,,,,,,,,,,,,23_24Exp,001,2021_May_03_1549,ComputerHuman,2020.1.3,60.002367537957056,
Human.xlsx,h,Sychronize.jpg,Number10.jpg,10,Human,,,,,0,2,2,0,0,2,2,8,,,,,,,,,,,,,,,,,,,,,,,,,,,,,705.6275630877508,None,705.6275630877508,None,706.0774362947241,None,706.0774362947241,None,v,7.356412711702433,706.0774362947241,None,t,9.523150754582275,706.0774362947241,None,7.356412711702433,9.523150754582275,9.262989814529192,False,False,False,715.6767305523872,None,715.6767305523872,None,715.6767305523872,None,715.6767305523872,None,715.6767305523872,None,715.6767305523872,None,715.6767305523872,None,715.6767305523872,None,716.6770702710846,None,716.6770702710846,None,717.657916103275,None,717.657916103275,None,h,,,,,,,,,,,,,,,,,,,,,,,,,,,,,,,,,,,,,,,,,,,,,,,23_24Exp,001,2021_May_03_1549,ComputerHuman,2020.1.3,60.002367537957056,
Human.xlsx,h,Sychronize.jpg,Number9.jpg,9,Human,,,,,0,2,2,0,0,3,3,6,,,,,,,,,,,,,,,,,,,,,,,,,,,,,718.7254928567645,None,718.7254928567645,None,719.1580128220548,None,719.1580128220548,None,v,7.411406079328117,719.1580128220548,None,t,7.558138893299656,719.1580128220548,None,7.411406079328117,7.558138893299656,9.07591117846687,True,False,False,726.8059458791859,None,726.8059458791859,None,726.8059458791859,None,726.8059458791859,None,726.8059458791859,None,726.8059458791859,None,726.8059458791859,None,726.8059458791859,None,727.7916074404484,None,727.7916074404484,None,728.7889070136353,None,728.7889070136353,None,h,,,,,,,,,,,,,,,,,,,,,,,,,,,,,,,,,,,,,,,,,,,,,,,23_24Exp,001,2021_May_03_1549,ComputerHuman,2020.1.3,60.002367537957056,
Human.xlsx,h,Sychronize.jpg,Number8.jpg,8,Human,,,,,0,2,2,0,0,4,4,5,,,,,,,,,,,,,,,,,,,,,,,,,,,,,729.8389114245247,None,729.8389114245247,None,730.2889527264906,None,730.2889527264906,None,v,6.756401483983609,730.2889527264906,None,t,6.907228565883088,730.2889527264906,None,6.756401483983609,6.907228565883088,7.444029082272648,True,False,False,737.2545070469969,None,737.2545070469969,None,737.2545070469969,None,737.2545070469969,None,737.2545070469969,None,737.2545070469969,None,737.2545070469969,None,737.2545070469969,None,738.2563804721094,None,738.2563804721094,None,739.2535712968174,None,739.2535712968174,None,h,,,,,,,,,,,,,,,,,,,,,,,,,,,,,,,,,,,,,,,,,,,,,,,23_24Exp,001,2021_May_03_1549,ComputerHuman,2020.1.3,60.002367537957056,
Human.xlsx,h,Sychronize.jpg,Number6.jpg,6,Human,,,,,0,2,2,0,0,5,5,1,,,,,,,,,,,,,,,,,,,,,,,,,,,,,740.3206915633309,None,740.3206915633309,None,740.7706093603883,None,740.7706093603883,None,v,4.0022532428056365,740.7706093603883,None,t,5.285280620796584,740.7706093603883,None,4.0022532428056365,5.285280620796584,5.734258152405541,False,False,False,746.1523033665508,None,746.1523033665508,None,746.1523033665508,None,746.1523033665508,None,746.1523033665508,None,746.1523033665508,None,746.1523033665508,None,746.1523033665508,None,747.1379822505796,None,747.1379822505796,None,748.1352407623936,None,748.1352407623936,None,h,,,,,,,,,,,,,,,,,,,,,,,,,,,,,,,,,,,,,,,,,,,,,,,23_24Exp,001,2021_May_03_1549,ComputerHuman,2020.1.3,60.002367537957056,
Human.xlsx,h,Sychronize.jpg,Number7.jpg,7,Human,,,,,0,2,2,0,0,6,6,3,,,,,,,,,,,,,,,,,,,,,,,,,,,,,749.1851367455974,None,749.1851367455974,None,749.6184359145855,None,749.6184359145855,None,v,5.166108007449111,749.6184359145855,None,t,5.105475437761015,749.6184359145855,None,5.166108007449111,5.105475437761015,6.867862578451535,True,False,False,754.8348117031319,None,754.8348117031319,None,754.8348117031319,None,754.8348117031319,None,754.8348117031319,None,754.8348117031319,None,754.8348117031319,None,754.8348117031319,None,755.836658823303,None,755.836658823303,None,756.850047717805,None,756.850047717805,None,h,,,,,,,,,,,,,,,,,,,,,,,,,,,,,,,,,,,,,,,,,,,,,,,23_24Exp,001,2021_May_03_1549,ComputerHuman,2020.1.3,60.002367537957056,
Human.xlsx,h,Sychronize.jpg,Number6.jpg,6,Human,,,,,0,2,2,0,0,7,7,0,,,,,,,,,,,,,,,,,,,,,,,,,,,,,757.8999648732788,None,757.8999648732788,None,758.3501078663003,None,758.3501078663003,None,v,4.6221494024448475,758.3501078663003,None,t,4.693276681471616,758.3501078663003,None,4.6221494024448475,4.693276681471616,5.62993581437034,True,False,False,763.1154620126163,None,763.1154620126163,None,763.1154620126163,None,763.1154620126163,None,763.1154620126163,None,763.1154620126163,None,763.1154620126163,None,763.1154620126163,None,764.1176424356445,None,764.1176424356445,None,765.1150526820611,None,765.1150526820611,None,h,,,,,,,,,,,,,,,,,,,,,,,,,,,,,,,,,,,,,,,,,,,,,,,23_24Exp,001,2021_May_03_1549,ComputerHuman,2020.1.3,60.002367537957056,
Human.xlsx,h,Sychronize.jpg,Number9.jpg,9,Human,,,,,0,2,2,0,0,8,8,7,,,,,,,,,,,,,,,,,,,,,,,,,,,,,766.1487008727145,None,766.1487008727145,None,766.598679620246,None,766.598679620246,None,v,6.293282134934998,766.598679620246,None,t,6.7045351964934525,766.598679620246,None,6.293282134934998,6.7045351964934525,8.9674576073257,False,False,False,773.3800772146269,None,773.3800772146269,None,773.3800772146269,None,773.3800772146269,None,773.3800772146269,None,773.3800772146269,None,773.3800772146269,None,773.3800772146269,None,774.3821126396842,None,774.3821126396842,None,775.3796178405246,None,775.3796178405246,None,h,,,,,,,,,,,,,,,,,,,,,,,,,,,,,,,,,,,,,,,,,,,,,,,23_24Exp,001,2021_May_03_1549,ComputerHuman,2020.1.3,60.002367537957056,
Human.xlsx,h,Sychronize.jpg,Number7.jpg,7,Human,,,,,0,2,2,0,0,9,9,2,,,,,,,,,,,,,,,,,,,,,,,,,,,,,776.4294547980053,None,776.4294547980053,None,776.8796603454603,None,776.8796603454603,None,v,4.600065120769614,776.8796603454603,None,t,5.087280437945083,776.8796603454603,None,4.600065120769614,5.087280437945083,6.677007645835564,False,False,False,782.0460942775517,None,782.0460942775517,None,782.0460942775517,None,782.0460942775517,None,782.0460942775517,None,782.0460942775517,None,782.0460942775517,None,782.0460942775517,None,783.0464032002201,None,783.0464032002201,None,784.0280019311676,None,784.0280019311676,None,h,,,,,,,,,,,,,,,,,,,,,,,,,,,,,,,,,,,,,,,,,,,,,,,23_24Exp,001,2021_May_03_1549,ComputerHuman,2020.1.3,60.002367537957056,
Human.xlsx,h,,,,,,,,,0,2,2,0,,,,,,,,,,,,,,,,,,,,,,,,,,,,,,,,,,,,,,,,,,,,,,,,,,,,,,,,,,,,,,,,,,,,,,,,,,,,,,,h,785.0292389050082,None,785.0292389050082,None,a,0,2.3224138954246882,785.0292389050082,None,l,0,5.973249799103542,785.0292389050082,None,c,c,791.1106706637338,None,791.1106706637338,None,793.0928541984449,None,None,None,None,None,None,None,None,,,,,,,,,,,,,,,,,,23_24Exp,001,2021_May_03_1549,ComputerHuman,2020.1.3,60.002367537957056,
Human.xlsx,h,Sychronize.jpg,Number7.jpg,7,Human,,,,,0,3,3,2,0,0,0,2,,,,,,,,,,,,,,,,,,,,,,,,,798.0948540155932,None,798.0948540155932,None,801.1584369090406,None,801.1584369090406,None,801.5916141770804,None,801.5916141770804,None,v,4.411326202127384,801.5916141770804,None,t,3.5983591490667095,801.5916141770804,None,4.411326202127384,3.5983591490667095,7.352847521625801,False,False,False,806.0901649993502,None,806.0901649993502,None,806.0901649993502,None,806.0901649993502,None,806.0901649993502,None,806.0901649993502,None,806.0901649993502,None,806.0901649993502,None,807.0919117116337,None,807.0919117116337,None,808.0897806905687,None,808.0897806905687,None,h,,,,,,,,,,,,,,,,,,,,,,,,,,,,,,,,,,,,,,,,,,,,,,,23_24Exp,001,2021_May_03_1549,ComputerHuman,2020.1.3,60.002367537957056,
Human.xlsx,h,Sychronize.jpg,Number7.jpg,7,Human,,,,,0,3,3,2,0,1,1,3,,,,,,,,,,,,,,,,,,,,,,,,,,,,,809.140329806225,None,809.140329806225,None,809.5901763874654,None,809.5901763874654,None,v,4.536545423340613,809.5901763874654,None,t,4.123342588181913,809.5901763874654,None,4.536545423340613,4.123342588181913,7.029768447863969,False,False,False,814.2066606036979,None,814.2066606036979,None,814.2066606036979,None,814.2066606036979,None,814.2066606036979,None,814.2066606036979,None,814.2066606036979,None,814.2066606036979,None,815.2075870509107,None,815.2075870509107,None,816.1881922891225,None,816.1881922891225,None,h,,,,,,,,,,,,,,,,,,,,,,,,,,,,,,,,,,,,,,,,,,,,,,,23_24Exp,001,2021_May_03_1549,ComputerHuman,2020.1.3,60.002367537957056,
Human.xlsx,h,Sychronize.jpg,Number9.jpg,9,Human,,,,,0,3,3,2,0,2,2,6,,,,,,,,,,,,,,,,,,,,,,,,,,,,,817.2551245715422,None,817.2551245715422,None,817.6883990395481,None,817.6883990395481,None,v,6.117954245441069,817.6883990395481,None,t,6.585248701995624,817.6883990395481,None,6.117954245441069,6.585248701995624,8.699090799871355,False,False,False,824.3545607796523,None,824.3545607796523,None,824.3545607796523,None,824.3545607796523,None,824.3545607796523,None,824.3545607796523,None,824.3545607796523,None,824.3545607796523,None,825.355252407142,None,825.355252407142,None,826.3528397307264,None,826.3528397307264,None,h,,,,,,,,,,,,,,,,,,,,,,,,,,,,,,,,,,,,,,,,,,,,,,,23_24Exp,001,2021_May_03_1549,ComputerHuman,2020.1.3,60.002367537957056,
Human.xlsx,h,Sychronize.jpg,Number6.jpg,6,Human,,,,,0,3,3,2,0,3,3,1,,,,,,,,,,,,,,,,,,,,,,,,,,,,,827.4033586919386,None,827.4033586919386,None,827.8529018039735,None,827.8529018039735,None,v,4.253212009809431,827.8529018039735,None,t,3.520307575341576,827.8529018039735,None,4.253212009809431,3.520307575341576,5.859188821445929,False,False,False,832.2016973103191,None,832.2016973103191,None,832.2016973103191,None,832.2016973103191,None,832.2016973103191,None,832.2016973103191,None,832.2016973103191,None,832.2016973103191,None,833.1872712953736,None,833.1872712953736,None,834.167948070195,None,834.167948070195,None,h,,,,,,,,,,,,,,,,,,,,,,,,,,,,,,,,,,,,,,,,,,,,,,,23_24Exp,001,2021_May_03_1549,ComputerHuman,2020.1.3,60.002367537957056,
Human.xlsx,h,Sychronize.jpg,Number10.jpg,10,Human,,,,,0,3,3,2,0,4,4,8,,,,,,,,,,,,,,,,,,,,,,,,,,,,,835.2185260571296,None,835.2185260571296,None,835.667822480139,None,835.667822480139,None,v,6.46999809128738,835.667822480139,None,t,6.949235312138626,835.667822480139,None,6.46999809128738,6.949235312138626,10.254035741299283,False,False,False,842.684147262762,None,842.684147262762,None,842.684147262762,None,842.684147262762,None,842.684147262762,None,842.684147262762,None,842.684147262762,None,842.684147262762,None,843.6849226169561,None,843.6849226169561,None,844.6824598969934,None,844.6824598969934,None,h,,,,,,,,,,,,,,,,,,,,,,,,,,,,,,,,,,,,,,,,,,,,,,,23_24Exp,001,2021_May_03_1549,ComputerHuman,2020.1.3,60.002367537957056,
Human.xlsx,h,Sychronize.jpg,Number6.jpg,6,Human,,,,,0,3,3,2,0,5,5,0,,,,,,,,,,,,,,,,,,,,,,,,,,,,,845.7330869650987,None,845.7330869650987,None,846.1824340732392,None,846.1824340732392,None,v,3.9350726674019825,846.1824340732392,None,t,3.458382855594209,846.1824340732392,None,3.9350726674019825,3.458382855594209,6.080722000362889,False,False,False,850.2146977257453,None,850.2146977257453,None,850.2146977257453,None,850.2146977257453,None,850.2146977257453,None,850.2146977257453,None,850.2146977257453,None,850.2146977257453,None,851.183780757935,None,851.183780757935,None,852.1810411945007,None,852.1810411945007,None,h,,,,,,,,,,,,,,,,,,,,,,,,,,,,,,,,,,,,,,,,,,,,,,,23_24Exp,001,2021_May_03_1549,ComputerHuman,2020.1.3,60.002367537957056,
Human.xlsx,h,Sychronize.jpg,Number9.jpg,9,Human,,,,,0,3,3,2,0,6,6,7,,,,,,,,,,,,,,,,,,,,,,,,,,,,,853.2310863459707,None,853.2310863459707,None,853.6808841668308,None,853.6808841668308,None,v,5.312439510663353,853.6808841668308,None,t,5.5432852626563545,853.6808841668308,None,5.312439510663353,5.5432852626563545,8.469105832467577,True,False,False,859.3128283105325,None,859.3128283105325,None,859.3128283105325,None,859.3128283105325,None,859.3128283105325,None,859.3128283105325,None,859.3128283105325,None,859.3128283105325,None,860.2984584341821,None,860.2984584341821,None,861.2958102964594,None,861.2958102964594,None,h,,,,,,,,,,,,,,,,,,,,,,,,,,,,,,,,,,,,,,,,,,,,,,,23_24Exp,001,2021_May_03_1549,ComputerHuman,2020.1.3,60.002367537957056,
Human.xlsx,h,Sychronize.jpg,Number8.jpg,8,Human,,,,,0,3,3,2,0,7,7,5,,,,,,,,,,,,,,,,,,,,,,,,,,,,,862.3459933884769,None,862.3459933884769,None,862.7956834232345,None,862.7956834232345,None,v,4.933316331358583,862.7956834232345,None,t,6.088598572155206,862.7956834232345,None,4.933316331358583,6.088598572155206,8.060436481160707,False,False,False,868.9775185778644,None,868.9775185778644,None,868.9775185778644,None,868.9775185778644,None,868.9775185778644,None,868.9775185778644,None,868.9775185778644,None,868.9775185778644,None,869.9461582755503,None,869.9461582755503,None,870.9439371119415,None,870.9439371119415,None,h,,,,,,,,,,,,,,,,,,,,,,,,,,,,,,,,,,,,,,,,,,,,,,,23_24Exp,001,2021_May_03_1549,ComputerHuman,2020.1.3,60.002367537957056,
Human.xlsx,h,Sychronize.jpg,Number10.jpg,10,Human,,,,,0,3,3,2,0,8,8,9,,,,,,,,,,,,,,,,,,,,,,,,,,,,,872.0104594222212,None,872.0104594222212,None,872.4441483534547,None,872.4441483534547,None,v,7.2204889832019035,872.4441483534547,None,t,4.564290720932149,872.4441483534547,None,7.2204889832019035,4.564290720932149,10.135780756562907,False,False,False,879.7588491267234,None,879.7588491267234,None,879.7588491267234,None,879.7588491267234,None,879.7588491267234,None,879.7588491267234,None,879.7588491267234,None,879.7588491267234,None,880.7446030760739,None,880.7446030760739,None,881.7417836354389,None,881.7417836354389,None,h,,,,,,,,,,,,,,,,,,,,,,,,,,,,,,,,,,,,,,,,,,,,,,,23_24Exp,001,2021_May_03_1549,ComputerHuman,2020.1.3,60.002367537957056,
Human.xlsx,h,Sychronize.jpg,Number8.jpg,8,Human,,,,,0,3,3,2,0,9,9,4,,,,,,,,,,,,,,,,,,,,,,,,,,,,,882.7919619155764,None,882.7919619155764,None,883.2251045380835,None,883.2251045380835,None,v,5.411291877387157,883.2251045380835,None,t,6.306181180098065,883.2251045380835,None,5.411291877387157,6.306181180098065,8.09107910825175,False,False,False,889.5917559671316,None,889.5917559671316,None,889.5917559671316,None,889.5917559671316,None,889.5917559671316,None,889.5917559671316,None,889.5917559671316,None,889.5917559671316,None,890.609284040439,None,890.609284040439,None,891.6064607502994,None,891.6064607502994,None,h,,,,,,,,,,,,,,,,,,,,,,,,,,,,,,,,,,,,,,,,,,,,,,,23_24Exp,001,2021_May_03_1549,ComputerHuman,2020.1.3,60.002367537957056,
Human.xlsx,h,,,,,,,,,0,3,3,2,,,,,,,,,,,,,,,,,,,,,,,,,,,,,,,,,,,,,,,,,,,,,,,,,,,,,,,,,,,,,,,,,,,,,,,,,,,,,,,h,892.6069817164607,None,892.6069817164607,None,q,1,3.5331315551838998,892.6069817164607,None,o,0,2.3803883828395556,892.6069817164607,None,h,h,896.2393444936852,None,896.2393444936852,None,898.2384822048671,None,None,None,None,None,None,None,None,,,,,,,,,,,,,,,,,,23_24Exp,001,2021_May_03_1549,ComputerHuman,2020.1.3,60.002367537957056,
Computer.xlsx,c,Sychronize.jpg,Number8.jpg,8,Computer,,,,,0,4,4,3,0,0,0,4,,,,,,,,,,,,,,,,,,,,,,,,,903.2235496593985,None,903.2235496593985,None,906.3033822701482,None,906.3033822701482,None,906.737140492447,None,906.737140492447,None,v,5.094476764235878,906.737140492447,None,t,6.053186346452094,906.737140492447,None,5.094476764235878,6.053186346452094,8.369536211463519,False,False,False,912.8700324160282,None,912.8700324160282,None,912.8700324160282,None,912.8700324160282,None,912.8700324160282,None,912.8700324160282,None,912.8700324160282,None,912.8700324160282,None,913.901980409234,None,913.901980409234,None,914.8851798921169,None,914.8851798921169,None,c,,,,,,,,,,,,,,,,,,,,,,,,,,,,,,,,,,,,,,,,,,,,,,,23_24Exp,001,2021_May_03_1549,ComputerHuman,2020.1.3,60.002367537957056,
Computer.xlsx,c,Sychronize.jpg,Number9.jpg,9,Computer,,,,,0,4,4,3,0,1,1,6,,,,,,,,,,,,,,,,,,,,,,,,,,,,,915.9351361842109,None,915.9351361842109,None,916.3685947868089,None,916.3685947868089,None,v,5.890681795216551,916.3685947868089,None,t,5.97025520605257,916.3685947868089,None,5.890681795216551,5.97025520605257,8.970577145997451,False,False,False,922.4017935479105,None,922.4017935479105,None,922.4017935479105,None,922.4017935479105,None,922.4017935479105,None,922.4017935479105,None,922.4017935479105,None,922.4017935479105,None,923.4333803293566,None,923.4333803293566,None,924.4165756419443,None,924.4165756419443,None,c,,,,,,,,,,,,,,,,,,,,,,,,,,,,,,,,,,,,,,,,,,,,,,,23_24Exp,001,2021_May_03_1549,ComputerHuman,2020.1.3,60.002367537957056,
Computer.xlsx,c,Sychronize.jpg,Number10.jpg,10,Computer,,,,,0,4,4,3,0,2,2,9,,,,,,,,,,,,,,,,,,,,,,,,,,,,,925.4667555260421,None,925.4667555260421,None,925.9163733826063,None,925.9163733826063,None,v,7.362592127444259,925.9163733826063,None,t,5.046306000253935,925.9163733826063,None,7.362592127444259,5.046306000253935,10.357275081408238,False,False,False,933.3647815326476,None,933.3647815326476,None,933.3647815326476,None,933.3647815326476,None,933.3647815326476,None,933.3647815326476,None,933.3647815326476,None,933.3647815326476,None,934.34790274229,None,934.34790274229,None,935.3310191400524,None,935.3310191400524,None,c,,,,,,,,,,,,,,,,,,,,,,,,,,,,,,,,,,,,,,,,,,,,,,,23_24Exp,001,2021_May_03_1549,ComputerHuman,2020.1.3,60.002367537957056,
Computer.xlsx,c,Sychronize.jpg,Number8.jpg,8,Computer,,,,,0,4,4,3,0,3,3,5,,,,,,,,,,,,,,,,,,,,,,,,,,,,,936.3976970344384,None,936.3976970344384,None,936.8311851498975,None,936.8311851498975,None,v,5.951485667816087,936.8311851498975,None,t,5.790297646831277,936.8311851498975,None,5.951485667816087,5.790297646831277,7.678490504769186,False,False,False,942.8795413316393,None,942.8795413316393,None,942.8795413316393,None,942.8795413316393,None,942.8795413316393,None,942.8795413316393,None,942.8795413316393,None,942.8795413316393,None,943.8791611931529,None,943.8791611931529,None,944.8624354205658,None,944.8624354205658,None,c,,,,,,,,,,,,,,,,,,,,,,,,,,,,,,,,,,,,,,,,,,,,,,,23_24Exp,001,2021_May_03_1549,ComputerHuman,2020.1.3,60.002367537957056,
Computer.xlsx,c,Sychronize.jpg,Number6.jpg,6,Computer,,,,,0,4,4,3,0,4,4,1,,,,,,,,,,,,,,,,,,,,,,,,,,,,,945.9120988295899,None,945.9120988295899,None,946.3623457592103,None,946.3623457592103,None,v,4.240316814150901,946.3623457592103,None,t,3.9513567094445534,946.3623457592103,None,4.240316814150901,3.9513567094445534,5.964374138096414,False,False,False,950.694613421615,None,950.694613421615,None,950.694613421615,None,950.694613421615,None,950.694613421615,None,950.694613421615,None,950.694613421615,None,950.694613421615,None,951.6777805045094,None,951.6777805045094,None,952.6608879200967,None,952.6608879200967,None,c,,,,,,,,,,,,,,,,,,,,,,,,,,,,,,,,,,,,,,,,,,,,,,,23_24Exp,001,2021_May_03_1549,ComputerHuman,2020.1.3,60.002367537957056,
Computer.xlsx,c,Sychronize.jpg,Number7.jpg,7,Computer,,,,,0,4,4,3,0,5,5,2,,,,,,,,,,,,,,,,,,,,,,,,,,,,,953.7109221646397,None,953.7109221646397,None,954.1609625042302,None,954.1609625042302,None,v,5.065231443387347,954.1609625042302,None,t,6.184267720147545,954.1609625042302,None,5.065231443387347,6.184267720147545,6.992066689303325,False,False,False,960.4274376580897,None,960.4274376580897,None,960.4274376580897,None,960.4274376580897,None,960.4274376580897,None,960.4274376580897,None,960.4274376580897,None,960.4274376580897,None,961.4424844055002,None,961.4424844055002,None,962.4256360903792,None,962.4256360903792,None,c,,,,,,,,,,,,,,,,,,,,,,,,,,,,,,,,,,,,,,,,,,,,,,,23_24Exp,001,2021_May_03_1549,ComputerHuman,2020.1.3,60.002367537957056,
Computer.xlsx,c,Sychronize.jpg,Number6.jpg,6,Computer,,,,,0,4,4,3,0,6,6,0,,,,,,,,,,,,,,,,,,,,,,,,,,,,,963.4756023270247,None,963.4756023270247,None,963.925439926089,None,963.925439926089,None,v,3.6964829972239386,963.925439926089,None,t,3.6472603563679513,963.925439926089,None,3.6964829972239386,3.6472603563679513,5.667190686333148,False,False,False,967.6927345430395,None,967.6927345430395,None,967.6927345430395,None,967.6927345430395,None,967.6927345430395,None,967.6927345430395,None,967.6927345430395,None,967.6927345430395,None,968.6909438822559,None,968.6909438822559,None,969.6742046364061,None,969.6742046364061,None,c,,,,,,,,,,,,,,,,,,,,,,,,,,,,,,,,,,,,,,,,,,,,,,,23_24Exp,001,2021_May_03_1549,ComputerHuman,2020.1.3,60.002367537957056,
Computer.xlsx,c,Sychronize.jpg,Number7.jpg,7,Computer,,,,,0,4,4,3,0,7,7,3,,,,,,,,,,,,,,,,,,,,,,,,,,,,,970.7412235326574,None,970.7412235326574,None,971.1744367293968,None,971.1744367293968,None,v,4.655207015079213,971.1744367293968,None,t,6.44226947487914,971.1744367293968,None,4.655207015079213,6.44226947487914,7.28757972056278,False,False,False,977.7058988831623,None,977.7058988831623,None,977.7058988831623,None,977.7058988831623,None,977.7058988831623,None,977.7058988831623,None,977.7058988831623,None,977.7058988831623,None,978.7057243723302,None,978.7057243723302,None,979.6888847185928,None,979.6888847185928,None,c,,,,,,,,,,,,,,,,,,,,,,,,,,,,,,,,,,,,,,,,,,,,,,,23_24Exp,001,2021_May_03_1549,ComputerHuman,2020.1.3,60.002367537957056,
Computer.xlsx,c,Sychronize.jpg,Number9.jpg,9,Computer,,,,,0,4,4,3,0,8,8,7,,,,,,,,,,,,,,,,,,,,,,,,,,,,,980.7390107096398,None,980.7390107096398,None,981.1890491244785,None,981.1890491244785,None,v,6.70021220388935,981.1890491244785,None,t,7.835196011914377,981.1890491244785,None,6.70021220388935,7.835196011914377,9.35861225943562,False,False,False,989.0887406829979,None,989.0887406829979,None,989.0887406829979,None,989.0887406829979,None,989.0887406829979,None,989.0887406829979,None,989.0887406829979,None,989.0887406829979,None,990.1200342605816,None,990.1200342605816,None,991.1032488206883,None,991.1032488206883,None,c,,,,,,,,,,,,,,,,,,,,,,,,,,,,,,,,,,,,,,,,,,,,,,,23_24Exp,001,2021_May_03_1549,ComputerHuman,2020.1.3,60.002367537957056,
Computer.xlsx,c,Sychronize.jpg,Number10.jpg,10,Computer,,,,,0,4,4,3,0,9,9,8,,,,,,,,,,,,,,,,,,,,,,,,,,,,,992.1537222294392,None,992.1537222294392,None,992.6032736820662,None,992.6032736820662,None,v,7.569541123124509,992.6032736820662,None,t,7.697210553414152,992.6032736820662,None,7.569541123124509,7.697210553414152,10.068159204589527,False,False,False,1000.3683795353963,None,1000.3683795353963,None,1000.3683795353963,None,1000.3683795353963,None,1000.3683795353963,None,1000.3683795353963,None,1000.3683795353963,None,1000.3683795353963,None,1001.3677886365858,None,1001.3677886365858,None,1002.3510137828262,None,1002.3510137828262,None,c,,,,,,,,,,,,,,,,,,,,,,,,,,,,,,,,,,,,,,,,,,,,,,,23_24Exp,001,2021_May_03_1549,ComputerHuman,2020.1.3,60.002367537957056,
Computer.xlsx,c,,,,,,,,,0,4,4,3,,,,,,,,,,,,,,,,,,,,,,,,,,,,,,,,,,,,,,,,,,,,,,,,,,,,,,,,,,,,,,,,,,,,,,,,,,,,,,,c,1003.3515209549332,None,1003.3515209549332,None,a,1,3.9251807261762224,1003.3515209549332,None,o,0,2.212294993881187,1003.3515209549332,None,c,h,1007.3677289692787,None,1007.3677289692787,None,None,None,1009.3662789895689,None,1009.3662789895689,None,"['space', 'space']",1010.3493690823898,None,"[1.279145153554964, 37.526088888247614]",,,,,,,,,,,,,,,,,23_24Exp,001,2021_May_03_1549,ComputerHuman,2020.1.3,60.002367537957056,
Computer.xlsx,c,Sychronize.jpg,Number10.jpg,10,Computer,,,,,0,5,5,5,0,0,0,8,,,,,,,,,,,,,,,,,,,,,,,,,1047.9281586380448,None,1047.9281586380448,None,1050.9919644819129,None,1050.9919644819129,None,1051.4249377262586,None,1051.4249377262586,None,v,6.750076749479376,1051.4249377262586,None,t,5.305587394158465,1051.4249377262586,None,6.750076749479376,5.305587394158465,9.980790975308041,False,False,False,1058.273120359543,None,1058.273120359543,None,1058.273120359543,None,1058.273120359543,None,1058.273120359543,None,1058.273120359543,None,1058.273120359543,None,1058.273120359543,None,1059.2728804071485,None,1059.2728804071485,None,1060.256082456368,None,1060.256082456368,None,c,,,,,,,,,,,,,,,,,,,,,,,,,,,,,,,,,,,,,,,,,,,,,,,23_24Exp,001,2021_May_03_1549,ComputerHuman,2020.1.3,60.002367537957056,
Computer.xlsx,c,Sychronize.jpg,Number6.jpg,6,Computer,,,,,0,5,5,5,0,1,1,0,,,,,,,,,,,,,,,,,,,,,,,,,,,,,1061.3224283310628,None,1061.3224283310628,None,1061.7729684645446,None,1061.7729684645446,None,v,4.193888592156327,1061.7729684645446,None,t,3.1773514452479503,1061.7729684645446,None,4.193888592156327,3.1773514452479503,6.081831382769271,False,False,False,1066.0549038666659,None,1066.0549038666659,None,1066.0549038666659,None,1066.0549038666659,None,1066.0549038666659,None,1066.0549038666659,None,1066.0549038666659,None,1066.0549038666659,None,1067.0380295673958,None,1067.0380295673958,None,1068.0212120483047,None,1068.0212120483047,None,c,,,,,,,,,,,,,,,,,,,,,,,,,,,,,,,,,,,,,,,,,,,,,,,23_24Exp,001,2021_May_03_1549,ComputerHuman,2020.1.3,60.002367537957056,
Computer.xlsx,c,Sychronize.jpg,Number9.jpg,9,Computer,,,,,0,5,5,5,0,2,2,7,,,,,,,,,,,,,,,,,,,,,,,,,,,,,1069.08810968519,None,1069.08810968519,None,1069.5209186840466,None,1069.5209186840466,None,v,6.665631150183799,1069.5209186840466,None,t,5.429256548566627,1069.5209186840466,None,6.665631150183799,5.429256548566627,9.586893466633516,False,False,False,1076.2695454538161,None,1076.2695454538161,None,1076.2695454538161,None,1076.2695454538161,None,1076.2695454538161,None,1076.2695454538161,None,1076.2695454538161,None,1076.2695454538161,None,1077.2692891410306,None,1077.2692891410306,None,1078.2524873407465,None,1078.2524873407465,None,c,,,,,,,,,,,,,,,,,,,,,,,,,,,,,,,,,,,,,,,,,,,,,,,23_24Exp,001,2021_May_03_1549,ComputerHuman,2020.1.3,60.002367537957056,
Computer.xlsx,c,Sychronize.jpg,Number8.jpg,8,Computer,,,,,0,5,5,5,0,3,3,5,,,,,,,,,,,,,,,,,,,,,,,,,,,,,1079.302855850523,None,1079.302855850523,None,1079.7527415683835,None,1079.7527415683835,None,v,5.50148157771855,1079.7527415683835,None,t,5.3682762403814195,1079.7527415683835,None,5.50148157771855,5.3682762403814195,7.449189330059604,False,False,False,1085.334642485367,None,1085.334642485367,None,1085.334642485367,None,1085.334642485367,None,1085.334642485367,None,1085.334642485367,None,1085.334642485367,None,1085.334642485367,None,1086.334216152838,None,1086.334216152838,None,1087.3173392872322,None,1087.3173392872322,None,c,,,,,,,,,,,,,,,,,,,,,,,,,,,,,,,,,,,,,,,,,,,,,,,23_24Exp,001,2021_May_03_1549,ComputerHuman,2020.1.3,60.002367537957056,
Computer.xlsx,c,Sychronize.jpg,Number7.jpg,7,Computer,,,,,0,5,5,5,0,4,4,2,,,,,,,,,,,,,,,,,,,,,,,,,,,,,1088.3674004783006,None,1088.3674004783006,None,1088.8175896653656,None,1088.8175896653656,None,v,5.07631993866471,1088.8175896653656,None,t,5.407316944071681,1088.8175896653656,None,5.07631993866471,5.407316944071681,6.554492517720904,False,False,False,1094.315766444197,None,1094.315766444197,None,1094.315766444197,None,1094.315766444197,None,1094.315766444197,None,1094.315766444197,None,1094.315766444197,None,1094.315766444197,None,1095.3154693908318,None,1095.3154693908318,None,1096.2988767469124,None,1096.2988767469124,None,c,,,,,,,,,,,,,,,,,,,,,,,,,,,,,,,,,,,,,,,,,,,,,,,23_24Exp,001,2021_May_03_1549,ComputerHuman,2020.1.3,60.002367537957056,
Computer.xlsx,c,Sychronize.jpg,Number7.jpg,7,Computer,,,,,0,5,5,5,0,5,5,3,,,,,,,,,,,,,,,,,,,,,,,,,,,,,1097.3157516877664,None,1097.3157516877664,None,1097.7990806102098,None,1097.7990806102098,None,v,4.810566245948394,1097.7990806102098,None,t,5.110319717317907,1097.7990806102098,None,4.810566245948394,5.110319717317907,7.52451434867943,False,False,False,1102.9974930107446,None,1102.9974930107446,None,1102.9974930107446,None,1102.9974930107446,None,1102.9974930107446,None,1102.9974930107446,None,1102.9974930107446,None,1102.9974930107446,None,1103.9806052382119,None,1103.9806052382119,None,1104.9637472993318,None,1104.9637472993318,None,c,,,,,,,,,,,,,,,,,,,,,,,,,,,,,,,,,,,,,,,,,,,,,,,23_24Exp,001,2021_May_03_1549,ComputerHuman,2020.1.3,60.002367537957056,
Computer.xlsx,c,Sychronize.jpg,Number9.jpg,9,Computer,,,,,0,5,5,5,0,6,6,6,,,,,,,,,,,,,,,,,,,,,,,,,,,,,1106.0313503577627,None,1106.0313503577627,None,1106.464236346692,None,1106.464236346692,None,v,7.537049387527986,1106.464236346692,None,t,5.848206692682652,1106.464236346692,None,7.537049387527986,5.848206692682652,8.38599055780729,False,False,False,1114.0953724154188,None,1114.0953724154188,None,1114.0953724154188,None,1114.0953724154188,None,1114.0953724154188,None,1114.0953724154188,None,1114.0953724154188,None,1114.0953724154188,None,1115.0951144986739,None,1115.0951144986739,None,1116.0615888505536,None,1116.0615888505536,None,c,,,,,,,,,,,,,,,,,,,,,,,,,,,,,,,,,,,,,,,,,,,,,,,23_24Exp,001,2021_May_03_1549,ComputerHuman,2020.1.3,60.002367537957056,
Computer.xlsx,c,Sychronize.jpg,Number10.jpg,10,Computer,,,,,0,5,5,5,0,7,7,9,,,,,,,,,,,,,,,,,,,,,,,,,,,,,1117.1277932559897,None,1117.1277932559897,None,1117.561757105943,None,1117.561757105943,None,v,7.107239472810761,1117.561757105943,None,t,6.9702539228846945,1117.561757105943,None,7.107239472810761,6.9702539228846945,10.164380184748316,False,False,False,1124.7434071636053,None,1124.7434071636053,None,1124.7434071636053,None,1124.7434071636053,None,1124.7434071636053,None,1124.7434071636053,None,1124.7434071636053,None,1124.7434071636053,None,1125.759606516568,None,1125.759606516568,None,1126.7427707123343,None,1126.7427707123343,None,c,,,,,,,,,,,,,,,,,,,,,,,,,,,,,,,,,,,,,,,,,,,,,,,23_24Exp,001,2021_May_03_1549,ComputerHuman,2020.1.3,60.002367537957056,
Computer.xlsx,c,Sychronize.jpg,Number8.jpg,8,Computer,,,,,0,5,5,5,0,8,8,4,,,,,,,,,,,,,,,,,,,,,,,,,,,,,1127.7928149014278,None,1127.7928149014278,None,1128.242688108402,None,1128.242688108402,None,v,6.006196096924214,1128.242688108402,None,t,5.02530374989783,1128.242688108402,None,6.006196096924214,5.02530374989783,7.7032613870531925,False,False,False,1134.3412491960144,None,1134.3412491960144,None,1134.3412491960144,None,1134.3412491960144,None,1134.3412491960144,None,1134.3412491960144,None,1134.3412491960144,None,1134.3412491960144,None,1135.3243572531865,None,1135.3243572531865,None,1136.3075413380548,None,1136.3075413380548,None,c,,,,,,,,,,,,,,,,,,,,,,,,,,,,,,,,,,,,,,,,,,,,,,,23_24Exp,001,2021_May_03_1549,ComputerHuman,2020.1.3,60.002367537957056,
Computer.xlsx,c,Sychronize.jpg,Number6.jpg,6,Computer,,,,,0,5,5,5,0,9,9,1,,,,,,,,,,,,,,,,,,,,,,,,,,,,,1137.3741255611849,None,1137.3741255611849,None,1137.8076688528636,None,1137.8076688528636,None,v,3.9287447249771503,1137.8076688528636,None,t,4.384292100337007,1137.8076688528636,None,3.9287447249771503,4.384292100337007,6.179209542679604,False,False,False,1142.2739733453946,None,1142.2739733453946,None,1142.2739733453946,None,1142.2739733453946,None,1142.2739733453946,None,1142.2739733453946,None,1142.2739733453946,None,1142.2739733453946,None,1143.2894897322503,None,1143.2894897322503,None,1144.2726340389145,None,1144.2726340389145,None,c,,,,,,,,,,,,,,,,,,,,,,,,,,,,,,,,,,,,,,,,,,,,,,,23_24Exp,001,2021_May_03_1549,ComputerHuman,2020.1.3,60.002367537957056,
Computer.xlsx,c,,,,,,,,,0,5,5,5,,,,,,,,,,,,,,,,,,,,,,,,,,,,,,,,,,,,,,,,,,,,,,,,,,,,,,,,,,,,,,,,,,,,,,,,,,,,,,,c,1145.2900004330686,None,1145.2900004330686,None,a,1,3.150214369235073,1145.2900004330686,None,l,0,2.8054775229084044,1145.2900004330686,None,c,c,1148.5221325608654,None,1148.5221325608654,None,1150.5213738878538,None,None,None,None,None,None,None,None,,,,,,,,,,,,,,,,,,23_24Exp,001,2021_May_03_1549,ComputerHuman,2020.1.3,60.002367537957056,
Computer.xlsx,c,Sychronize.jpg,Number9.jpg,9,Computer,,,,,0,6,6,9,0,0,0,6,,,,,,,,,,,,,,,,,,,,,,,,,1155.523877348397,None,1155.523877348397,None,1158.6036846165807,None,1158.6036846165807,None,1159.0534689641781,None,1159.0534689641781,None,v,5.318268942364739,1159.0534689641781,None,t,5.593330734918709,1159.0534689641781,None,5.318268942364739,5.593330734918709,8.623349182483246,False,False,False,1164.7201927318156,None,1164.7201927318156,None,1164.7201927318156,None,1164.7201927318156,None,1164.7201927318156,None,1164.7201927318156,None,1164.7201927318156,None,1164.7201927318156,None,1165.7514468519876,None,1165.7514468519876,None,1166.7181265107292,None,1166.7181265107292,None,c,,,,,,,,,,,,,,,,,,,,,,,,,,,,,,,,,,,,,,,,,,,,,,,23_24Exp,001,2021_May_03_1549,ComputerHuman,2020.1.3,60.002367537957056,
Computer.xlsx,c,Sychronize.jpg,Number9.jpg,9,Computer,,,,,0,6,6,9,0,1,1,7,,,,,,,,,,,,,,,,,,,,,,,,,,,,,1167.7681899473419,None,1167.7681899473419,None,1168.2179540850448,None,1168.2179540850448,None,v,6.341511924640145,1168.2179540850448,None,t,7.628227447922654,1168.2179540850448,None,6.341511924640145,7.628227447922654,9.436809614278186,False,False,False,1175.9176976118633,None,1175.9176976118633,None,1175.9176976118633,None,1175.9176976118633,None,1175.9176976118633,None,1175.9176976118633,None,1175.9176976118633,None,1175.9176976118633,None,1176.932705543445,None,1176.932705543445,None,1177.9159175372151,None,1177.9159175372151,None,c,,,,,,,,,,,,,,,,,,,,,,,,,,,,,,,,,,,,,,,,,,,,,,,23_24Exp,001,2021_May_03_1549,ComputerHuman,2020.1.3,60.002367537957056,
Computer.xlsx,c,Sychronize.jpg,Number10.jpg,10,Computer,,,,,0,6,6,9,0,2,2,8,,,,,,,,,,,,,,,,,,,,,,,,,,,,,1178.9663556588503,None,1178.9663556588503,None,1179.415932774834,None,1179.415932774834,None,v,8.643049640953905,1179.415932774834,None,t,7.610210808444208,1179.415932774834,None,8.643049640953905,7.610210808444208,9.562501553407381,False,False,False,1188.131378747852,None,1188.131378747852,None,1188.131378747852,None,1188.131378747852,None,1188.131378747852,None,1188.131378747852,None,1188.131378747852,None,1188.131378747852,None,1189.1302633541682,None,1189.1302633541682,None,1190.1301376037154,None,1190.1301376037154,None,c,,,,,,,,,,,,,,,,,,,,,,,,,,,,,,,,,,,,,,,,,,,,,,,23_24Exp,001,2021_May_03_1549,ComputerHuman,2020.1.3,60.002367537957056,
Computer.xlsx,c,Sychronize.jpg,Number7.jpg,7,Computer,,,,,0,6,6,9,0,3,3,2,,,,,,,,,,,,,,,,,,,,,,,,,,,,,1191.1807467074714,None,1191.1807467074714,None,1191.6303886234327,None,1191.6303886234327,None,v,4.74833516986746,1191.6303886234327,None,t,9.263145012406312,1191.6303886234327,None,4.74833516986746,9.263145012406312,7.031918169145916,False,False,False,1200.9779664034568,None,1200.9779664034568,None,1200.9779664034568,None,1200.9779664034568,None,1200.9779664034568,None,1200.9779664034568,None,1200.9779664034568,None,1200.9779664034568,None,1201.9610805556758,None,1201.9610805556758,None,1202.9442277494672,None,1202.9442277494672,None,c,,,,,,,,,,,,,,,,,,,,,,,,,,,,,,,,,,,,,,,,,,,,,,,23_24Exp,001,2021_May_03_1549,ComputerHuman,2020.1.3,60.002367537957056,
Computer.xlsx,c,Sychronize.jpg,Number8.jpg,8,Computer,,,,,0,6,6,9,0,4,4,4,,,,,,,,,,,,,,,,,,,,,,,,,,,,,1203.994145546525,None,1203.994145546525,None,1204.444166317805,None,1204.444166317805,None,v,5.530129583916278,1204.444166317805,None,t,7.541194340587936,1204.444166317805,None,5.530129583916278,7.541194340587936,7.527307449864547,False,False,True,1212.0605959994027,None,1212.0605959994027,None,1212.0605959994027,None,1212.0605959994027,None,1212.0605959994027,None,1212.0605959994027,None,1212.0605959994027,None,1212.0605959994027,None,1213.0755189211122,None,1213.0755189211122,None,1214.0586799089588,None,1214.0586799089588,None,c,,,,,,,,,,,,,,,,,,,,,,,,,,,,,,,,,,,,,,,,,,,,,,,23_24Exp,001,2021_May_03_1549,ComputerHuman,2020.1.3,60.002367537957056,
Computer.xlsx,c,Sychronize.jpg,Number8.jpg,8,Computer,,,,,0,6,6,9,0,5,5,5,,,,,,,,,,,,,,,,,,,,,,,,,,,,,1215.091666305775,None,1215.091666305775,None,1215.5584821407083,None,1215.5584821407083,None,v,5.771458496736159,1215.5584821407083,None,t,6.098233238218199,1215.5584821407083,None,5.771458496736159,6.098233238218199,7.934056011101406,False,False,False,1221.7074492707588,None,1221.7074492707588,None,1221.7074492707588,None,1221.7074492707588,None,1221.7074492707588,None,1221.7074492707588,None,1221.7074492707588,None,1221.7074492707588,None,1222.7234163703342,None,1222.7234163703342,None,1223.7233939148964,None,1223.7233939148964,None,c,,,,,,,,,,,,,,,,,,,,,,,,,,,,,,,,,,,,,,,,,,,,,,,23_24Exp,001,2021_May_03_1549,ComputerHuman,2020.1.3,60.002367537957056,
Computer.xlsx,c,Sychronize.jpg,Number10.jpg,10,Computer,,,,,0,6,6,9,0,6,6,9,,,,,,,,,,,,,,,,,,,,,,,,,,,,,1224.773437462407,None,1224.773437462407,None,1225.2233616753037,None,1225.2233616753037,None,v,7.514173070476318,1225.2233616753037,None,t,7.757224956973914,1225.2233616753037,None,7.514173070476318,7.757224956973914,9.369193916356458,False,False,False,1233.0714390888224,None,1233.0714390888224,None,1233.0714390888224,None,1233.0714390888224,None,1233.0714390888224,None,1233.0714390888224,None,1233.0714390888224,None,1233.0714390888224,None,1234.0546421004174,None,1234.0546421004174,None,1235.0377639516437,None,1235.0377639516437,None,c,,,,,,,,,,,,,,,,,,,,,,,,,,,,,,,,,,,,,,,,,,,,,,,23_24Exp,001,2021_May_03_1549,ComputerHuman,2020.1.3,60.002367537957056,
Computer.xlsx,c,Sychronize.jpg,Number7.jpg,7,Computer,,,,,0,6,6,9,0,7,7,3,,,,,,,,,,,,,,,,,,,,,,,,,,,,,1236.0879778396902,None,1236.0879778396902,None,1236.5378112684593,None,1236.5378112684593,None,v,4.739722226232516,1236.5378112684593,None,t,4.298288414437593,1236.5378112684593,None,4.739722226232516,4.298288414437593,7.1118313691587645,False,False,False,1241.3534521226002,None,1241.3534521226002,None,1241.3534521226002,None,1241.3534521226002,None,1241.3534521226002,None,1241.3534521226002,None,1241.3534521226002,None,1241.3534521226002,None,1242.36969670723,None,1242.36969670723,None,1243.3528153505367,None,1243.3528153505367,None,c,,,,,,,,,,,,,,,,,,,,,,,,,,,,,,,,,,,,,,,,,,,,,,,23_24Exp,001,2021_May_03_1549,ComputerHuman,2020.1.3,60.002367537957056,
Computer.xlsx,c,Sychronize.jpg,Number6.jpg,6,Computer,,,,,0,6,6,9,0,8,8,1,,,,,,,,,,,,,,,,,,,,,,,,,,,,,1244.402723844627,None,1244.402723844627,None,1244.8529778316706,None,1244.8529778316706,None,v,4.824117461187598,1244.8529778316706,None,t,4.139359089720529,1244.8529778316706,None,4.824117461187598,4.139359089720529,6.403896955253025,False,False,False,1249.768197646349,None,1249.768197646349,None,1249.768197646349,None,1249.768197646349,None,1249.768197646349,None,1249.768197646349,None,1249.768197646349,None,1249.768197646349,None,1250.751304099561,None,1250.751304099561,None,1251.7344859388859,None,1251.7344859388859,None,c,,,,,,,,,,,,,,,,,,,,,,,,,,,,,,,,,,,,,,,,,,,,,,,23_24Exp,001,2021_May_03_1549,ComputerHuman,2020.1.3,60.002367537957056,
Computer.xlsx,c,Sychronize.jpg,Number6.jpg,6,Computer,,,,,0,6,6,9,0,9,9,0,,,,,,,,,,,,,,,,,,,,,,,,,,,,,1252.7845182586761,None,1252.7845182586761,None,1253.2342894538033,None,1253.2342894538033,None,v,4.3425240233091245,1253.2342894538033,None,t,4.429304025778947,1253.2342894538033,None,4.3425240233091245,4.429304025778947,5.732709823992382,False,False,False,1257.7498817079604,None,1257.7498817079604,None,1257.7498817079604,None,1257.7498817079604,None,1257.7498817079604,None,1257.7498817079604,None,1257.7498817079604,None,1257.7498817079604,None,1258.7497145753432,None,1258.7497145753432,None,1259.7328405968647,None,1259.7328405968647,None,c,,,,,,,,,,,,,,,,,,,,,,,,,,,,,,,,,,,,,,,,,,,,,,,23_24Exp,001,2021_May_03_1549,ComputerHuman,2020.1.3,60.002367537957056,
Computer.xlsx,c,,,,,,,,,0,6,6,9,,,,,,,,,,,,,,,,,,,,,,,,,,,,,,,,,,,,,,,,,,,,,,,,,,,,,,,,,,,,,,,,,,,,,,,,,,,,,,,c,1260.7333400699645,None,1260.7333400699645,None,a,1,3.3872783527976935,1260.7333400699645,None,l,0,3.0227393388795463,1260.7333400699645,None,c,c,1264.215944323345,None,1264.215944323345,None,1266.2149193929972,None,None,None,None,None,None,None,None,,,,,,,,,,,,,,,,,,23_24Exp,001,2021_May_03_1549,ComputerHuman,2020.1.3,60.002367537957056,
Human.xlsx,h,Sychronize.jpg,Number10.jpg,10,Human,,,,,0,7,7,6,0,0,0,9,,,,,,,,,,,,,,,,,,,,,,,,,1271.200290958317,None,1271.200290958317,None,1274.2969853574505,None,1274.2969853574505,None,1274.7302909422779,None,1274.7302909422779,None,v,6.617789197972343,1274.7302909422779,None,t,5.9492045161086935,1274.7302909422779,None,6.617789197972343,5.9492045161086935,9.285732698927369,False,False,False,1281.4293235940886,None,1281.4293235940886,None,1281.4293235940886,None,1281.4293235940886,None,1281.4293235940886,None,1281.4293235940886,None,1281.4293235940886,None,1281.4293235940886,None,1282.4472138415313,None,1282.4472138415313,None,1283.4280850162877,None,1283.4280850162877,None,h,,,,,,,,,,,,,,,,,,,,,,,,,,,,,,,,,,,,,,,,,,,,,,,23_24Exp,001,2021_May_03_1549,ComputerHuman,2020.1.3,60.002367537957056,
Human.xlsx,h,Sychronize.jpg,Number10.jpg,10,Human,,,,,0,7,7,6,0,1,1,8,,,,,,,,,,,,,,,,,,,,,,,,,,,,,1284.4782716370173,None,1284.4782716370173,None,1284.9283633033228,None,1284.9283633033228,None,v,7.51939395980844,1284.9283633033228,None,t,8.050129840550653,1284.9283633033228,None,7.51939395980844,8.050129840550653,9.715253785924073,False,False,False,1293.0762079822662,None,1293.0762079822662,None,1293.0762079822662,None,1293.0762079822662,None,1293.0762079822662,None,1293.0762079822662,None,1293.0762079822662,None,1293.0762079822662,None,1294.0616700109222,None,1294.0616700109222,None,1295.0591684751307,None,1295.0591684751307,None,h,,,,,,,,,,,,,,,,,,,,,,,,,,,,,,,,,,,,,,,,,,,,,,,23_24Exp,001,2021_May_03_1549,ComputerHuman,2020.1.3,60.002367537957056,
Human.xlsx,h,Sychronize.jpg,Number6.jpg,6,Human,,,,,0,7,7,6,0,2,2,0,,,,,,,,,,,,,,,,,,,,,,,,,,,,,1296.1093008820171,None,1296.1093008820171,None,1296.5591378394975,None,1296.5591378394975,None,v,4.064303392214242,1296.5591378394975,None,t,4.403330141453807,1296.5591378394975,None,4.064303392214242,4.403330141453807,5.857569510788095,False,False,False,1301.0428109717268,None,1301.0428109717268,None,1301.0428109717268,None,1301.0428109717268,None,1301.0428109717268,None,1301.0428109717268,None,1301.0428109717268,None,1301.0428109717268,None,1302.0266010326286,None,1302.0266010326286,None,1303.024250589856,None,1303.024250589856,None,h,,,,,,,,,,,,,,,,,,,,,,,,,,,,,,,,,,,,,,,,,,,,,,,23_24Exp,001,2021_May_03_1549,ComputerHuman,2020.1.3,60.002367537957056,
Human.xlsx,h,Sychronize.jpg,Number8.jpg,8,Human,,,,,0,7,7,6,0,3,3,5,,,,,,,,,,,,,,,,,,,,,,,,,,,,,1304.073985214698,None,1304.073985214698,None,1304.5240794473393,None,1304.5240794473393,None,v,6.207093672859628,1304.5240794473393,None,t,6.578262173654366,1304.5240794473393,None,6.207093672859628,6.578262173654366,7.746539160152476,False,False,False,1311.1892810570735,None,1311.1892810570735,None,1311.1892810570735,None,1311.1892810570735,None,1311.1892810570735,None,1311.1892810570735,None,1311.1892810570735,None,1311.1892810570735,None,1312.175066444037,None,1312.175066444037,None,1313.1721815618394,None,1313.1721815618394,None,h,,,,,,,,,,,,,,,,,,,,,,,,,,,,,,,,,,,,,,,,,,,,,,,23_24Exp,001,2021_May_03_1549,ComputerHuman,2020.1.3,60.002367537957056,
Human.xlsx,h,Sychronize.jpg,Number9.jpg,9,Human,,,,,0,7,7,6,0,4,4,7,,,,,,,,,,,,,,,,,,,,,,,,,,,,,1314.2224076399807,None,1314.2224076399807,None,1314.6721846093633,None,1314.6721846093633,None,v,6.230621518404405,1314.6721846093633,None,t,5.77026867931545,1314.6721846093633,None,6.230621518404405,5.77026867931545,9.55522560683028,False,False,False,1320.971186144353,None,1320.971186144353,None,1320.971186144353,None,1320.971186144353,None,1320.971186144353,None,1320.971186144353,None,1320.971186144353,None,1320.971186144353,None,1321.9557473891537,None,1321.9557473891537,None,1322.9535435483112,None,1322.9535435483112,None,h,,,,,,,,,,,,,,,,,,,,,,,,,,,,,,,,,,,,,,,,,,,,,,,23_24Exp,001,2021_May_03_1549,ComputerHuman,2020.1.3,60.002367537957056,
Human.xlsx,h,Sychronize.jpg,Number6.jpg,6,Human,,,,,0,7,7,6,0,5,5,1,,,,,,,,,,,,,,,,,,,,,,,,,,,,,1324.0202564090223,None,1324.0202564090223,None,1324.4704148000583,None,1324.4704148000583,None,v,5.168171020614864,1324.4704148000583,None,t,4.755620676325634,1324.4704148000583,None,5.168171020614864,4.755620676325634,5.991193513571375,False,False,False,1329.7355917088107,None,1329.7355917088107,None,1329.7355917088107,None,1329.7355917088107,None,1329.7355917088107,None,1329.7355917088107,None,1329.7355917088107,None,1329.7355917088107,None,1330.720727492032,None,1330.720727492032,None,1331.7184277343904,None,1331.7184277343904,None,h,,,,,,,,,,,,,,,,,,,,,,,,,,,,,,,,,,,,,,,,,,,,,,,23_24Exp,001,2021_May_03_1549,ComputerHuman,2020.1.3,60.002367537957056,
Human.xlsx,h,Sychronize.jpg,Number7.jpg,7,Human,,,,,0,7,7,6,0,6,6,3,,,,,,,,,,,,,,,,,,,,,,,,,,,,,1332.7683574007506,None,1332.7683574007506,None,1333.202166628973,None,1333.202166628973,None,v,4.016142893576216,1333.202166628973,None,t,6.179296406969115,1333.202166628973,None,4.016142893576216,6.179296406969115,7.160706076922592,False,False,False,1339.4668700487764,None,1339.4668700487764,None,1339.4668700487764,None,1339.4668700487764,None,1339.4668700487764,None,1339.4668700487764,None,1339.4668700487764,None,1339.4668700487764,None,1340.4523734595969,None,1340.4523734595969,None,1341.4498119357067,None,1341.4498119357067,None,h,,,,,,,,,,,,,,,,,,,,,,,,,,,,,,,,,,,,,,,,,,,,,,,23_24Exp,001,2021_May_03_1549,ComputerHuman,2020.1.3,60.002367537957056,
Human.xlsx,h,Sychronize.jpg,Number7.jpg,7,Human,,,,,0,7,7,6,0,7,7,2,,,,,,,,,,,,,,,,,,,,,,,,,,,,,1342.4996562714023,None,1342.4996562714023,None,1342.9498518743067,None,1342.9498518743067,None,v,4.732216014897858,1342.9498518743067,None,t,5.179336505966603,1342.9498518743067,None,4.732216014897858,5.179336505966603,7.136221984048664,False,False,False,1348.2151240582743,None,1348.2151240582743,None,1348.2151240582743,None,1348.2151240582743,None,1348.2151240582743,None,1348.2151240582743,None,1348.2151240582743,None,1348.2151240582743,None,1349.2011577382236,None,1349.2011577382236,None,1350.1814530913916,None,1350.1814530913916,None,h,,,,,,,,,,,,,,,,,,,,,,,,,,,,,,,,,,,,,,,,,,,,,,,23_24Exp,001,2021_May_03_1549,ComputerHuman,2020.1.3,60.002367537957056,
Human.xlsx,h,Sychronize.jpg,Number9.jpg,9,Human,,,,,0,7,7,6,0,8,8,6,,,,,,,,,,,,,,,,,,,,,,,,,,,,,1351.248850522169,None,1351.248850522169,None,1351.6815151646379,None,1351.6815151646379,None,v,7.500116607881864,1351.6815151646379,None,t,6.3672740862648425,1351.6815151646379,None,7.500116607881864,6.3672740862648425,8.730182678466727,False,False,False,1359.2795682781643,None,1359.2795682781643,None,1359.2795682781643,None,1359.2795682781643,None,1359.2795682781643,None,1359.2795682781643,None,1359.2795682781643,None,1359.2795682781643,None,1360.2647929207624,None,1360.2647929207624,None,1361.2625457730037,None,1361.2625457730037,None,h,,,,,,,,,,,,,,,,,,,,,,,,,,,,,,,,,,,,,,,,,,,,,,,23_24Exp,001,2021_May_03_1549,ComputerHuman,2020.1.3,60.002367537957056,
Human.xlsx,h,Sychronize.jpg,Number8.jpg,8,Human,,,,,0,7,7,6,0,9,9,4,,,,,,,,,,,,,,,,,,,,,,,,,,,,,1362.3124648532294,None,1362.3124648532294,None,1362.762237010732,None,1362.762237010732,None,v,6.003212410800188,1362.762237010732,None,t,6.066369934093018,1362.762237010732,None,6.003212410800188,6.066369934093018,8.177142114325758,True,False,False,1368.9109747745233,None,1368.9109747745233,None,1368.9109747745233,None,1368.9109747745233,None,1368.9109747745233,None,1368.9109747745233,None,1368.9109747745233,None,1368.9109747745233,None,1369.87906623873,None,1369.87906623873,None,1370.8773031660558,None,1370.8773031660558,None,h,,,,,,,,,,,,,,,,,,,,,,,,,,,,,,,,,,,,,,,,,,,,,,,23_24Exp,001,2021_May_03_1549,ComputerHuman,2020.1.3,60.002367537957056,
Human.xlsx,h,,,,,,,,,0,7,7,6,,,,,,,,,,,,,,,,,,,,,,,,,,,,,,,,,,,,,,,,,,,,,,,,,,,,,,,,,,,,,,,,,,,,,,,,,,,,,,,h,1371.877792694604,None,1371.877792694604,None,a,0,2.131373935972988,1371.877792694604,None,o,1,3.5903178567250507,1371.877792694604,None,c,h,1375.5600033362362,None,1375.5600033362362,None,1377.5593181245858,None,None,None,None,None,None,None,None,,,,,,,,,,,,,,,,,,23_24Exp,001,2021_May_03_1549,ComputerHuman,2020.1.3,60.002367537957056,
Computer.xlsx,c,Sychronize.jpg,Number9.jpg,9,Computer,,,,,0,8,8,7,0,0,0,6,,,,,,,,,,,,,,,,,,,,,,,,,1382.5618154900812,None,1382.5618154900812,None,1385.6246955283195,None,1385.6246955283195,None,1386.0580944636113,None,1386.0580944636113,None,v,6.666457831092885,1386.0580944636113,None,t,4.605310711083803,1386.0580944636113,None,6.666457831092885,4.605310711083803,8.362227551107368,False,False,False,1392.80795307455,None,1392.80795307455,None,1392.80795307455,None,1392.80795307455,None,1392.80795307455,None,1392.80795307455,None,1392.80795307455,None,1392.80795307455,None,1393.822721695321,None,1393.822721695321,None,1394.8058615108976,None,1394.8058615108976,None,c,,,,,,,,,,,,,,,,,,,,,,,,,,,,,,,,,,,,,,,,,,,,,,,23_24Exp,001,2021_May_03_1549,ComputerHuman,2020.1.3,60.002367537957056,
Computer.xlsx,c,Sychronize.jpg,Number10.jpg,10,Computer,,,,,0,8,8,7,0,1,1,8,,,,,,,,,,,,,,,,,,,,,,,,,,,,,1395.8560157316379,None,1395.8560157316379,None,1396.3060849425055,None,1396.3060849425055,None,v,6.258194229914807,1396.3060849425055,None,t,5.217307047639224,1396.3060849425055,None,6.258194229914807,5.217307047639224,9.915926183731187,False,False,False,1402.63916132147,None,1402.63916132147,None,1402.63916132147,None,1402.63916132147,None,1402.63916132147,None,1402.63916132147,None,1402.63916132147,None,1402.63916132147,None,1403.6373937577082,None,1403.6373937577082,None,1404.6205942029683,None,1404.6205942029683,None,c,,,,,,,,,,,,,,,,,,,,,,,,,,,,,,,,,,,,,,,,,,,,,,,23_24Exp,001,2021_May_03_1549,ComputerHuman,2020.1.3,60.002367537957056,
Computer.xlsx,c,Sychronize.jpg,Number7.jpg,7,Computer,,,,,0,8,8,7,0,2,2,3,,,,,,,,,,,,,,,,,,,,,,,,,,,,,1405.6707410454928,None,1405.6707410454928,None,1406.1208599791162,None,1406.1208599791162,None,v,5.799130974549371,1406.1208599791162,None,t,3.9103530796828636,1406.1208599791162,None,5.799130974549371,3.9103530796828636,6.696639954394137,False,False,False,1412.019066912393,None,1412.019066912393,None,1412.019066912393,None,1412.019066912393,None,1412.019066912393,None,1412.019066912393,None,1412.019066912393,None,1412.019066912393,None,1413.0188077124803,None,1413.0188077124803,None,1414.0020668626703,None,1414.0020668626703,None,c,,,,,,,,,,,,,,,,,,,,,,,,,,,,,,,,,,,,,,,,,,,,,,,23_24Exp,001,2021_May_03_1549,ComputerHuman,2020.1.3,60.002367537957056,
Computer.xlsx,c,Sychronize.jpg,Number6.jpg,6,Computer,,,,,0,8,8,7,0,3,3,1,,,,,,,,,,,,,,,,,,,,,,,,,,,,,1415.0523647982136,None,1415.0523647982136,None,1415.5022184368763,None,1415.5022184368763,None,v,4.161521644637105,1415.5022184368763,None,t,2.5603671143317115,1415.5022184368763,None,4.161521644637105,2.5603671143317115,5.805666631753798,False,False,False,1419.7508370264504,None,1419.7508370264504,None,1419.7508370264504,None,1419.7508370264504,None,1419.7508370264504,None,1419.7508370264504,None,1419.7508370264504,None,1419.7508370264504,None,1420.7340278479505,None,1420.7340278479505,None,1421.717173758575,None,1421.717173758575,None,c,,,,,,,,,,,,,,,,,,,,,,,,,,,,,,,,,,,,,,,,,,,,,,,23_24Exp,001,2021_May_03_1549,ComputerHuman,2020.1.3,60.002367537957056,
Computer.xlsx,c,Sychronize.jpg,Number8.jpg,8,Computer,,,,,0,8,8,7,0,4,4,4,,,,,,,,,,,,,,,,,,,,,,,,,,,,,1422.7841188726725,None,1422.7841188726725,None,1423.2172714397302,None,1423.2172714397302,None,v,5.546173031981198,1423.2172714397302,None,t,3.065333776025909,1423.2172714397302,None,5.546173031981198,3.065333776025909,8.30078391207547,False,False,False,1428.8338210975253,None,1428.8338210975253,None,1428.8338210975253,None,1428.8338210975253,None,1428.8338210975253,None,1428.8338210975253,None,1428.8338210975253,None,1428.8338210975253,None,1429.8487671162566,None,1429.8487671162566,None,1430.8319617872603,None,1430.8319617872603,None,c,,,,,,,,,,,,,,,,,,,,,,,,,,,,,,,,,,,,,,,,,,,,,,,23_24Exp,001,2021_May_03_1549,ComputerHuman,2020.1.3,60.002367537957056,
Computer.xlsx,c,Sychronize.jpg,Number6.jpg,6,Computer,,,,,0,8,8,7,0,5,5,0,,,,,,,,,,,,,,,,,,,,,,,,,,,,,1431.8818795843172,None,1431.8818795843172,None,1432.3317755675207,None,1432.3317755675207,None,v,3.919385940009306,1432.3317755675207,None,t,2.862362600789311,1432.3317755675207,None,3.919385940009306,2.862362600789311,5.665771734956008,False,False,False,1436.3326211751564,None,1436.3326211751564,None,1436.3326211751564,None,1436.3326211751564,None,1436.3326211751564,None,1436.3326211751564,None,1436.3326211751564,None,1436.3326211751564,None,1437.3306871203622,None,1437.3306871203622,None,1438.3137178666684,None,1438.3137178666684,None,c,,,,,,,,,,,,,,,,,,,,,,,,,,,,,,,,,,,,,,,,,,,,,,,23_24Exp,001,2021_May_03_1549,ComputerHuman,2020.1.3,60.002367537957056,
Computer.xlsx,c,Sychronize.jpg,Number8.jpg,8,Computer,,,,,0,8,8,7,0,6,6,5,,,,,,,,,,,,,,,,,,,,,,,,,,,,,1439.3976226107006,None,1439.3976226107006,None,1439.8137812230834,None,1439.8137812230834,None,v,5.633133961123349,1439.8137812230834,None,t,2.800400348380208,1439.8137812230834,None,5.633133961123349,2.800400348380208,7.809377255731102,False,False,False,1445.5457550400424,None,1445.5457550400424,None,1445.5457550400424,None,1445.5457550400424,None,1445.5457550400424,None,1445.5457550400424,None,1445.5457550400424,None,1445.5457550400424,None,1446.5454204540165,None,1446.5454204540165,None,1447.5285884992863,None,1447.5285884992863,None,c,,,,,,,,,,,,,,,,,,,,,,,,,,,,,,,,,,,,,,,,,,,,,,,23_24Exp,001,2021_May_03_1549,ComputerHuman,2020.1.3,60.002367537957056,
Computer.xlsx,c,Sychronize.jpg,Number10.jpg,10,Computer,,,,,0,8,8,7,0,7,7,9,,,,,,,,,,,,,,,,,,,,,,,,,,,,,1448.5790840426844,None,1448.5790840426844,None,1449.012028415752,None,1449.012028415752,None,v,6.54258818170365,1449.012028415752,None,t,4.46223428400026,1449.012028415752,None,6.54258818170365,4.46223428400026,9.787062772451467,False,False,False,1455.6118247128506,None,1455.6118247128506,None,1455.6118247128506,None,1455.6118247128506,None,1455.6118247128506,None,1455.6118247128506,None,1455.6118247128506,None,1455.6118247128506,None,1456.6434233636,None,1456.6434233636,None,1457.6261689258436,None,1457.6261689258436,None,c,,,,,,,,,,,,,,,,,,,,,,,,,,,,,,,,,,,,,,,,,,,,,,,23_24Exp,001,2021_May_03_1549,ComputerHuman,2020.1.3,60.002367537957056,
Computer.xlsx,c,Sychronize.jpg,Number9.jpg,9,Computer,,,,,0,8,8,7,0,8,8,7,,,,,,,,,,,,,,,,,,,,,,,,,,,,,1458.6772816729936,None,1458.6772816729936,None,1459.126896321638,None,1459.126896321638,None,v,5.8994313962311935,1459.126896321638,None,t,3.898322097594246,1459.126896321638,None,5.8994313962311935,3.898322097594246,8.600438171366697,False,False,False,1465.1251290786686,None,1465.1251290786686,None,1465.1251290786686,None,1465.1251290786686,None,1465.1251290786686,None,1465.1251290786686,None,1465.1251290786686,None,1465.1251290786686,None,1466.124913185672,None,1466.124913185672,None,1467.091409672198,None,1467.091409672198,None,c,,,,,,,,,,,,,,,,,,,,,,,,,,,,,,,,,,,,,,,,,,,,,,,23_24Exp,001,2021_May_03_1549,ComputerHuman,2020.1.3,60.002367537957056,
Computer.xlsx,c,Sychronize.jpg,Number7.jpg,7,Computer,,,,,0,8,8,7,0,9,9,2,,,,,,,,,,,,,,,,,,,,,,,,,,,,,1468.1576355706966,None,1468.1576355706966,None,1468.5916292543025,None,1468.5916292543025,None,v,4.06244472353319,1468.5916292543025,None,t,3.7093226958713785,1468.5916292543025,None,4.06244472353319,3.7093226958713785,6.55791734699388,False,False,False,1472.707164728281,None,1472.707164728281,None,1472.707164728281,None,1472.707164728281,None,1472.707164728281,None,1472.707164728281,None,1472.707164728281,None,1472.707164728281,None,1473.740087287495,None,1473.740087287495,None,1474.7232216496077,None,1474.7232216496077,None,c,,,,,,,,,,,,,,,,,,,,,,,,,,,,,,,,,,,,,,,,,,,,,,,23_24Exp,001,2021_May_03_1549,ComputerHuman,2020.1.3,60.002367537957056,
Computer.xlsx,c,,,,,,,,,0,8,8,7,,,,,,,,,,,,,,,,,,,,,,,,,,,,,,,,,,,,,,,,,,,,,,,,,,,,,,,,,,,,,,,,,,,,,,,,,,,,,,,c,1475.7236951385576,None,1475.7236951385576,None,a,0,1.7942517286674047,1475.7236951385576,None,l,1,2.9133239341281296,1475.7236951385576,None,c,c,1478.7229159348599,None,1478.7229159348599,None,1480.7220385688179,None,None,None,None,None,None,None,None,,,,,,,,,,,,,,,,,,23_24Exp,001,2021_May_03_1549,ComputerHuman,2020.1.3,60.002367537957056,
Human.xlsx,h,Sychronize.jpg,Number9.jpg,9,Human,,,,,0,9,9,8,0,0,0,7,,,,,,,,,,,,,,,,,,,,,,,,,1485.7073215955543,None,1485.7073215955543,None,1488.7875433269655,None,1488.7875433269655,None,1489.2209348840415,None,1489.2209348840415,None,v,6.100409170158855,1489.2209348840415,None,t,4.215342517607496,1489.2209348840415,None,6.100409170158855,4.215342517607496,8.45865246741826,False,False,False,1495.418987676776,None,1495.418987676776,None,1495.418987676776,None,1495.418987676776,None,1495.418987676776,None,1495.418987676776,None,1495.418987676776,None,1495.418987676776,None,1496.421484079896,None,1496.421484079896,None,1497.4186652808448,None,1497.4186652808448,None,h,,,,,,,,,,,,,,,,,,,,,,,,,,,,,,,,,,,,,,,,,,,,,,,23_24Exp,001,2021_May_03_1549,ComputerHuman,2020.1.3,60.002367537957056,
Human.xlsx,h,Sychronize.jpg,Number9.jpg,9,Human,,,,,0,9,9,8,0,1,1,6,,,,,,,,,,,,,,,,,,,,,,,,,,,,,1498.4517783904903,None,1498.4517783904903,None,1498.9010940610178,None,1498.9010940610178,None,v,5.460016649103636,1498.9010940610178,None,t,6.415426885896522,1498.9010940610178,None,5.460016649103636,6.415426885896522,9.4917795315151,False,False,False,1505.3675592703257,None,1505.3675592703257,None,1505.3675592703257,None,1505.3675592703257,None,1505.3675592703257,None,1505.3675592703257,None,1505.3675592703257,None,1505.3675592703257,None,1506.3862684996711,None,1506.3862684996711,None,1507.3833755976748,None,1507.3833755976748,None,h,,,,,,,,,,,,,,,,,,,,,,,,,,,,,,,,,,,,,,,,,,,,,,,23_24Exp,001,2021_May_03_1549,ComputerHuman,2020.1.3,60.002367537957056,
Human.xlsx,h,Sychronize.jpg,Number7.jpg,7,Human,,,,,0,9,9,8,0,2,2,2,,,,,,,,,,,,,,,,,,,,,,,,,,,,,1508.4175364138982,None,1508.4175364138982,None,1508.8833456036255,None,1508.8833456036255,None,v,4.081483406233929,1508.8833456036255,None,t,4.844329600919082,1508.8833456036255,None,4.081483406233929,4.844329600919082,7.363141421355755,False,False,False,1513.799015810232,None,1513.799015810232,None,1513.799015810232,None,1513.799015810232,None,1513.799015810232,None,1513.799015810232,None,1513.799015810232,None,1513.799015810232,None,1514.800623940384,None,1514.800623940384,None,1515.7816407546943,None,1515.7816407546943,None,h,,,,,,,,,,,,,,,,,,,,,,,,,,,,,,,,,,,,,,,,,,,,,,,23_24Exp,001,2021_May_03_1549,ComputerHuman,2020.1.3,60.002367537957056,
Human.xlsx,h,Sychronize.jpg,Number10.jpg,10,Human,,,,,0,9,9,8,0,3,3,8,,,,,,,,,,,,,,,,,,,,,,,,,,,,,1516.848163064974,None,1516.848163064974,None,1517.2820232991207,None,1517.2820232991207,None,v,7.3904503438088796,1517.2820232991207,None,t,6.141261386110273,1517.2820232991207,None,7.3904503438088796,6.141261386110273,9.403056964478,False,False,False,1524.7630152520542,None,1524.7630152520542,None,1524.7630152520542,None,1524.7630152520542,None,1524.7630152520542,None,1524.7630152520542,None,1524.7630152520542,None,1524.7630152520542,None,1525.748407989644,None,1525.748407989644,None,1526.746116893386,None,1526.746116893386,None,h,,,,,,,,,,,,,,,,,,,,,,,,,,,,,,,,,,,,,,,,,,,,,,,23_24Exp,001,2021_May_03_1549,ComputerHuman,2020.1.3,60.002367537957056,
Human.xlsx,h,Sychronize.jpg,Number8.jpg,8,Human,,,,,0,9,9,8,0,4,4,4,,,,,,,,,,,,,,,,,,,,,,,,,,,,,1527.7960824884467,None,1527.7960824884467,None,1528.2459938696647,None,1528.2459938696647,None,v,5.62617149217931,1528.2459938696647,None,t,5.429261681239041,1528.2459938696647,None,5.62617149217931,5.429261681239041,8.090243754076692,True,False,False,1533.9613022229278,None,1533.9613022229278,None,1533.9613022229278,None,1533.9613022229278,None,1533.9613022229278,None,1533.9613022229278,None,1533.9613022229278,None,1533.9613022229278,None,1534.9473464890116,None,1534.9473464890116,None,1535.927669430289,None,1535.927669430289,None,h,,,,,,,,,,,,,,,,,,,,,,,,,,,,,,,,,,,,,,,,,,,,,,,23_24Exp,001,2021_May_03_1549,ComputerHuman,2020.1.3,60.002367537957056,
Human.xlsx,h,Sychronize.jpg,Number6.jpg,6,Human,,,,,0,9,9,8,0,5,5,0,,,,,,,,,,,,,,,,,,,,,,,,,,,,,1536.977450569967,None,1536.977450569967,None,1537.4278319114228,None,1537.4278319114228,None,v,3.3201147793670316,1537.4278319114228,None,t,4.819309751915171,1537.4278319114228,None,3.3201147793670316,4.819309751915171,5.560042905182622,False,False,False,1542.3429519597976,None,1542.3429519597976,None,1542.3429519597976,None,1542.3429519597976,None,1542.3429519597976,None,1542.3429519597976,None,1542.3429519597976,None,1542.3429519597976,None,1543.3285775923596,None,1543.3285775923596,None,1544.3259660249223,None,1544.3259660249223,None,h,,,,,,,,,,,,,,,,,,,,,,,,,,,,,,,,,,,,,,,,,,,,,,,23_24Exp,001,2021_May_03_1549,ComputerHuman,2020.1.3,60.002367537957056,
Human.xlsx,h,Sychronize.jpg,Number8.jpg,8,Human,,,,,0,9,9,8,0,6,6,5,,,,,,,,,,,,,,,,,,,,,,,,,,,,,1545.3763085505489,None,1545.3763085505489,None,1545.8262504070044,None,1545.8262504070044,None,v,4.537394559688437,1545.8262504070044,None,t,5.172303462789387,1545.8262504070044,None,4.537394559688437,5.172303462789387,7.493219613410588,False,False,False,1551.0913204920307,None,1551.0913204920307,None,1551.0913204920307,None,1551.0913204920307,None,1551.0913204920307,None,1551.0913204920307,None,1551.0913204920307,None,1551.0913204920307,None,1552.0593170018137,None,1552.0593170018137,None,1553.0575388519173,None,1553.0575388519173,None,h,,,,,,,,,,,,,,,,,,,,,,,,,,,,,,,,,,,,,,,,,,,,,,,23_24Exp,001,2021_May_03_1549,ComputerHuman,2020.1.3,60.002367537957056,
Human.xlsx,h,Sychronize.jpg,Number10.jpg,10,Human,,,,,0,9,9,8,0,7,7,9,,,,,,,,,,,,,,,,,,,,,,,,,,,,,1554.124343779923,None,1554.124343779923,None,1554.5578293290473,None,1554.5578293290473,None,v,7.241487384053471,1554.5578293290473,None,t,8.197298610810321,1554.5578293290473,None,7.241487384053471,8.197298610810321,9.997363392590245,False,False,False,1562.8389996423166,None,1562.8389996423166,None,1562.8389996423166,None,1562.8389996423166,None,1562.8389996423166,None,1562.8389996423166,None,1562.8389996423166,None,1562.8389996423166,None,1563.8244459521666,None,1563.8244459521666,None,1564.8219030342107,None,1564.8219030342107,None,h,,,,,,,,,,,,,,,,,,,,,,,,,,,,,,,,,,,,,,,,,,,,,,,23_24Exp,001,2021_May_03_1549,ComputerHuman,2020.1.3,60.002367537957056,
Human.xlsx,h,Sychronize.jpg,Number6.jpg,6,Human,,,,,0,9,9,8,0,8,8,1,,,,,,,,,,,,,,,,,,,,,,,,,,,,,1565.8717483322826,None,1565.8717483322826,None,1566.3052925863367,None,1566.3052925863367,None,v,4.969719804253145,1566.3052925863367,None,t,3.613335643035498,1566.3052925863367,None,4.969719804253145,3.613335643035498,6.291836871598767,False,False,False,1571.3553528150296,None,1571.3553528150296,None,1571.3553528150296,None,1571.3553528150296,None,1571.3553528150296,None,1571.3553528150296,None,1571.3553528150296,None,1571.3553528150296,None,1572.33880251565,None,1572.33880251565,None,1573.353526546337,None,1573.353526546337,None,h,,,,,,,,,,,,,,,,,,,,,,,,,,,,,,,,,,,,,,,,,,,,,,,23_24Exp,001,2021_May_03_1549,ComputerHuman,2020.1.3,60.002367537957056,
Human.xlsx,h,Sychronize.jpg,Number7.jpg,7,Human,,,,,0,9,9,8,0,9,9,3,,,,,,,,,,,,,,,,,,,,,,,,,,,,,1574.4038061967385,None,1574.4038061967385,None,1574.8535902235435,None,1574.8535902235435,None,v,4.46117951999895,1574.8535902235435,None,t,5.416214430185391,1574.8535902235435,None,4.46117951999895,5.416214430185391,6.816067014174971,False,False,False,1580.3687291986453,None,1580.3687291986453,None,1580.3687291986453,None,1580.3687291986453,None,1580.3687291986453,None,1580.3687291986453,None,1580.3687291986453,None,1580.3687291986453,None,1581.3538521501878,None,1581.3538521501878,None,1582.3350457208753,None,1582.3350457208753,None,h,,,,,,,,,,,,,,,,,,,,,,,,,,,,,,,,,,,,,,,,,,,,,,,23_24Exp,001,2021_May_03_1549,ComputerHuman,2020.1.3,60.002367537957056,
Human.xlsx,h,,,,,,,,,0,9,9,8,,,,,,,,,,,,,,,,,,,,,,,,,,,,,,,,,,,,,,,,,,,,,,,,,,,,,,,,,,,,,,,,,,,,,,,,,,,,,,,h,1583.336445015454,None,1583.336445015454,None,a,0,3.146046319152447,1583.336445015454,None,o,1,3.633332531353517,1583.336445015454,None,c,h,1587.0677737197593,None,1587.0677737197593,None,None,None,1589.0503611315607,None,1589.0503611315607,None,"['space', 'space']",1590.0335003055543,None,"[203.63854636326232, 207.45441882920568]",,,,,,,,,,,,,,,,,23_24Exp,001,2021_May_03_1549,ComputerHuman,2020.1.3,60.002367537957056,
Computer.xlsx,c,Sychronize.jpg,Number9.jpg,9,Computer,,,,,1,0,10,1,0,0,0,7,,,,,,,,,,,,,,,,,,,,,,,,,1797.5456895984798,None,1797.5456895984798,None,1800.6084076367733,None,1800.6084076367733,None,1801.041478081086,None,1801.041478081086,None,v,5.766140086645464,1801.041478081086,None,t,4.725309363756423,1801.041478081086,None,5.766140086645464,4.725309363756423,8.532037478828112,False,False,False,1806.8909631297747,None,1806.8909631297747,None,1806.8909631297747,None,1806.8909631297747,None,1806.8909631297747,None,1806.8909631297747,None,1806.8909631297747,None,1806.8909631297747,None,1807.9065346928492,None,1807.9065346928492,None,1808.8897713876013,None,1808.8897713876013,None,c,,,,,,,,,,,,,,,,,,,,,,,,,,,,,,,,,,,,,,,,,,,,,,,23_24Exp,001,2021_May_03_1549,ComputerHuman,2020.1.3,60.002367537957056,
Computer.xlsx,c,Sychronize.jpg,Number6.jpg,6,Computer,,,,,1,0,10,1,0,1,1,0,,,,,,,,,,,,,,,,,,,,,,,,,,,,,1809.9400462261228,None,1809.9400462261228,None,1810.3899066014174,None,1810.3899066014174,None,v,3.773508036641033,1810.3899066014174,None,t,4.752279627945427,1810.3899066014174,None,3.773508036641033,4.752279627945427,5.795734871514604,False,False,False,1815.2384745058598,None,1815.2384745058598,None,1815.2384745058598,None,1815.2384745058598,None,1815.2384745058598,None,1815.2384745058598,None,1815.2384745058598,None,1815.2384745058598,None,1816.2381986247647,None,1816.2381986247647,None,1817.2047599112684,None,1817.2047599112684,None,c,,,,,,,,,,,,,,,,,,,,,,,,,,,,,,,,,,,,,,,,,,,,,,,23_24Exp,001,2021_May_03_1549,ComputerHuman,2020.1.3,60.002367537957056,
Computer.xlsx,c,Sychronize.jpg,Number10.jpg,10,Computer,,,,,1,0,10,1,0,2,2,8,,,,,,,,,,,,,,,,,,,,,,,,,,,,,1818.2715584234356,None,1818.2715584234356,None,1818.704930412201,None,1818.704930412201,None,v,6.842113890773362,1818.704930412201,None,t,5.501251569876331,1818.704930412201,None,6.842113890773362,5.501251569876331,10.439078834803272,False,False,False,1825.6205390267487,None,1825.6205390267487,None,1825.6205390267487,None,1825.6205390267487,None,1825.6205390267487,None,1825.6205390267487,None,1825.6205390267487,None,1825.6205390267487,None,1826.6359405700787,None,1826.6359405700787,None,1827.6193501717034,None,1827.6193501717034,None,c,,,,,,,,,,,,,,,,,,,,,,,,,,,,,,,,,,,,,,,,,,,,,,,23_24Exp,001,2021_May_03_1549,ComputerHuman,2020.1.3,60.002367537957056,
Computer.xlsx,c,Sychronize.jpg,Number8.jpg,8,Computer,,,,,1,0,10,1,0,3,3,5,,,,,,,,,,,,,,,,,,,,,,,,,,,,,1828.6695255647137,None,1828.6695255647137,None,1829.119531579563,None,1829.119531579563,None,v,4.479283735686295,1829.119531579563,None,t,4.242305082789244,1829.119531579563,None,4.479283735686295,4.242305082789244,8.195558894134841,False,False,False,1833.684774731858,None,1833.684774731858,None,1833.684774731858,None,1833.684774731858,None,1833.684774731858,None,1833.684774731858,None,1833.684774731858,None,1833.684774731858,None,1834.6679206424815,None,1834.6679206424815,None,1835.6509549174998,None,1835.6509549174998,None,c,,,,,,,,,,,,,,,,,,,,,,,,,,,,,,,,,,,,,,,,,,,,,,,23_24Exp,001,2021_May_03_1549,ComputerHuman,2020.1.3,60.002367537957056,
Computer.xlsx,c,Sychronize.jpg,Number8.jpg,8,Computer,,,,,1,0,10,1,0,4,4,4,,,,,,,,,,,,,,,,,,,,,,,,,,,,,1836.7012364926522,None,1836.7012364926522,None,1837.1513028163927,None,1837.1513028163927,None,v,4.911226917012755,1837.1513028163927,None,t,6.44623510522797,1837.1513028163927,None,4.911226917012755,6.44623510522797,8.506429781974425,False,False,False,1843.6676701039523,None,1843.6676701039523,None,1843.6676701039523,None,1843.6676701039523,None,1843.6676701039523,None,1843.6676701039523,None,1843.6676701039523,None,1843.6676701039523,None,1844.6826074613,None,1844.6826074613,None,1845.6657283501509,None,1845.6657283501509,None,c,,,,,,,,,,,,,,,,,,,,,,,,,,,,,,,,,,,,,,,,,,,,,,,23_24Exp,001,2021_May_03_1549,ComputerHuman,2020.1.3,60.002367537957056,
Computer.xlsx,c,Sychronize.jpg,Number7.jpg,7,Computer,,,,,1,0,10,1,0,5,5,2,,,,,,,,,,,,,,,,,,,,,,,,,,,,,1846.7163191687632,None,1846.7163191687632,None,1847.165930609488,None,1847.165930609488,None,v,4.220307735738061,1847.165930609488,None,t,5.771578793725894,1847.165930609488,None,4.220307735738061,5.771578793725894,7.157424680693821,False,False,False,1853.0155747709941,None,1853.0155747709941,None,1853.0155747709941,None,1853.0155747709941,None,1853.0155747709941,None,1853.0155747709941,None,1853.0155747709941,None,1853.0155747709941,None,1854.0139935873676,None,1854.0139935873676,None,1854.9972014108425,None,1854.9972014108425,None,c,,,,,,,,,,,,,,,,,,,,,,,,,,,,,,,,,,,,,,,,,,,,,,,23_24Exp,001,2021_May_03_1549,ComputerHuman,2020.1.3,60.002367537957056,
Computer.xlsx,c,Sychronize.jpg,Number9.jpg,9,Computer,,,,,1,0,10,1,0,6,6,6,,,,,,,,,,,,,,,,,,,,,,,,,,,,,1856.065444770048,None,1856.065444770048,None,1856.4977648819404,None,1856.4977648819404,None,v,5.364175235821676,1856.4977648819404,None,t,7.363371972726782,1856.4977648819404,None,5.364175235821676,7.363371972726782,9.556587712404328,False,False,False,1863.945415642137,None,1863.945415642137,None,1863.945415642137,None,1863.945415642137,None,1863.945415642137,None,1863.945415642137,None,1863.945415642137,None,1863.945415642137,None,1864.9450804145272,None,1864.9450804145272,None,1865.9116757049796,None,1865.9116757049796,None,c,,,,,,,,,,,,,,,,,,,,,,,,,,,,,,,,,,,,,,,,,,,,,,,23_24Exp,001,2021_May_03_1549,ComputerHuman,2020.1.3,60.002367537957056,
Computer.xlsx,c,Sychronize.jpg,Number6.jpg,6,Computer,,,,,1,0,10,1,0,7,7,1,,,,,,,,,,,,,,,,,,,,,,,,,,,,,1866.9784697260593,None,1866.9784697260593,None,1867.411762479208,None,1867.411762479208,None,v,3.3618693831331257,1867.411762479208,None,t,7.841258338586158,1867.411762479208,None,3.3618693831331257,7.841258338586158,6.241189899027596,False,False,False,1875.326949252314,None,1875.326949252314,None,1875.326949252314,None,1875.326949252314,None,1875.326949252314,None,1875.326949252314,None,1875.326949252314,None,1875.326949252314,None,1876.3428069618267,None,1876.3428069618267,None,1877.3260058031265,None,1877.3260058031265,None,c,,,,,,,,,,,,,,,,,,,,,,,,,,,,,,,,,,,,,,,,,,,,,,,23_24Exp,001,2021_May_03_1549,ComputerHuman,2020.1.3,60.002367537957056,
Computer.xlsx,c,Sychronize.jpg,Number7.jpg,7,Computer,,,,,1,0,10,1,0,8,8,3,,,,,,,,,,,,,,,,,,,,,,,,,,,,,1878.3758793308916,None,1878.3758793308916,None,1878.826027777376,None,1878.826027777376,None,v,4.215272905749771,1878.826027777376,None,t,4.582308964371805,1878.826027777376,None,4.215272905749771,4.582308964371805,7.4440761368545,False,False,False,1883.4766048019346,None,1883.4766048019346,None,1883.4766048019346,None,1883.4766048019346,None,1883.4766048019346,None,1883.4766048019346,None,1883.4766048019346,None,1883.4766048019346,None,1884.4745668105415,None,1884.4745668105415,None,1885.4577964478704,None,1885.4577964478704,None,c,,,,,,,,,,,,,,,,,,,,,,,,,,,,,,,,,,,,,,,,,,,,,,,23_24Exp,001,2021_May_03_1549,ComputerHuman,2020.1.3,60.002367537957056,
Computer.xlsx,c,Sychronize.jpg,Number10.jpg,10,Computer,,,,,1,0,10,1,0,9,9,9,,,,,,,,,,,,,,,,,,,,,,,,,,,,,1886.5077395874932,None,1886.5077395874932,None,1886.9578290082554,None,1886.9578290082554,None,v,6.455097304225092,1886.9578290082554,None,t,11.662080624646478,1886.9578290082554,None,6.455097304225092,11.662080624646478,10.688336468372384,False,False,False,1898.7051331527273,None,1898.7051331527273,None,1898.7051331527273,None,1898.7051331527273,None,1898.7051331527273,None,1898.7051331527273,None,1898.7051331527273,None,1898.7051331527273,None,1899.7049246379456,None,1899.7049246379456,None,1900.6713637027087,None,1900.6713637027087,None,c,,,,,,,,,,,,,,,,,,,,,,,,,,,,,,,,,,,,,,,,,,,,,,,23_24Exp,001,2021_May_03_1549,ComputerHuman,2020.1.3,60.002367537957056,
Computer.xlsx,c,,,,,,,,,1,0,10,1,,,,,,,,,,,,,,,,,,,,,,,,,,,,,,,,,,,,,,,,,,,,,,,,,,,,,,,,,,,,,,,,,,,,,,,,,,,,,,,c,1901.672265128148,None,1901.672265128148,None,q,0,3.8282842281023477,1901.672265128148,None,l,0,2.9352956178217937,1901.672265128148,None,h,c,1905.5703312337491,None,1905.5703312337491,None,1907.5866582619165,None,None,None,None,None,None,None,None,,,,,,,,,,,,,,,,,,23_24Exp,001,2021_May_03_1549,ComputerHuman,2020.1.3,60.002367537957056,
Human.xlsx,h,Sychronize.jpg,Number10.jpg,10,Human,,,,,1,1,11,2,0,0,0,9,,,,,,,,,,,,,,,,,,,,,,,,,1912.588855366127,None,1912.588855366127,None,1915.6525922397213,None,1915.6525922397213,None,1916.1018058984018,None,1916.1018058984018,None,v,6.882167334715632,1916.1018058984018,None,t,5.553295576118217,1916.1018058984018,None,6.882167334715632,5.553295576118217,10.198806621323989,False,False,False,1923.051498659891,None,1923.051498659891,None,1923.051498659891,None,1923.051498659891,None,1923.051498659891,None,1923.051498659891,None,1923.051498659891,None,1923.051498659891,None,1924.0691855252244,None,1924.0691855252244,None,1925.0665316132463,None,1925.0665316132463,None,h,,,,,,,,,,,,,,,,,,,,,,,,,,,,,,,,,,,,,,,,,,,,,,,23_24Exp,001,2021_May_03_1549,ComputerHuman,2020.1.3,60.002367537957056,
Human.xlsx,h,Sychronize.jpg,Number9.jpg,9,Human,,,,,1,1,11,2,0,1,1,6,,,,,,,,,,,,,,,,,,,,,,,,,,,,,1926.116887291344,None,1926.116887291344,None,1926.56626615789,None,1926.56626615789,None,v,6.605606802073453,1926.56626615789,None,t,7.004414739108142,1926.56626615789,None,6.605606802073453,7.004414739108142,8.575257298407928,False,False,False,1933.6491793339392,None,1933.6491793339392,None,1933.6491793339392,None,1933.6491793339392,None,1933.6491793339392,None,1933.6491793339392,None,1933.6491793339392,None,1933.6491793339392,None,1934.633887822255,None,1934.633887822255,None,1935.6310500964773,None,1935.6310500964773,None,h,,,,,,,,,,,,,,,,,,,,,,,,,,,,,,,,,,,,,,,,,,,,,,,23_24Exp,001,2021_May_03_1549,ComputerHuman,2020.1.3,60.002367537957056,
Human.xlsx,h,Sychronize.jpg,Number10.jpg,10,Human,,,,,1,1,11,2,0,2,2,8,,,,,,,,,,,,,,,,,,,,,,,,,,,,,1936.6811343845684,None,1936.6811343845684,None,1937.1312337498812,None,1937.1312337498812,None,v,6.504138056032389,1937.1312337498812,None,t,8.487420624036531,1937.1312337498812,None,6.504138056032389,8.487420624036531,9.669646349277384,False,False,False,1945.7123496889117,None,1945.7123496889117,None,1945.7123496889117,None,1945.7123496889117,None,1945.7123496889117,None,1945.7123496889117,None,1945.7123496889117,None,1945.7123496889117,None,1946.6980718798568,None,1946.6980718798568,None,1947.6954000035284,None,1947.6954000035284,None,h,,,,,,,,,,,,,,,,,,,,,,,,,,,,,,,,,,,,,,,,,,,,,,,23_24Exp,001,2021_May_03_1549,ComputerHuman,2020.1.3,60.002367537957056,
Human.xlsx,h,Sychronize.jpg,Number8.jpg,8,Human,,,,,1,1,11,2,0,3,3,4,,,,,,,,,,,,,,,,,,,,,,,,,,,,,1948.7456578400752,None,1948.7456578400752,None,1949.1788335041547,None,1949.1788335041547,None,v,5.236199128408771,1949.1788335041547,None,t,5.087213392423109,1949.1788335041547,None,5.236199128408771,5.087213392423109,8.051251026156365,True,False,False,1954.494154689096,None,1954.494154689096,None,1954.494154689096,None,1954.494154689096,None,1954.494154689096,None,1954.494154689096,None,1954.494154689096,None,1954.494154689096,None,1955.4802069749794,None,1955.4802069749794,None,1956.4935252952482,None,1956.4935252952482,None,h,,,,,,,,,,,,,,,,,,,,,,,,,,,,,,,,,,,,,,,,,,,,,,,23_24Exp,001,2021_May_03_1549,ComputerHuman,2020.1.3,60.002367537957056,
Human.xlsx,h,Sychronize.jpg,Number6.jpg,6,Human,,,,,1,1,11,2,0,4,4,1,,,,,,,,,,,,,,,,,,,,,,,,,,,,,1957.5434819081347,None,1957.5434819081347,None,1957.9935395704915,None,1957.9935395704915,None,v,4.309273614699123,1957.9935395704915,None,t,6.32024983278734,1957.9935395704915,None,4.309273614699123,6.32024983278734,5.629352290957751,False,False,False,1964.4085545594962,None,1964.4085545594962,None,1964.4085545594962,None,1964.4085545594962,None,1964.4085545594962,None,1964.4085545594962,None,1964.4085545594962,None,1964.4085545594962,None,1965.3947518433506,None,1965.3947518433506,None,1966.374904444091,None,1966.374904444091,None,h,,,,,,,,,,,,,,,,,,,,,,,,,,,,,,,,,,,,,,,,,,,,,,,23_24Exp,001,2021_May_03_1549,ComputerHuman,2020.1.3,60.002367537957056,
Human.xlsx,h,Sychronize.jpg,Number9.jpg,9,Human,,,,,1,1,11,2,0,5,5,7,,,,,,,,,,,,,,,,,,,,,,,,,,,,,1967.4419862155682,None,1967.4419862155682,None,1967.8747349055348,None,1967.8747349055348,None,v,6.631705795267408,1967.8747349055348,None,t,5.4312335894856005,1967.8747349055348,None,6.631705795267408,5.4312335894856005,8.719941651429993,False,False,False,1974.5746606421926,None,1974.5746606421926,None,1974.5746606421926,None,1974.5746606421926,None,1974.5746606421926,None,1974.5746606421926,None,1974.5746606421926,None,1974.5746606421926,None,1975.5751893073611,None,1975.5751893073611,None,1976.5728606784423,None,1976.5728606784423,None,h,,,,,,,,,,,,,,,,,,,,,,,,,,,,,,,,,,,,,,,,,,,,,,,23_24Exp,001,2021_May_03_1549,ComputerHuman,2020.1.3,60.002367537957056,
Human.xlsx,h,Sychronize.jpg,Number6.jpg,6,Human,,,,,1,1,11,2,0,6,6,0,,,,,,,,,,,,,,,,,,,,,,,,,,,,,1977.6227165626497,None,1977.6227165626497,None,1978.072718407203,None,1978.072718407203,None,v,3.8534416968614096,1978.072718407203,None,t,4.956265147396152,1978.072718407203,None,3.8534416968614096,4.956265147396152,5.851598700115002,False,False,False,1983.1063370849952,None,1983.1063370849952,None,1983.1063370849952,None,1983.1063370849952,None,1983.1063370849952,None,1983.1063370849952,None,1983.1063370849952,None,1983.1063370849952,None,1984.0897479697878,None,1984.0897479697878,None,1985.0877731744122,None,1985.0877731744122,None,h,,,,,,,,,,,,,,,,,,,,,,,,,,,,,,,,,,,,,,,,,,,,,,,23_24Exp,001,2021_May_03_1549,ComputerHuman,2020.1.3,60.002367537957056,
Human.xlsx,h,Sychronize.jpg,Number7.jpg,7,Human,,,,,1,1,11,2,0,7,7,3,,,,,,,,,,,,,,,,,,,,,,,,,,,,,1986.1546085776563,None,1986.1546085776563,None,1986.5878737426956,None,1986.5878737426956,None,v,4.458002717108684,1986.5878737426956,None,t,4.3572740381450785,1986.5878737426956,None,4.458002717108684,4.3572740381450785,6.898279964473013,True,False,False,1991.1364706788117,None,1991.1364706788117,None,1991.1364706788117,None,1991.1364706788117,None,1991.1364706788117,None,1991.1364706788117,None,1991.1364706788117,None,1991.1364706788117,None,1992.121766537227,None,1992.121766537227,None,1993.1195270884755,None,1993.1195270884755,None,h,,,,,,,,,,,,,,,,,,,,,,,,,,,,,,,,,,,,,,,,,,,,,,,23_24Exp,001,2021_May_03_1549,ComputerHuman,2020.1.3,60.002367537957056,
Human.xlsx,h,Sychronize.jpg,Number8.jpg,8,Human,,,,,1,1,11,2,0,8,8,5,,,,,,,,,,,,,,,,,,,,,,,,,,,,,1994.1693415905183,None,1994.1693415905183,None,1994.619478488492,None,1994.619478488492,None,v,5.3341253687103745,1994.619478488492,None,t,3.961338151628297,1994.619478488492,None,5.3341253687103745,3.961338151628297,7.44131146526424,False,False,False,2000.0359829146191,None,2000.0359829146191,None,2000.0359829146191,None,2000.0359829146191,None,2000.0359829146191,None,2000.0359829146191,None,2000.0359829146191,None,2000.0359829146191,None,2001.0207026306543,None,2001.0207026306543,None,2002.017809087074,None,2002.017809087074,None,h,,,,,,,,,,,,,,,,,,,,,,,,,,,,,,,,,,,,,,,,,,,,,,,23_24Exp,001,2021_May_03_1549,ComputerHuman,2020.1.3,60.002367537957056,
Human.xlsx,h,Sychronize.jpg,Number7.jpg,7,Human,,,,,1,1,11,2,0,9,9,2,,,,,,,,,,,,,,,,,,,,,,,,,,,,,2003.0680111058173,None,2003.0680111058173,None,2003.5176979326561,None,2003.5176979326561,None,v,4.227639115448255,2003.5176979326561,None,t,3.3912821573903784,2003.5176979326561,None,4.227639115448255,3.3912821573903784,7.049493507800992,False,False,False,2007.8331888165494,None,2007.8331888165494,None,2007.8331888165494,None,2007.8331888165494,None,2007.8331888165494,None,2007.8331888165494,None,2007.8331888165494,None,2007.8331888165494,None,2008.8185318313845,None,2008.8185318313845,None,2009.8161018322025,None,2009.8161018322025,None,h,,,,,,,,,,,,,,,,,,,,,,,,,,,,,,,,,,,,,,,,,,,,,,,23_24Exp,001,2021_May_03_1549,ComputerHuman,2020.1.3,60.002367537957056,
