Condition,CorrectTuringReply,Sychronize,NumberImage,Number,Partner,trials.thisRepN,trials.thisTrialN,trials.thisN,trials.thisIndex,Block.thisRepN,Block.thisTrialN,Block.thisN,Block.thisIndex,trials_loop.thisRepN,trials_loop.thisTrialN,trials_loop.thisN,trials_loop.thisIndex,key_resp_Istr.keys,key_resp_Istr.rt,key_resp_Istr.started,key_resp_Istr.stopped,key_respPrLeft.keys,key_respPrLeft.rt,key_respPrRight.keys,key_respPrRight.rt,RTPrLeft,RTPrRight,CompPr,SychronizedRTsPr,SychronizedRTsLeftCPr,SychronizedRTsRightCPr,CreditLeftPr.started,CreditLeftPr.stopped,CreditRightPr.started,CreditRightPr.stopped,text_StartExp.started,text_StartExp.stopped,key_startExp.keys,key_startExp.rt,key_startExp.started,key_startExp.stopped,SychroLeft.started,SychroLeft.stopped,SychroRight.started,SychroRight.stopped,NumberLeft.started,NumberLeft.stopped,NumberRight.started,NumberRight.stopped,CrossLeft.started,CrossLeft.stopped,CrossRight.started,CrossRight.stopped,key_respLeft.keys,key_respLeft.rt,key_respLeft.started,key_respLeft.stopped,key_respRight.keys,key_respRight.rt,key_respRight.started,key_respRight.stopped,RTLeft,RTRight,Comp,SychronizedRTs,SychronizedRTsLeftC,SychronizedRTsRightC,FeedbackLeftLeft.started,FeedbackLeftLeft.stopped,FeedbackLeftRight.started,FeedbackLeftRight.stopped,FeedbackRightLeft.started,FeedbackRightLeft.stopped,FeedbackRightRight.started,FeedbackRightRight.stopped,textLeftLeft.started,textLeftLeft.stopped,textLeftRight.started,textLeftRight.stopped,textRightLeft.started,textRightLeft.stopped,textRightRight.started,textRightRight.stopped,CreditLeft.started,CreditLeft.stopped,CreditRight.started,CreditRight.stopped,BlankLeft.started,BlankLeft.stopped,BlankRight.started,BlankRight.stopped,CorrectTuringReply,TuringtextLeft.started,TuringtextLeft.stopped,TuringtextRight.started,TuringtextRight.stopped,keyTuringLeft.keys,keyTuringLeft.corr,keyTuringLeft.rt,keyTuringLeft.started,keyTuringLeft.stopped,keyTuringRight.keys,keyTuringRight.corr,keyTuringRight.rt,keyTuringRight.started,keyTuringRight.stopped,RespTuringLeft,RespTuringRight,ScoreLeft.started,ScoreLeft.stopped,ScoreRight.started,ScoreRight.stopped,BlockText.started,BlockText.stopped,text_Pause.started,text_Pause.stopped,text_LongPause.started,text_LongPause.stopped,key_respPause.keys,key_respPause.started,key_respPause.stopped,key_respPause.rt,QuestImageLeft.started,QuestImageLeft.stopped,QuestImageRight.started,QuestImageRight.stopped,respQuestLeft.keys,respQuestLeft.rt,respQuestLeft.started,respQuestLeft.stopped,respQuestRight.keys,respQuestRight.rt,respQuestRight.started,respQuestRight.stopped,RespInclusionLeft,RespInclusionRight,EndText.started,EndText.stopped,participant,session,date,expName,psychopyVersion,frameRate,
,,,,,,,,,,,,,,,,,,"['v', 't']","[54.366153220353, 56.62997123092384]",21.412732625954504,None,,,,,,,,,,,,,,,,,,,,,,,,,,,,,,,,,,,,,,,,,,,,,,,,,,,,,,,,,,,,,,,,,,,,,,,,,,,,,,,,,,,,,,,,,,,,,,,,,,,,,,,,,,,,,,,,,,,,,,25_26Exp,001,2021_May_04_1510,ComputerHuman,2020.1.3,59.99784432150528,
,,,,,,,,,,,,,,,,,,,,,,v,6.1906464573102085,t,5.277459582784218,6.1906464573102085,5.277459582784218,7,False,False,False,138.6244929803197,None,138.6244929803197,None,139.62418693996858,None,"['space', 'space']","[97.38075750440464, 112.52847650931801]",140.60744646860235,None,,,,,,,,,,,,,,,,,,,,,,,,,,,,,,,,,,,,,,,,,,,,,,,,,,,,,,,,,,,,,,,,,,,,,,,,,,,,,,,,,,,,,,,,,,,,,,,,,,25_26Exp,001,2021_May_04_1510,ComputerHuman,2020.1.3,59.99784432150528,
Human.xlsx,h,Sychronize.jpg,Number10.jpg,10,Human,,,,,0,0,0,4,0,0,0,9,,,,,,,,,,,,,,,,,,,,,,,,,253.22253881323059,None,253.22253881323059,None,256.253309662791,None,256.253309662791,None,256.70331376899276,None,256.70331376899276,None,v,5.696484000569853,256.70331376899276,None,t,6.439476189804054,256.70331376899276,None,5.696484000569853,6.439476189804054,9.343220312148857,False,False,False,263.21953037883554,None,263.21953037883554,None,263.21953037883554,None,263.21953037883554,None,263.21953037883554,None,263.21953037883554,None,263.21953037883554,None,263.21953037883554,None,264.22168420998605,None,264.22168420998605,None,265.23436146637596,None,265.23436146637596,None,h,,,,,,,,,,,,,,,,,,,,,,,,,,,,,,,,,,,,,,,,,,,,,,,25_26Exp,001,2021_May_04_1510,ComputerHuman,2020.1.3,59.99784432150528,
Human.xlsx,h,Sychronize.jpg,Number9.jpg,9,Human,,,,,0,0,0,4,0,1,1,6,,,,,,,,,,,,,,,,,,,,,,,,,,,,,266.2853008241916,None,266.2853008241916,None,266.7343922628893,None,266.7343922628893,None,v,6.237230674867305,266.7343922628893,None,t,5.188720071242642,266.7343922628893,None,6.237230674867305,5.188720071242642,8.574535036136847,False,False,False,273.06628179579593,None,273.06628179579593,None,273.06628179579593,None,273.06628179579593,None,273.06628179579593,None,273.06628179579593,None,273.06628179579593,None,273.06628179579593,None,274.05173397201884,None,274.05173397201884,None,275.049364565275,None,275.049364565275,None,h,,,,,,,,,,,,,,,,,,,,,,,,,,,,,,,,,,,,,,,,,,,,,,,25_26Exp,001,2021_May_04_1510,ComputerHuman,2020.1.3,59.99784432150528,
Human.xlsx,h,Sychronize.jpg,Number6.jpg,6,Human,,,,,0,0,0,4,0,2,2,1,,,,,,,,,,,,,,,,,,,,,,,,,,,,,276.0991192197191,None,276.0991192197191,None,276.53266002317446,None,276.53266002317446,None,v,6.470809075732404,276.53266002317446,None,t,4.302511263183305,276.53266002317446,None,6.470809075732404,4.302511263183305,6.180659479865565,False,False,False,283.0826511050175,None,283.0826511050175,None,283.0826511050175,None,283.0826511050175,None,283.0826511050175,None,283.0826511050175,None,283.0826511050175,None,283.0826511050175,None,284.0831929311737,None,284.0831929311737,None,285.08085528333436,None,285.08085528333436,None,h,,,,,,,,,,,,,,,,,,,,,,,,,,,,,,,,,,,,,,,,,,,,,,,25_26Exp,001,2021_May_04_1510,ComputerHuman,2020.1.3,59.99784432150528,
Human.xlsx,h,Sychronize.jpg,Number8.jpg,8,Human,,,,,0,0,0,4,0,3,3,5,,,,,,,,,,,,,,,,,,,,,,,,,,,,,286.1309756463738,None,286.1309756463738,None,286.58098809329795,None,286.58098809329795,None,v,5.906571077711078,286.58098809329795,None,t,6.137478843437066,286.58098809329795,None,5.906571077711078,6.137478843437066,7.938118809691415,True,False,False,292.79749656426407,None,292.79749656426407,None,292.79749656426407,None,292.79749656426407,None,292.79749656426407,None,292.79749656426407,None,292.79749656426407,None,292.79749656426407,None,293.78099412428196,None,293.78099412428196,None,294.7790109571429,None,294.7790109571429,None,h,,,,,,,,,,,,,,,,,,,,,,,,,,,,,,,,,,,,,,,,,,,,,,,25_26Exp,001,2021_May_04_1510,ComputerHuman,2020.1.3,59.99784432150528,
Human.xlsx,h,Sychronize.jpg,Number9.jpg,9,Human,,,,,0,0,0,4,0,4,4,7,,,,,,,,,,,,,,,,,,,,,,,,,,,,,295.8457941586714,None,295.8457941586714,None,296.2785756355952,None,296.2785756355952,None,v,5.552578951353098,296.2785756355952,None,t,6.067417738021732,296.2785756355952,None,5.552578951353098,6.067417738021732,9.342493519728967,False,False,False,302.4443510212252,None,302.4443510212252,None,302.4443510212252,None,302.4443510212252,None,302.4443510212252,None,302.4443510212252,None,302.4443510212252,None,302.4443510212252,None,303.4302070808883,None,303.4302070808883,None,304.42727307140035,None,304.42727307140035,None,h,,,,,,,,,,,,,,,,,,,,,,,,,,,,,,,,,,,,,,,,,,,,,,,25_26Exp,001,2021_May_04_1510,ComputerHuman,2020.1.3,59.99784432150528,
Human.xlsx,h,Sychronize.jpg,Number7.jpg,7,Human,,,,,0,0,0,4,0,5,5,3,,,,,,,,,,,,,,,,,,,,,,,,,,,,,305.4610963045468,None,305.4610963045468,None,305.92763685521413,None,305.92763685521413,None,v,5.51540595578922,305.92763685521413,None,t,4.226488786861182,305.92763685521413,None,5.51540595578922,4.226488786861182,7.013509480683178,False,False,False,311.5259390049389,None,311.5259390049389,None,311.5259390049389,None,311.5259390049389,None,311.5259390049389,None,311.5259390049389,None,311.5259390049389,None,311.5259390049389,None,312.49482394018287,None,312.49482394018287,None,313.4922011037984,None,313.4922011037984,None,h,,,,,,,,,,,,,,,,,,,,,,,,,,,,,,,,,,,,,,,,,,,,,,,25_26Exp,001,2021_May_04_1510,ComputerHuman,2020.1.3,59.99784432150528,
Human.xlsx,h,Sychronize.jpg,Number8.jpg,8,Human,,,,,0,0,0,4,0,6,6,4,,,,,,,,,,,,,,,,,,,,,,,,,,,,,314.54237824790926,None,314.54237824790926,None,314.99205931151823,None,314.99205931151823,None,v,5.470842438621958,314.99205931151823,None,t,4.998528824894947,314.99205931151823,None,5.470842438621958,4.998528824894947,8.1345385633204,False,False,False,320.54259286111164,None,320.54259286111164,None,320.54259286111164,None,320.54259286111164,None,320.54259286111164,None,320.54259286111164,None,320.54259286111164,None,320.54259286111164,None,321.54293162275803,None,321.54293162275803,None,322.5406129019427,None,322.5406129019427,None,h,,,,,,,,,,,,,,,,,,,,,,,,,,,,,,,,,,,,,,,,,,,,,,,25_26Exp,001,2021_May_04_1510,ComputerHuman,2020.1.3,59.99784432150528,
Human.xlsx,h,Sychronize.jpg,Number7.jpg,7,Human,,,,,0,0,0,4,0,7,7,2,,,,,,,,,,,,,,,,,,,,,,,,,,,,,323.59129465975616,None,323.59129465975616,None,324.0405314195011,None,324.0405314195011,None,v,5.606408048668754,324.0405314195011,None,t,3.9494773575052022,324.0405314195011,None,5.606408048668754,3.9494773575052022,7.117039892257303,False,False,False,329.72403212332983,None,329.72403212332983,None,329.72403212332983,None,329.72403212332983,None,329.72403212332983,None,329.72403212332983,None,329.72403212332983,None,329.72403212332983,None,330.70757395333567,None,330.70757395333567,None,331.70536879466295,None,331.70536879466295,None,h,,,,,,,,,,,,,,,,,,,,,,,,,,,,,,,,,,,,,,,,,,,,,,,25_26Exp,001,2021_May_04_1510,ComputerHuman,2020.1.3,59.99784432150528,
Human.xlsx,h,Sychronize.jpg,Number10.jpg,10,Human,,,,,0,0,0,4,0,8,8,8,,,,,,,,,,,,,,,,,,,,,,,,,,,,,332.7722382905881,None,332.7722382905881,None,333.20579705867635,None,333.20579705867635,None,v,6.372707744937998,333.20579705867635,None,t,6.892495467138133,333.20579705867635,None,6.372707744937998,6.892495467138133,10.198222827728744,False,False,False,340.1538876106911,None,340.1538876106911,None,340.1538876106911,None,340.1538876106911,None,340.1538876106911,None,340.1538876106911,None,340.1538876106911,None,340.1538876106911,None,341.17226350523356,None,341.17226350523356,None,342.1535969685965,None,342.1535969685965,None,h,,,,,,,,,,,,,,,,,,,,,,,,,,,,,,,,,,,,,,,,,,,,,,,25_26Exp,001,2021_May_04_1510,ComputerHuman,2020.1.3,59.99784432150528,
Human.xlsx,h,Sychronize.jpg,Number6.jpg,6,Human,,,,,0,0,0,4,0,9,9,0,,,,,,,,,,,,,,,,,,,,,,,,,,,,,343.20417350498974,None,343.20417350498974,None,343.6536521456828,None,343.6536521456828,None,v,6.708770526196986,343.6536521456828,None,t,3.896483615613306,343.6536521456828,None,6.708770526196986,3.896483615613306,5.677478838763327,False,False,False,350.4358460507963,None,350.4358460507963,None,350.4358460507963,None,350.4358460507963,None,350.4358460507963,None,350.4358460507963,None,350.4358460507963,None,350.4358460507963,None,351.4367208642527,None,351.4367208642527,None,352.4351216911391,None,352.4351216911391,None,h,,,,,,,,,,,,,,,,,,,,,,,,,,,,,,,,,,,,,,,,,,,,,,,25_26Exp,001,2021_May_04_1510,ComputerHuman,2020.1.3,59.99784432150528,
Human.xlsx,h,,,,,,,,,0,0,0,4,,,,,,,,,,,,,,,,,,,,,,,,,,,,,,,,,,,,,,,,,,,,,,,,,,,,,,,,,,,,,,,,,,,,,,,,,,,,,,,h,353.4355178754513,None,353.4355178754513,None,a,0,11.739098355081296,353.4355178754513,None,o,1,11.762464888766772,353.4355178754513,None,c,h,365.2992420208159,None,365.2992420208159,None,367.2990059142137,None,None,None,None,None,None,None,None,,,,,,,,,,,,,,,,,,25_26Exp,001,2021_May_04_1510,ComputerHuman,2020.1.3,59.99784432150528,
Human.xlsx,h,Sychronize.jpg,Number7.jpg,7,Human,,,,,0,1,1,2,0,0,0,2,,,,,,,,,,,,,,,,,,,,,,,,,372.30044051845925,None,372.30044051845925,None,375.3649479859721,None,375.3649479859721,None,375.8145244697546,None,375.8145244697546,None,v,6.235355616321613,375.8145244697546,None,t,4.302440046246147,375.8145244697546,None,6.235355616321613,4.302440046246147,7.4726548673647395,False,False,False,382.1137623202094,None,382.1137623202094,None,382.1137623202094,None,382.1137623202094,None,382.1137623202094,None,382.1137623202094,None,382.1137623202094,None,382.1137623202094,None,383.1316676055326,None,383.1316676055326,None,384.145869930926,None,384.145869930926,None,h,,,,,,,,,,,,,,,,,,,,,,,,,,,,,,,,,,,,,,,,,,,,,,,25_26Exp,001,2021_May_04_1510,ComputerHuman,2020.1.3,59.99784432150528,
Human.xlsx,h,Sychronize.jpg,Number6.jpg,6,Human,,,,,0,1,1,2,0,1,1,1,,,,,,,,,,,,,,,,,,,,,,,,,,,,,385.19605573655645,None,385.19605573655645,None,385.64617917924716,None,385.64617917924716,None,v,4.703607619057493,385.64617917924716,None,t,3.4585004151113026,385.64617917924716,None,4.703607619057493,3.4585004151113026,5.669479254109389,False,False,False,390.42854856032704,None,390.42854856032704,None,390.42854856032704,None,390.42854856032704,None,390.42854856032704,None,390.42854856032704,None,390.42854856032704,None,390.42854856032704,None,391.4295914714189,None,391.4295914714189,None,392.41102694823235,None,392.41102694823235,None,h,,,,,,,,,,,,,,,,,,,,,,,,,,,,,,,,,,,,,,,,,,,,,,,25_26Exp,001,2021_May_04_1510,ComputerHuman,2020.1.3,59.99784432150528,
Human.xlsx,h,Sychronize.jpg,Number7.jpg,7,Human,,,,,0,1,1,2,0,2,2,3,,,,,,,,,,,,,,,,,,,,,,,,,,,,,393.47807095773305,None,393.47807095773305,None,393.91094578658794,None,393.91094578658794,None,v,4.582676768778583,393.91094578658794,None,t,4.538462278762381,393.91094578658794,None,4.582676768778583,4.538462278762381,7.107677786168224,True,False,False,398.5430852845277,None,398.5430852845277,None,398.5430852845277,None,398.5430852845277,None,398.5430852845277,None,398.5430852845277,None,398.5430852845277,None,398.5430852845277,None,399.54540945889244,None,399.54540945889244,None,400.55953543459646,None,400.55953543459646,None,h,,,,,,,,,,,,,,,,,,,,,,,,,,,,,,,,,,,,,,,,,,,,,,,25_26Exp,001,2021_May_04_1510,ComputerHuman,2020.1.3,59.99784432150528,
Human.xlsx,h,Sychronize.jpg,Number9.jpg,9,Human,,,,,0,1,1,2,0,3,3,7,,,,,,,,,,,,,,,,,,,,,,,,,,,,,401.61004203724065,None,401.61004203724065,None,402.0598873489207,None,402.0598873489207,None,v,4.781758904362732,402.0598873489207,None,t,5.056512243538691,402.0598873489207,None,4.781758904362732,5.056512243538691,9.239125704306783,True,False,False,407.2083897401417,None,407.2083897401417,None,407.2083897401417,None,407.2083897401417,None,407.2083897401417,None,407.2083897401417,None,407.2083897401417,None,407.2083897401417,None,408.1928724677887,None,408.1928724677887,None,409.17470092094413,None,409.17470092094413,None,h,,,,,,,,,,,,,,,,,,,,,,,,,,,,,,,,,,,,,,,,,,,,,,,25_26Exp,001,2021_May_04_1510,ComputerHuman,2020.1.3,59.99784432150528,
Human.xlsx,h,Sychronize.jpg,Number8.jpg,8,Human,,,,,0,1,1,2,0,4,4,4,,,,,,,,,,,,,,,,,,,,,,,,,,,,,410.2261349477551,None,410.2261349477551,None,410.6749386315312,None,410.6749386315312,None,v,4.582480441006055,410.6749386315312,None,t,4.34549677983955,410.6749386315312,None,4.582480441006055,4.34549677983955,8.386340927276422,True,False,False,415.30752115014707,None,415.30752115014707,None,415.30752115014707,None,415.30752115014707,None,415.30752115014707,None,415.30752115014707,None,415.30752115014707,None,415.30752115014707,None,416.308102113539,None,416.308102113539,None,417.3231789315919,None,417.3231789315919,None,h,,,,,,,,,,,,,,,,,,,,,,,,,,,,,,,,,,,,,,,,,,,,,,,25_26Exp,001,2021_May_04_1510,ComputerHuman,2020.1.3,59.99784432150528,
Human.xlsx,h,Sychronize.jpg,Number9.jpg,9,Human,,,,,0,1,1,2,0,5,5,6,,,,,,,,,,,,,,,,,,,,,,,,,,,,,418.3727285967441,None,418.3727285967441,None,418.8230769181416,None,418.8230769181416,None,v,3.854240423246665,418.8230769181416,None,t,4.73750784348681,418.8230769181416,None,3.854240423246665,4.73750784348681,9.098682362656655,False,False,False,423.6392871762034,None,423.6392871762034,None,423.6392871762034,None,423.6392871762034,None,423.6392871762034,None,423.6392871762034,None,423.6392871762034,None,423.6392871762034,None,424.64121548705316,None,424.64121548705316,None,425.6215596124259,None,425.6215596124259,None,h,,,,,,,,,,,,,,,,,,,,,,,,,,,,,,,,,,,,,,,,,,,,,,,25_26Exp,001,2021_May_04_1510,ComputerHuman,2020.1.3,59.99784432150528,
Human.xlsx,h,Sychronize.jpg,Number10.jpg,10,Human,,,,,0,1,1,2,0,6,6,9,,,,,,,,,,,,,,,,,,,,,,,,,,,,,426.6889898615311,None,426.6889898615311,None,427.1214422007188,None,427.1214422007188,None,v,5.191677819709639,427.1214422007188,None,t,5.239696962308926,427.1214422007188,None,5.191677819709639,5.239696962308926,9.952230739119742,True,False,False,432.42053793809646,None,432.42053793809646,None,432.42053793809646,None,432.42053793809646,None,432.42053793809646,None,432.42053793809646,None,432.42053793809646,None,432.42053793809646,None,433.43896098979985,None,433.43896098979985,None,434.43662590833674,None,434.43662590833674,None,h,,,,,,,,,,,,,,,,,,,,,,,,,,,,,,,,,,,,,,,,,,,,,,,25_26Exp,001,2021_May_04_1510,ComputerHuman,2020.1.3,59.99784432150528,
Human.xlsx,h,Sychronize.jpg,Number10.jpg,10,Human,,,,,0,1,1,2,0,7,7,8,,,,,,,,,,,,,,,,,,,,,,,,,,,,,435.4864957289085,None,435.4864957289085,None,435.93663777782626,None,435.93663777782626,None,v,4.84835796840548,435.93663777782626,None,t,5.219435743716531,435.93663777782626,None,4.84835796840548,5.219435743716531,10.66490191463465,False,False,False,441.25201877560767,None,441.25201877560767,None,441.25201877560767,None,441.25201877560767,None,441.25201877560767,None,441.25201877560767,None,441.25201877560767,None,441.25201877560767,None,442.23780008956646,None,442.23780008956646,None,443.21834022191456,None,443.21834022191456,None,h,,,,,,,,,,,,,,,,,,,,,,,,,,,,,,,,,,,,,,,,,,,,,,,25_26Exp,001,2021_May_04_1510,ComputerHuman,2020.1.3,59.99784432150528,
Human.xlsx,h,Sychronize.jpg,Number8.jpg,8,Human,,,,,0,1,1,2,0,8,8,5,,,,,,,,,,,,,,,,,,,,,,,,,,,,,444.26907459043855,None,444.26907459043855,None,444.7182179982524,None,444.7182179982524,None,v,4.70685472643072,444.7182179982524,None,t,4.337483912029938,444.7182179982524,None,4.70685472643072,4.337483912029938,7.612455900679156,False,False,False,449.5007606097197,None,449.5007606097197,None,449.5007606097197,None,449.5007606097197,None,449.5007606097197,None,449.5007606097197,None,449.5007606097197,None,449.5007606097197,None,450.50298277063393,None,450.50298277063393,None,451.5001575113338,None,451.5001575113338,None,h,,,,,,,,,,,,,,,,,,,,,,,,,,,,,,,,,,,,,,,,,,,,,,,25_26Exp,001,2021_May_04_1510,ComputerHuman,2020.1.3,59.99784432150528,
Human.xlsx,h,Sychronize.jpg,Number6.jpg,6,Human,,,,,0,1,1,2,0,9,9,0,,,,,,,,,,,,,,,,,,,,,,,,,,,,,452.5504767685218,None,452.5504767685218,None,453.00039907148516,None,453.00039907148516,None,v,3.7163490348500545,453.00039907148516,None,t,3.399487238053098,453.00039907148516,None,3.7163490348500545,3.399487238053098,5.92847584059777,False,False,False,456.8009823446155,None,456.8009823446155,None,456.8009823446155,None,456.8009823446155,None,456.8009823446155,None,456.8009823446155,None,456.8009823446155,None,456.8009823446155,None,457.80164029929074,None,457.80164029929074,None,458.78214193599706,None,458.78214193599706,None,h,,,,,,,,,,,,,,,,,,,,,,,,,,,,,,,,,,,,,,,,,,,,,,,25_26Exp,001,2021_May_04_1510,ComputerHuman,2020.1.3,59.99784432150528,
Human.xlsx,h,,,,,,,,,0,1,1,2,,,,,,,,,,,,,,,,,,,,,,,,,,,,,,,,,,,,,,,,,,,,,,,,,,,,,,,,,,,,,,,,,,,,,,,,,,,,,,,h,459.78291601919136,None,459.78291601919136,None,q,1,5.381770581373985,459.78291601919136,None,l,0,3.877494036383723,459.78291601919136,None,h,c,465.2314114170374,None,465.2314114170374,None,467.2470951830403,None,None,None,None,None,None,None,None,,,,,,,,,,,,,,,,,,25_26Exp,001,2021_May_04_1510,ComputerHuman,2020.1.3,59.99784432150528,
Computer.xlsx,c,Sychronize.jpg,Number9.jpg,9,Computer,,,,,0,2,2,5,0,0,0,6,,,,,,,,,,,,,,,,,,,,,,,,,472.2492637708533,None,472.2492637708533,None,475.3290004350008,None,475.3290004350008,None,475.762936460377,None,475.762936460377,None,v,5.429459623846242,475.762936460377,None,t,4.708458069905646,475.762936460377,None,5.429459623846242,4.708458069905646,8.775984562383977,False,False,False,481.26155575002986,None,481.26155575002986,None,481.26155575002986,None,481.26155575002986,None,481.26155575002986,None,481.26155575002986,None,481.26155575002986,None,481.26155575002986,None,482.26096387953953,None,482.26096387953953,None,483.27764083309694,None,483.27764083309694,None,c,,,,,,,,,,,,,,,,,,,,,,,,,,,,,,,,,,,,,,,,,,,,,,,25_26Exp,001,2021_May_04_1510,ComputerHuman,2020.1.3,59.99784432150528,
Computer.xlsx,c,Sychronize.jpg,Number7.jpg,7,Computer,,,,,0,2,2,5,0,1,1,3,,,,,,,,,,,,,,,,,,,,,,,,,,,,,484.327702169486,None,484.327702169486,None,484.7776016958612,None,484.7776016958612,None,v,3.6786932397803866,484.7776016958612,None,t,3.8855858202587115,484.7776016958612,None,3.6786932397803866,3.8855858202587115,6.8506671464091875,False,False,False,488.74354267691,None,488.74354267691,None,488.74354267691,None,488.74354267691,None,488.74354267691,None,488.74354267691,None,488.74354267691,None,488.74354267691,None,489.7596184568638,None,489.7596184568638,None,490.7428632288347,None,490.7428632288347,None,c,,,,,,,,,,,,,,,,,,,,,,,,,,,,,,,,,,,,,,,,,,,,,,,25_26Exp,001,2021_May_04_1510,ComputerHuman,2020.1.3,59.99784432150528,
Computer.xlsx,c,Sychronize.jpg,Number10.jpg,10,Computer,,,,,0,2,2,5,0,2,2,9,,,,,,,,,,,,,,,,,,,,,,,,,,,,,491.77673265675094,None,491.77673265675094,None,492.22621803418156,None,492.22621803418156,None,v,6.257930102180353,492.22621803418156,None,t,4.961461371548467,492.22621803418156,None,6.257930102180353,4.961461371548467,9.360063662125402,False,False,False,498.5429280939909,None,498.5429280939909,None,498.5429280939909,None,498.5429280939909,None,498.5429280939909,None,498.5429280939909,None,498.5429280939909,None,498.5429280939909,None,499.55786857331304,None,499.55786857331304,None,500.55774378327465,None,500.55774378327465,None,c,,,,,,,,,,,,,,,,,,,,,,,,,,,,,,,,,,,,,,,,,,,,,,,25_26Exp,001,2021_May_04_1510,ComputerHuman,2020.1.3,59.99784432150528,
Computer.xlsx,c,Sychronize.jpg,Number10.jpg,10,Computer,,,,,0,2,2,5,0,3,3,8,,,,,,,,,,,,,,,,,,,,,,,,,,,,,501.5914502463079,None,501.5914502463079,None,502.0580671466646,None,502.0580671466646,None,v,4.3419397825509805,502.0580671466646,None,t,5.73344623249568,502.0580671466646,None,4.3419397825509805,5.73344623249568,9.403402060431011,False,False,False,507.8733236752046,None,507.8733236752046,None,507.8733236752046,None,507.8733236752046,None,507.8733236752046,None,507.8733236752046,None,507.8733236752046,None,507.8733236752046,None,508.87266507893537,None,508.87266507893537,None,509.85605549275056,None,509.85605549275056,None,c,,,,,,,,,,,,,,,,,,,,,,,,,,,,,,,,,,,,,,,,,,,,,,,25_26Exp,001,2021_May_04_1510,ComputerHuman,2020.1.3,59.99784432150528,
Computer.xlsx,c,Sychronize.jpg,Number6.jpg,6,Computer,,,,,0,2,2,5,0,4,4,0,,,,,,,,,,,,,,,,,,,,,,,,,,,,,510.9076473516923,None,510.9076473516923,None,511.35628197544224,None,511.35628197544224,None,v,4.403497200725269,511.35628197544224,None,t,2.9944973688229766,511.35628197544224,None,4.403497200725269,2.9944973688229766,5.6212729566488,False,False,False,515.8226319726834,None,515.8226319726834,None,515.8226319726834,None,515.8226319726834,None,515.8226319726834,None,515.8226319726834,None,515.8226319726834,None,515.8226319726834,None,516.8547947604866,None,516.8547947604866,None,517.8379753730549,None,517.8379753730549,None,c,,,,,,,,,,,,,,,,,,,,,,,,,,,,,,,,,,,,,,,,,,,,,,,25_26Exp,001,2021_May_04_1510,ComputerHuman,2020.1.3,59.99784432150528,
Computer.xlsx,c,Sychronize.jpg,Number9.jpg,9,Computer,,,,,0,2,2,5,0,5,5,7,,,,,,,,,,,,,,,,,,,,,,,,,,,,,518.8715689155392,None,518.8715689155392,None,519.3379622203772,None,519.3379622203772,None,v,5.281870541723492,519.3379622203772,None,t,5.649460291104106,519.3379622203772,None,5.281870541723492,5.649460291104106,9.090929464376536,False,False,False,525.0699250874814,None,525.0699250874814,None,525.0699250874814,None,525.0699250874814,None,525.0699250874814,None,525.0699250874814,None,525.0699250874814,None,525.0699250874814,None,526.0530110649306,None,526.0530110649306,None,527.0361958478602,None,527.0361958478602,None,c,,,,,,,,,,,,,,,,,,,,,,,,,,,,,,,,,,,,,,,,,,,,,,,25_26Exp,001,2021_May_04_1510,ComputerHuman,2020.1.3,59.99784432150528,
Computer.xlsx,c,Sychronize.jpg,Number7.jpg,7,Computer,,,,,0,2,2,5,0,6,6,2,,,,,,,,,,,,,,,,,,,,,,,,,,,,,528.0864082796427,None,528.0864082796427,None,528.536266102406,None,528.536266102406,None,v,5.123339715055181,528.536266102406,None,t,5.282453429897487,528.536266102406,None,5.123339715055181,5.282453429897487,6.710493802185861,False,False,False,533.8855858202587,None,533.8855858202587,None,533.8855858202587,None,533.8855858202587,None,533.8855858202587,None,533.8855858202587,None,533.8855858202587,None,533.8855858202587,None,534.9015358477832,None,534.9015358477832,None,535.8846391482712,None,535.8846391482712,None,c,,,,,,,,,,,,,,,,,,,,,,,,,,,,,,,,,,,,,,,,,,,,,,,25_26Exp,001,2021_May_04_1510,ComputerHuman,2020.1.3,59.99784432150528,
Computer.xlsx,c,Sychronize.jpg,Number8.jpg,8,Computer,,,,,0,2,2,5,0,7,7,5,,,,,,,,,,,,,,,,,,,,,,,,,,,,,536.9341246540205,None,536.9341246540205,None,537.384822323366,None,537.384822323366,None,v,5.790604561220107,537.384822323366,None,t,5.357481114679786,537.384822323366,None,5.790604561220107,5.357481114679786,7.74766397408803,False,False,False,543.2505594699919,None,543.2505594699919,None,543.2505594699919,None,543.2505594699919,None,543.2505594699919,None,543.2505594699919,None,543.2505594699919,None,543.2505594699919,None,544.2497157738458,None,544.2497157738458,None,545.2328764969993,None,545.2328764969993,None,c,,,,,,,,,,,,,,,,,,,,,,,,,,,,,,,,,,,,,,,,,,,,,,,25_26Exp,001,2021_May_04_1510,ComputerHuman,2020.1.3,59.99784432150528,
Computer.xlsx,c,Sychronize.jpg,Number6.jpg,6,Computer,,,,,0,2,2,5,0,8,8,1,,,,,,,,,,,,,,,,,,,,,,,,,,,,,546.299850893548,None,546.299850893548,None,546.7328508332382,None,546.7328508332382,None,v,4.938437128276291,546.7328508332382,None,t,4.34549677983955,546.7328508332382,None,4.938437128276291,4.34549677983955,5.557043030267405,False,False,False,551.7650014307546,None,551.7650014307546,None,551.7650014307546,None,551.7650014307546,None,551.7650014307546,None,551.7650014307546,None,551.7650014307546,None,551.7650014307546,None,552.7647637201674,None,552.7647637201674,None,553.7479902067087,None,553.7479902067087,None,c,,,,,,,,,,,,,,,,,,,,,,,,,,,,,,,,,,,,,,,,,,,,,,,25_26Exp,001,2021_May_04_1510,ComputerHuman,2020.1.3,59.99784432150528,
Computer.xlsx,c,Sychronize.jpg,Number8.jpg,8,Computer,,,,,0,2,2,5,0,9,9,4,,,,,,,,,,,,,,,,,,,,,,,,,,,,,554.7986045971495,None,554.7986045971495,None,555.2481916672334,None,555.2481916672334,None,v,5.015042492772409,555.2481916672334,None,t,6.402405849284378,555.2481916672334,None,5.015042492772409,6.402405849284378,8.320860772517564,False,False,False,561.7301721781732,None,561.7301721781732,None,561.7301721781732,None,561.7301721781732,None,561.7301721781732,None,561.7301721781732,None,561.7301721781732,None,561.7301721781732,None,562.7296030842708,None,562.7296030842708,None,563.7126771922306,None,563.7126771922306,None,c,,,,,,,,,,,,,,,,,,,,,,,,,,,,,,,,,,,,,,,,,,,,,,,25_26Exp,001,2021_May_04_1510,ComputerHuman,2020.1.3,59.99784432150528,
Computer.xlsx,c,,,,,,,,,0,2,2,5,,,,,,,,,,,,,,,,,,,,,,,,,,,,,,,,,,,,,,,,,,,,,,,,,,,,,,,,,,,,,,,,,,,,,,,,,,,,,,,c,564.7132693835179,None,564.7132693835179,None,a,1,5.289895279022858,564.7132693835179,None,l,0,2.533487358673028,564.7132693835179,None,c,c,570.0949523873071,None,570.0949523873071,None,572.0945318224221,None,None,None,None,None,None,None,None,,,,,,,,,,,,,,,,,,25_26Exp,001,2021_May_04_1510,ComputerHuman,2020.1.3,59.99784432150528,
Human.xlsx,h,Sychronize.jpg,Number7.jpg,7,Human,,,,,0,3,3,6,0,0,0,3,,,,,,,,,,,,,,,,,,,,,,,,,577.0967328107336,None,577.0967328107336,None,580.1601492476027,None,580.1601492476027,None,580.5934905153156,None,580.5934905153156,None,v,4.8772845559335565,580.5934905153156,None,t,3.9604704295727515,580.5934905153156,None,4.8772845559335565,3.9604704295727515,6.553961030311775,False,False,False,585.5427526180245,None,585.5427526180245,None,585.5427526180245,None,585.5427526180245,None,585.5427526180245,None,585.5427526180245,None,585.5427526180245,None,585.5427526180245,None,586.5444512382123,None,586.5444512382123,None,587.5417363330848,None,587.5417363330848,None,h,,,,,,,,,,,,,,,,,,,,,,,,,,,,,,,,,,,,,,,,,,,,,,,25_26Exp,001,2021_May_04_1510,ComputerHuman,2020.1.3,59.99784432150528,
Human.xlsx,h,Sychronize.jpg,Number6.jpg,6,Human,,,,,0,3,3,6,0,1,1,0,,,,,,,,,,,,,,,,,,,,,,,,,,,,,588.59191732676,None,588.59191732676,None,589.0421549731877,None,589.0421549731877,None,v,4.76046632337102,589.0421549731877,None,t,2.9354732846663865,589.0421549731877,None,4.76046632337102,2.9354732846663865,5.767625413914393,False,False,False,593.8905886496884,None,593.8905886496884,None,593.8905886496884,None,593.8905886496884,None,593.8905886496884,None,593.8905886496884,None,593.8905886496884,None,593.8905886496884,None,594.8593154320045,None,594.8593154320045,None,595.8568616556463,None,595.8568616556463,None,h,,,,,,,,,,,,,,,,,,,,,,,,,,,,,,,,,,,,,,,,,,,,,,,25_26Exp,001,2021_May_04_1510,ComputerHuman,2020.1.3,59.99784432150528,
Human.xlsx,h,Sychronize.jpg,Number8.jpg,8,Human,,,,,0,3,3,6,0,2,2,5,,,,,,,,,,,,,,,,,,,,,,,,,,,,,596.9240304551854,None,596.9240304551854,None,597.3562877497886,None,597.3562877497886,None,v,4.65417247843925,597.3562877497886,None,t,4.329464628279538,597.3562877497886,None,4.65417247843925,4.329464628279538,8.564523733050269,False,False,False,602.0905555434365,None,602.0905555434365,None,602.0905555434365,None,602.0905555434365,None,602.0905555434365,None,602.0905555434365,None,602.0905555434365,None,602.0905555434365,None,603.0916420829221,None,603.0916420829221,None,604.0887395115417,None,604.0887395115417,None,h,,,,,,,,,,,,,,,,,,,,,,,,,,,,,,,,,,,,,,,,,,,,,,,25_26Exp,001,2021_May_04_1510,ComputerHuman,2020.1.3,59.99784432150528,
Human.xlsx,h,Sychronize.jpg,Number10.jpg,10,Human,,,,,0,3,3,6,0,3,3,9,,,,,,,,,,,,,,,,,,,,,,,,,,,,,605.1389715119419,None,605.1389715119419,None,605.5886134383152,None,605.5886134383152,None,v,6.049756579226141,605.5886134383152,None,t,5.421504499498951,605.5886134383152,None,6.049756579226141,5.421504499498951,9.363925716371316,False,False,False,611.7372797568103,None,611.7372797568103,None,611.7372797568103,None,611.7372797568103,None,611.7372797568103,None,611.7372797568103,None,611.7372797568103,None,611.7372797568103,None,612.7059138287893,None,612.7059138287893,None,613.7035675194306,None,613.7035675194306,None,h,,,,,,,,,,,,,,,,,,,,,,,,,,,,,,,,,,,,,,,,,,,,,,,25_26Exp,001,2021_May_04_1510,ComputerHuman,2020.1.3,59.99784432150528,
Human.xlsx,h,Sychronize.jpg,Number6.jpg,6,Human,,,,,0,3,3,6,0,4,4,1,,,,,,,,,,,,,,,,,,,,,,,,,,,,,614.7700401894499,None,614.7700401894499,None,615.2035726521829,None,615.2035726521829,None,v,5.250667578585535,615.2035726521829,None,t,3.3574875306201193,615.2035726521829,None,5.250667578585535,3.3574875306201193,6.3432076888013,False,False,False,620.5367973422608,None,620.5367973422608,None,620.5367973422608,None,620.5367973422608,None,620.5367973422608,None,620.5367973422608,None,620.5367973422608,None,620.5367973422608,None,621.5383323559718,None,621.5383323559718,None,622.5353406030215,None,622.5353406030215,None,h,,,,,,,,,,,,,,,,,,,,,,,,,,,,,,,,,,,,,,,,,,,,,,,25_26Exp,001,2021_May_04_1510,ComputerHuman,2020.1.3,59.99784432150528,
Human.xlsx,h,Sychronize.jpg,Number7.jpg,7,Human,,,,,0,3,3,6,0,5,5,2,,,,,,,,,,,,,,,,,,,,,,,,,,,,,623.5688183377838,None,623.5688183377838,None,624.0355244197103,None,624.0355244197103,None,v,5.118540912526441,624.0355244197103,None,t,4.425479816093457,624.0355244197103,None,5.118540912526441,4.425479816093457,7.147899209486612,False,False,False,629.2506823352483,None,629.2506823352483,None,629.2506823352483,None,629.2506823352483,None,629.2506823352483,None,629.2506823352483,None,629.2506823352483,None,629.2506823352483,None,630.2198229457122,None,630.2198229457122,None,631.2170804520415,None,631.2170804520415,None,h,,,,,,,,,,,,,,,,,,,,,,,,,,,,,,,,,,,,,,,,,,,,,,,25_26Exp,001,2021_May_04_1510,ComputerHuman,2020.1.3,59.99784432150528,
Human.xlsx,h,Sychronize.jpg,Number10.jpg,10,Human,,,,,0,3,3,6,0,6,6,8,,,,,,,,,,,,,,,,,,,,,,,,,,,,,632.2845722941734,None,632.2845722941734,None,632.7173932291298,None,632.7173932291298,None,v,5.652550849534691,632.7173932291298,None,t,6.223469445367527,632.7173932291298,None,5.652550849534691,6.223469445367527,9.483111990429798,False,False,False,639.0322657636445,None,639.0322657636445,None,639.0322657636445,None,639.0322657636445,None,639.0322657636445,None,639.0322657636445,None,639.0322657636445,None,639.0322657636445,None,640.0176387030049,None,640.0176387030049,None,641.0152741082163,None,641.0152741082163,None,h,,,,,,,,,,,,,,,,,,,,,,,,,,,,,,,,,,,,,,,,,,,,,,,25_26Exp,001,2021_May_04_1510,ComputerHuman,2020.1.3,59.99784432150528,
Human.xlsx,h,Sychronize.jpg,Number8.jpg,8,Human,,,,,0,3,3,6,0,7,7,4,,,,,,,,,,,,,,,,,,,,,,,,,,,,,642.0652395262982,None,642.0652395262982,None,642.4988817016101,None,642.4988817016101,None,v,4.842787328261238,642.4988817016101,None,t,4.286492585097676,642.4988817016101,None,4.842787328261238,4.286492585097676,7.587863047113337,False,False,False,647.3976708853613,None,647.3976708853613,None,647.3976708853613,None,647.3976708853613,None,647.3976708853613,None,647.3976708853613,None,647.3976708853613,None,647.3976708853613,None,648.3995202801457,None,648.3995202801457,None,649.3970094019189,None,649.3970094019189,None,h,,,,,,,,,,,,,,,,,,,,,,,,,,,,,,,,,,,,,,,,,,,,,,,25_26Exp,001,2021_May_04_1510,ComputerHuman,2020.1.3,59.99784432150528,
Human.xlsx,h,Sychronize.jpg,Number9.jpg,9,Human,,,,,0,3,3,6,0,8,8,6,,,,,,,,,,,,,,,,,,,,,,,,,,,,,650.4641599160282,None,650.4641599160282,None,650.9140475729139,None,650.9140475729139,None,v,5.787586823711763,650.9140475729139,None,t,5.106487285531102,650.9140475729139,None,5.787586823711763,5.106487285531102,8.942246158925888,False,False,False,656.7956936850467,None,656.7956936850467,None,656.7956936850467,None,656.7956936850467,None,656.7956936850467,None,656.7956936850467,None,656.7956936850467,None,656.7956936850467,None,657.7815029083458,None,657.7815029083458,None,658.7619763149148,None,658.7619763149148,None,h,,,,,,,,,,,,,,,,,,,,,,,,,,,,,,,,,,,,,,,,,,,,,,,25_26Exp,001,2021_May_04_1510,ComputerHuman,2020.1.3,59.99784432150528,
Human.xlsx,h,Sychronize.jpg,Number9.jpg,9,Human,,,,,0,3,3,6,0,9,9,7,,,,,,,,,,,,,,,,,,,,,,,,,,,,,659.8120049300085,None,659.8120049300085,None,660.261889058127,None,660.261889058127,None,v,5.571643276286977,660.261889058127,None,t,5.342466531247737,660.261889058127,None,5.571643276286977,5.342466531247737,8.425134117285204,True,False,False,665.8944176828447,None,665.8944176828447,None,665.8944176828447,None,665.8944176828447,None,665.8944176828447,None,665.8944176828447,None,665.8944176828447,None,665.8944176828447,None,666.9121259988015,None,666.9121259988015,None,667.9103314603065,None,667.9103314603065,None,h,,,,,,,,,,,,,,,,,,,,,,,,,,,,,,,,,,,,,,,,,,,,,,,25_26Exp,001,2021_May_04_1510,ComputerHuman,2020.1.3,59.99784432150528,
Human.xlsx,h,,,,,,,,,0,3,3,6,,,,,,,,,,,,,,,,,,,,,,,,,,,,,,,,,,,,,,,,,,,,,,,,,,,,,,,,,,,,,,,,,,,,,,,,,,,,,,,h,668.9106836954277,None,668.9106836954277,None,a,0,3.706789604636924,668.9106836954277,None,o,1,6.114511060439554,668.9106836954277,None,c,h,675.1093706090908,None,675.1093706090908,None,677.091939461754,None,None,None,None,None,None,None,None,,,,,,,,,,,,,,,,,,25_26Exp,001,2021_May_04_1510,ComputerHuman,2020.1.3,59.99784432150528,
Human.xlsx,h,Sychronize.jpg,Number9.jpg,9,Human,,,,,0,4,4,0,0,0,0,7,,,,,,,,,,,,,,,,,,,,,,,,,682.093688126276,None,682.093688126276,None,685.1737510409864,None,685.1737510409864,None,685.6237365409613,None,685.6237365409613,None,v,5.485351445960532,685.6237365409613,None,t,5.3483894065127515,685.6237365409613,None,5.485351445960532,5.3483894065127515,9.282422882380994,True,False,False,691.2060514507082,None,691.2060514507082,None,691.2060514507082,None,691.2060514507082,None,691.2060514507082,None,691.2060514507082,None,691.2060514507082,None,691.2060514507082,None,692.2082238880855,None,692.2082238880855,None,693.1889965982684,None,693.1889965982684,None,h,,,,,,,,,,,,,,,,,,,,,,,,,,,,,,,,,,,,,,,,,,,,,,,25_26Exp,001,2021_May_04_1510,ComputerHuman,2020.1.3,59.99784432150528,
Human.xlsx,h,Sychronize.jpg,Number7.jpg,7,Human,,,,,0,4,4,0,0,1,1,3,,,,,,,,,,,,,,,,,,,,,,,,,,,,,694.2555372772547,None,694.2555372772547,None,694.6891326162022,None,694.6891326162022,None,v,4.815815036140975,694.6891326162022,None,t,3.8514575091521692,694.6891326162022,None,4.815815036140975,3.8514575091521692,6.999451171891705,False,False,False,699.5550843760307,None,699.5550843760307,None,699.5550843760307,None,699.5550843760307,None,699.5550843760307,None,699.5550843760307,None,699.5550843760307,None,699.5550843760307,None,700.5731003363235,None,700.5731003363235,None,701.5707745579739,None,701.5707745579739,None,h,,,,,,,,,,,,,,,,,,,,,,,,,,,,,,,,,,,,,,,,,,,,,,,25_26Exp,001,2021_May_04_1510,ComputerHuman,2020.1.3,59.99784432150528,
Human.xlsx,h,Sychronize.jpg,Number7.jpg,7,Human,,,,,0,4,4,0,0,2,2,2,,,,,,,,,,,,,,,,,,,,,,,,,,,,,702.6042859764227,None,702.6042859764227,None,703.070756272544,None,703.070756272544,None,v,5.186120653040007,703.070756272544,None,t,3.497458325259913,703.070756272544,None,5.186120653040007,3.497458325259913,6.71511103748684,False,False,False,708.3527525666968,None,708.3527525666968,None,708.3527525666968,None,708.3527525666968,None,708.3527525666968,None,708.3527525666968,None,708.3527525666968,None,708.3527525666968,None,709.3215451124008,None,709.3215451124008,None,710.3191862919587,None,710.3191862919587,None,h,,,,,,,,,,,,,,,,,,,,,,,,,,,,,,,,,,,,,,,,,,,,,,,25_26Exp,001,2021_May_04_1510,ComputerHuman,2020.1.3,59.99784432150528,
Human.xlsx,h,Sychronize.jpg,Number6.jpg,6,Human,,,,,0,4,4,0,0,3,3,0,,,,,,,,,,,,,,,,,,,,,,,,,,,,,711.3862056000894,None,711.3862056000894,None,711.8189784154938,None,711.8189784154938,None,v,4.769786759808994,711.8189784154938,None,t,3.6254996413490517,711.8189784154938,None,4.769786759808994,3.6254996413490517,6.154689971982264,False,False,False,716.6846546106872,None,716.6846546106872,None,716.6846546106872,None,716.6846546106872,None,716.6846546106872,None,716.6846546106872,None,716.6846546106872,None,716.6846546106872,None,717.6684043171579,None,717.6684043171579,None,718.6675721697043,None,718.6675721697043,None,h,,,,,,,,,,,,,,,,,,,,,,,,,,,,,,,,,,,,,,,,,,,,,,,25_26Exp,001,2021_May_04_1510,ComputerHuman,2020.1.3,59.99784432150528,
Human.xlsx,h,Sychronize.jpg,Number8.jpg,8,Human,,,,,0,4,4,0,0,4,4,5,,,,,,,,,,,,,,,,,,,,,,,,,,,,,719.7174054194165,None,719.7174054194165,None,720.1679346703297,None,720.1679346703297,None,v,5.092662859020038,720.1679346703297,None,t,4.875459220925222,720.1679346703297,None,5.092662859020038,4.875459220925222,7.859109718114183,True,False,False,725.3347831219708,None,725.3347831219708,None,725.3347831219708,None,725.3347831219708,None,725.3347831219708,None,725.3347831219708,None,725.3347831219708,None,725.3347831219708,None,726.3353810876044,None,726.3353810876044,None,727.3160107223193,None,727.3160107223193,None,h,,,,,,,,,,,,,,,,,,,,,,,,,,,,,,,,,,,,,,,,,,,,,,,25_26Exp,001,2021_May_04_1510,ComputerHuman,2020.1.3,59.99784432150528,
Human.xlsx,h,Sychronize.jpg,Number9.jpg,9,Human,,,,,0,4,4,0,0,5,5,6,,,,,,,,,,,,,,,,,,,,,,,,,,,,,728.3832353405389,None,728.3832353405389,None,728.8158079786067,None,728.8158079786067,None,v,5.1766484796146415,728.8158079786067,None,t,5.519477190690623,728.8158079786067,None,5.1766484796146415,5.519477190690623,8.403489914165176,False,False,False,734.4160464591066,None,734.4160464591066,None,734.4160464591066,None,734.4160464591066,None,734.4160464591066,None,734.4160464591066,None,734.4160464591066,None,734.4160464591066,None,735.4175529218833,None,735.4175529218833,None,736.414354575656,None,736.414354575656,None,h,,,,,,,,,,,,,,,,,,,,,,,,,,,,,,,,,,,,,,,,,,,,,,,25_26Exp,001,2021_May_04_1510,ComputerHuman,2020.1.3,59.99784432150528,
Human.xlsx,h,Sychronize.jpg,Number8.jpg,8,Human,,,,,0,4,4,0,0,6,6,4,,,,,,,,,,,,,,,,,,,,,,,,,,,,,737.4646192973519,None,737.4646192973519,None,737.9145595649479,None,737.9145595649479,None,v,5.193761075516704,737.9145595649479,None,t,4.46944440523589,737.9145595649479,None,5.193761075516704,4.46944440523589,8.05313434703033,False,False,False,743.1815948487699,None,743.1815948487699,None,743.1815948487699,None,743.1815948487699,None,743.1815948487699,None,743.1815948487699,None,743.1815948487699,None,743.1815948487699,None,744.1650744441549,None,744.1650744441549,None,745.162698300674,None,745.162698300674,None,h,,,,,,,,,,,,,,,,,,,,,,,,,,,,,,,,,,,,,,,,,,,,,,,25_26Exp,001,2021_May_04_1510,ComputerHuman,2020.1.3,59.99784432150528,
Human.xlsx,h,Sychronize.jpg,Number10.jpg,10,Human,,,,,0,4,4,0,0,7,7,8,,,,,,,,,,,,,,,,,,,,,,,,,,,,,746.2127291613467,None,746.2127291613467,None,746.6625234663015,None,746.6625234663015,None,v,5.357690595129725,746.6625234663015,None,t,5.6364324035780555,746.6625234663015,None,5.357690595129725,5.6364324035780555,9.386719249415444,True,False,False,752.3783146351448,None,752.3783146351448,None,752.3783146351448,None,752.3783146351448,None,752.3783146351448,None,752.3783146351448,None,752.3783146351448,None,752.3783146351448,None,753.3799109210852,None,753.3799109210852,None,754.3777362381288,None,754.3777362381288,None,h,,,,,,,,,,,,,,,,,,,,,,,,,,,,,,,,,,,,,,,,,,,,,,,25_26Exp,001,2021_May_04_1510,ComputerHuman,2020.1.3,59.99784432150528,
Human.xlsx,h,Sychronize.jpg,Number10.jpg,10,Human,,,,,0,4,4,0,0,8,8,9,,,,,,,,,,,,,,,,,,,,,,,,,,,,,755.4275868108798,None,755.4275868108798,None,755.8777227646544,None,755.8777227646544,None,v,5.178299942641615,755.8777227646544,None,t,5.201260347307652,755.8777227646544,None,5.178299942641615,5.201260347307652,9.497002422782657,True,False,False,761.1600536500926,None,761.1600536500926,None,761.1600536500926,None,761.1600536500926,None,761.1600536500926,None,761.1600536500926,None,761.1600536500926,None,761.1600536500926,None,762.1445251498442,None,762.1445251498442,None,763.142725478597,None,763.142725478597,None,h,,,,,,,,,,,,,,,,,,,,,,,,,,,,,,,,,,,,,,,,,,,,,,,25_26Exp,001,2021_May_04_1510,ComputerHuman,2020.1.3,59.99784432150528,
Human.xlsx,h,Sychronize.jpg,Number6.jpg,6,Human,,,,,0,4,4,0,0,9,9,1,,,,,,,,,,,,,,,,,,,,,,,,,,,,,764.2096620210982,None,764.2096620210982,None,764.6425243388694,None,764.6425243388694,None,v,5.293366623508746,764.6425243388694,None,t,2.8045162445191636,764.6425243388694,None,5.293366623508746,2.8045162445191636,6.113930069892479,False,False,False,770.0090115089138,None,770.0090115089138,None,770.0090115089138,None,770.0090115089138,None,770.0090115089138,None,770.0090115089138,None,770.0090115089138,None,770.0090115089138,None,771.009602417013,None,771.009602417013,None,772.007809482503,None,772.007809482503,None,h,,,,,,,,,,,,,,,,,,,,,,,,,,,,,,,,,,,,,,,,,,,,,,,25_26Exp,001,2021_May_04_1510,ComputerHuman,2020.1.3,59.99784432150528,
Human.xlsx,h,,,,,,,,,0,4,4,0,,,,,,,,,,,,,,,,,,,,,,,,,,,,,,,,,,,,,,,,,,,,,,,,,,,,,,,,,,,,,,,,,,,,,,,,,,,,,,,h,773.0084491517484,None,773.0084491517484,None,q,1,4.363350416843787,773.0084491517484,None,l,0,2.002464362659566,773.0084491517484,None,h,c,777.4566831000284,None,777.4566831000284,None,None,None,779.4397065220599,None,779.4397065220599,None,"['space', 'space']",780.4228617916642,None,"[8.660764857072081, 10.82471490769376]",,,,,,,,,,,,,,,,,25_26Exp,001,2021_May_04_1510,ComputerHuman,2020.1.3,59.99784432150528,
Computer.xlsx,c,Sychronize.jpg,Number10.jpg,10,Computer,,,,,0,5,5,1,0,0,0,9,,,,,,,,,,,,,,,,,,,,,,,,,791.3070053085489,None,791.3070053085489,None,794.3710598106784,None,794.3710598106784,None,794.803952283369,None,794.803952283369,None,v,5.091489062746632,794.803952283369,None,t,5.022498777763303,794.803952283369,None,5.091489062746632,5.022498777763303,9.485018418125229,False,False,False,799.9859157279077,None,799.9859157279077,None,799.9859157279077,None,799.9859157279077,None,799.9859157279077,None,799.9859157279077,None,799.9859157279077,None,799.9859157279077,None,801.0023710107287,None,801.0023710107287,None,801.9855548312671,None,801.9855548312671,None,c,,,,,,,,,,,,,,,,,,,,,,,,,,,,,,,,,,,,,,,,,,,,,,,25_26Exp,001,2021_May_04_1510,ComputerHuman,2020.1.3,59.99784432150528,
Computer.xlsx,c,Sychronize.jpg,Number8.jpg,8,Computer,,,,,0,5,5,1,0,1,1,5,,,,,,,,,,,,,,,,,,,,,,,,,,,,,803.0356594752532,None,803.0356594752532,None,803.4857954290276,None,803.4857954290276,None,v,5.24148219769063,803.4857954290276,None,t,3.7565038386571814,803.4857954290276,None,5.24148219769063,3.7565038386571814,8.030085446631018,False,False,False,808.8012928761248,None,808.8012928761248,None,808.8012928761248,None,808.8012928761248,None,808.8012928761248,None,808.8012928761248,None,808.8012928761248,None,808.8012928761248,None,809.8006275431183,None,809.8006275431183,None,810.7840574149664,None,810.7840574149664,None,c,,,,,,,,,,,,,,,,,,,,,,,,,,,,,,,,,,,,,,,,,,,,,,,25_26Exp,001,2021_May_04_1510,ComputerHuman,2020.1.3,59.99784432150528,
Computer.xlsx,c,Sychronize.jpg,Number9.jpg,9,Computer,,,,,0,5,5,1,0,2,2,7,,,,,,,,,,,,,,,,,,,,,,,,,,,,,811.8506834259581,None,811.8506834259581,None,812.284143709363,None,812.284143709363,None,v,4.918974694248391,812.284143709363,None,t,4.9104828764968715,812.284143709363,None,4.918974694248391,4.9104828764968715,9.583123175268828,False,False,False,817.283467790055,None,817.283467790055,None,817.283467790055,None,817.283467790055,None,817.283467790055,None,817.283467790055,None,817.283467790055,None,817.283467790055,None,818.2992410584247,None,818.2992410584247,None,819.2824396356259,None,819.2824396356259,None,c,,,,,,,,,,,,,,,,,,,,,,,,,,,,,,,,,,,,,,,,,,,,,,,25_26Exp,001,2021_May_04_1510,ComputerHuman,2020.1.3,59.99784432150528,
Computer.xlsx,c,Sychronize.jpg,Number9.jpg,9,Computer,,,,,0,5,5,1,0,3,3,6,,,,,,,,,,,,,,,,,,,,,,,,,,,,,820.3329173665388,None,820.3329173665388,None,820.782605808479,None,820.782605808479,None,v,5.316369694177865,820.782605808479,None,t,7.319449987103781,820.782605808479,None,5.316369694177865,7.319449987103781,8.49724573813567,False,False,False,828.181038265951,None,828.181038265951,None,828.181038265951,None,828.181038265951,None,828.181038265951,None,828.181038265951,None,828.181038265951,None,828.181038265951,None,829.1803584970787,None,829.1803584970787,None,830.1637165103957,None,830.1637165103957,None,c,,,,,,,,,,,,,,,,,,,,,,,,,,,,,,,,,,,,,,,,,,,,,,,25_26Exp,001,2021_May_04_1510,ComputerHuman,2020.1.3,59.99784432150528,
Computer.xlsx,c,Sychronize.jpg,Number10.jpg,10,Computer,,,,,0,5,5,1,0,4,4,8,,,,,,,,,,,,,,,,,,,,,,,,,,,,,831.2304118135426,None,831.2304118135426,None,831.6639497298247,None,831.6639497298247,None,v,5.518868959552719,831.6639497298247,None,t,8.034358001768169,831.6639497298247,None,5.518868959552719,8.034358001768169,10.637562474919946,False,False,False,839.7952946135615,None,839.7952946135615,None,839.7952946135615,None,839.7952946135615,None,839.7952946135615,None,839.7952946135615,None,839.7952946135615,None,839.7952946135615,None,840.7950726220279,None,840.7950726220279,None,841.7783032789305,None,841.7783032789305,None,c,,,,,,,,,,,,,,,,,,,,,,,,,,,,,,,,,,,,,,,,,,,,,,,25_26Exp,001,2021_May_04_1510,ComputerHuman,2020.1.3,59.99784432150528,
Computer.xlsx,c,Sychronize.jpg,Number6.jpg,6,Computer,,,,,0,5,5,1,0,5,5,0,,,,,,,,,,,,,,,,,,,,,,,,,,,,,842.8124113798249,None,842.8124113798249,None,843.2616786152862,None,843.2616786152862,None,v,5.341006584038041,843.2616786152862,None,t,3.5565385488939683,843.2616786152862,None,5.341006584038041,3.5565385488939683,5.699638835639793,False,False,False,848.6777561917031,None,848.6777561917031,None,848.6777561917031,None,848.6777561917031,None,848.6777561917031,None,848.6777561917031,None,848.6777561917031,None,848.6777561917031,None,849.6767437563278,None,849.6767437563278,None,850.6766471964265,None,850.6766471964265,None,c,,,,,,,,,,,,,,,,,,,,,,,,,,,,,,,,,,,,,,,,,,,,,,,25_26Exp,001,2021_May_04_1510,ComputerHuman,2020.1.3,59.99784432150528,
Computer.xlsx,c,Sychronize.jpg,Number7.jpg,7,Computer,,,,,0,5,5,1,0,6,6,2,,,,,,,,,,,,,,,,,,,,,,,,,,,,,851.7272660780254,None,851.7272660780254,None,852.1769163451211,None,852.1769163451211,None,v,6.029607318791477,852.1769163451211,None,t,5.492441059964676,852.1769163451211,None,6.029607318791477,5.492441059964676,6.528659743651982,False,False,False,858.2754892475257,None,858.2754892475257,None,858.2754892475257,None,858.2754892475257,None,858.2754892475257,None,858.2754892475257,None,858.2754892475257,None,858.2754892475257,None,859.2749888041842,None,859.2749888041842,None,860.258180965445,None,860.258180965445,None,c,,,,,,,,,,,,,,,,,,,,,,,,,,,,,,,,,,,,,,,,,,,,,,,25_26Exp,001,2021_May_04_1510,ComputerHuman,2020.1.3,59.99784432150528,
Computer.xlsx,c,Sychronize.jpg,Number7.jpg,7,Computer,,,,,0,5,5,1,0,7,7,3,,,,,,,,,,,,,,,,,,,,,,,,,,,,,861.3078416263638,None,861.3078416263638,None,861.758389804301,None,861.758389804301,None,v,4.6480452554762905,861.758389804301,None,t,4.539480167686861,861.758389804301,None,4.6480452554762905,4.539480167686861,6.931322478908591,False,False,False,866.50701807627,None,866.50701807627,None,866.50701807627,None,866.50701807627,None,866.50701807627,None,866.50701807627,None,866.50701807627,None,866.50701807627,None,867.4900597837316,None,867.4900597837316,None,868.4733722438725,None,868.4733722438725,None,c,,,,,,,,,,,,,,,,,,,,,,,,,,,,,,,,,,,,,,,,,,,,,,,25_26Exp,001,2021_May_04_1510,ComputerHuman,2020.1.3,59.99784432150528,
Computer.xlsx,c,Sychronize.jpg,Number8.jpg,8,Computer,,,,,0,5,5,1,0,8,8,4,,,,,,,,,,,,,,,,,,,,,,,,,,,,,869.5235987907236,None,869.5235987907236,None,869.9733132172219,None,869.9733132172219,None,v,4.9769472057939765,869.9733132172219,None,t,5.716435970840848,869.9733132172219,None,4.9769472057939765,5.716435970840848,8.149531360527089,False,False,False,875.7565779427673,None,875.7565779427673,None,875.7565779427673,None,875.7565779427673,None,875.7565779427673,None,875.7565779427673,None,875.7565779427673,None,875.7565779427673,None,876.7550743671636,None,876.7550743671636,None,877.7382706987858,None,877.7382706987858,None,c,,,,,,,,,,,,,,,,,,,,,,,,,,,,,,,,,,,,,,,,,,,,,,,25_26Exp,001,2021_May_04_1510,ComputerHuman,2020.1.3,59.99784432150528,
Computer.xlsx,c,Sychronize.jpg,Number6.jpg,6,Computer,,,,,0,5,5,1,0,9,9,1,,,,,,,,,,,,,,,,,,,,,,,,,,,,,878.80474818076,None,878.80474818076,None,879.2386027236951,None,879.2386027236951,None,v,5.535433634155424,879.2386027236951,None,t,4.574458911676857,879.2386027236951,None,5.535433634155424,4.574458911676857,5.835528780230599,False,False,False,884.8540806663339,None,884.8540806663339,None,884.8540806663339,None,884.8540806663339,None,884.8540806663339,None,884.8540806663339,None,884.8540806663339,None,884.8540806663339,None,885.8698747865096,None,885.8698747865096,None,886.8533194150202,None,886.8533194150202,None,c,,,,,,,,,,,,,,,,,,,,,,,,,,,,,,,,,,,,,,,,,,,,,,,25_26Exp,001,2021_May_04_1510,ComputerHuman,2020.1.3,59.99784432150528,
Computer.xlsx,c,,,,,,,,,0,5,5,1,,,,,,,,,,,,,,,,,,,,,,,,,,,,,,,,,,,,,,,,,,,,,,,,,,,,,,,,,,,,,,,,,,,,,,,,,,,,,,,c,887.8535362738016,None,887.8535362738016,None,a,1,3.7804468445763177,887.8535362738016,None,l,0,2.1354674461606464,887.8535362738016,None,c,c,891.719028331509,None,891.719028331509,None,893.7020110123199,None,None,None,None,None,None,None,None,,,,,,,,,,,,,,,,,,25_26Exp,001,2021_May_04_1510,ComputerHuman,2020.1.3,59.99784432150528,
Human.xlsx,h,Sychronize.jpg,Number8.jpg,8,Human,,,,,0,6,6,8,0,0,0,5,,,,,,,,,,,,,,,,,,,,,,,,,898.7053626995198,None,898.7053626995198,None,901.8005771779872,None,901.8005771779872,None,902.2344060571609,None,902.2344060571609,None,v,5.7793538891505705,902.2344060571609,None,t,3.7184845805707027,902.2344060571609,None,5.7793538891505705,3.7184845805707027,7.5152985694659895,False,False,False,908.0994076162344,None,908.0994076162344,None,908.0994076162344,None,908.0994076162344,None,908.0994076162344,None,908.0994076162344,None,908.0994076162344,None,908.0994076162344,None,909.1018591470136,None,909.1018591470136,None,910.0822558830964,None,910.0822558830964,None,h,,,,,,,,,,,,,,,,,,,,,,,,,,,,,,,,,,,,,,,,,,,,,,,25_26Exp,001,2021_May_04_1510,ComputerHuman,2020.1.3,59.99784432150528,
Human.xlsx,h,Sychronize.jpg,Number9.jpg,9,Human,,,,,0,6,6,8,0,1,1,6,,,,,,,,,,,,,,,,,,,,,,,,,,,,,911.1492026911019,None,911.1492026911019,None,911.5824291134838,None,911.5824291134838,None,v,5.259174152999776,911.5824291134838,None,t,4.114541536155684,911.5824291134838,None,5.259174152999776,4.114541536155684,8.991522170583082,False,False,False,916.9158081069254,None,916.9158081069254,None,916.9158081069254,None,916.9158081069254,None,916.9158081069254,None,916.9158081069254,None,916.9158081069254,None,916.9158081069254,None,917.9162893024461,None,917.9162893024461,None,918.9141085243466,None,918.9141085243466,None,h,,,,,,,,,,,,,,,,,,,,,,,,,,,,,,,,,,,,,,,,,,,,,,,25_26Exp,001,2021_May_04_1510,ComputerHuman,2020.1.3,59.99784432150528,
Human.xlsx,h,Sychronize.jpg,Number6.jpg,6,Human,,,,,0,6,6,8,0,2,2,1,,,,,,,,,,,,,,,,,,,,,,,,,,,,,919.9640255020795,None,919.9640255020795,None,920.414028966687,None,920.414028966687,None,v,4.539671362707168,920.414028966687,None,t,3.2904890742952375,920.414028966687,None,4.539671362707168,3.2904890742952375,6.069352630385195,False,False,False,925.0462675909043,None,925.0462675909043,None,925.0462675909043,None,925.0462675909043,None,925.0462675909043,None,925.0462675909043,None,925.0462675909043,None,925.0462675909043,None,926.0151278247781,None,926.0151278247781,None,927.0125463712084,None,927.0125463712084,None,h,,,,,,,,,,,,,,,,,,,,,,,,,,,,,,,,,,,,,,,,,,,,,,,25_26Exp,001,2021_May_04_1510,ComputerHuman,2020.1.3,59.99784432150528,
Human.xlsx,h,Sychronize.jpg,Number10.jpg,10,Human,,,,,0,6,6,8,0,3,3,9,,,,,,,,,,,,,,,,,,,,,,,,,,,,,928.07972992741,None,928.07972992741,None,928.5129258740756,None,928.5129258740756,None,v,5.3484205238230516,928.5129258740756,None,t,6.231454403837233,928.5129258740756,None,5.3484205238230516,6.231454403837233,10.62699794326272,False,False,False,934.811968359149,None,934.811968359149,None,934.811968359149,None,934.811968359149,None,934.811968359149,None,934.811968359149,None,934.811968359149,None,934.811968359149,None,935.8134337599079,None,935.8134337599079,None,936.8107958460637,None,936.8107958460637,None,h,,,,,,,,,,,,,,,,,,,,,,,,,,,,,,,,,,,,,,,,,,,,,,,25_26Exp,001,2021_May_04_1510,ComputerHuman,2020.1.3,59.99784432150528,
Human.xlsx,h,Sychronize.jpg,Number8.jpg,8,Human,,,,,0,6,6,8,0,4,4,4,,,,,,,,,,,,,,,,,,,,,,,,,,,,,937.8447268670066,None,937.8447268670066,None,938.3105844408315,None,938.3105844408315,None,v,5.486565341860569,938.3105844408315,None,t,3.773494531694041,938.3105844408315,None,5.486565341860569,3.773494531694041,7.650746019262135,False,False,False,943.8928021490833,None,943.8928021490833,None,943.8928021490833,None,943.8928021490833,None,943.8928021490833,None,943.8928021490833,None,943.8928021490833,None,943.8928021490833,None,944.8607795495752,None,944.8607795495752,None,945.8589343251522,None,945.8589343251522,None,h,,,,,,,,,,,,,,,,,,,,,,,,,,,,,,,,,,,,,,,,,,,,,,,25_26Exp,001,2021_May_04_1510,ComputerHuman,2020.1.3,59.99784432150528,
Human.xlsx,h,Sychronize.jpg,Number10.jpg,10,Human,,,,,0,6,6,8,0,5,5,8,,,,,,,,,,,,,,,,,,,,,,,,,,,,,946.9100603868299,None,946.9100603868299,None,947.359281106724,None,947.359281106724,None,v,6.033749770630038,947.359281106724,None,t,4.689643645845308,947.359281106724,None,6.033749770630038,4.689643645845308,9.435618856185188,False,False,False,953.4910378938264,None,953.4910378938264,None,953.4910378938264,None,953.4910378938264,None,953.4910378938264,None,953.4910378938264,None,953.4910378938264,None,953.4910378938264,None,954.4760326135076,None,954.4760326135076,None,955.4740536167296,None,955.4740536167296,None,h,,,,,,,,,,,,,,,,,,,,,,,,,,,,,,,,,,,,,,,,,,,,,,,25_26Exp,001,2021_May_04_1510,ComputerHuman,2020.1.3,59.99784432150528,
Human.xlsx,h,Sychronize.jpg,Number9.jpg,9,Human,,,,,0,6,6,8,0,6,6,7,,,,,,,,,,,,,,,,,,,,,,,,,,,,,956.5244774537443,None,956.5244774537443,None,956.9741707076398,None,956.9741707076398,None,v,5.294746371464953,956.9741707076398,None,t,4.466462596992869,956.9741707076398,None,5.294746371464953,4.466462596992869,9.241648773858982,False,False,False,962.3399620689611,None,962.3399620689611,None,962.3399620689611,None,962.3399620689611,None,962.3399620689611,None,962.3399620689611,None,962.3399620689611,None,962.3399620689611,None,963.3243953938681,None,963.3243953938681,None,964.3223586536278,None,964.3223586536278,None,h,,,,,,,,,,,,,,,,,,,,,,,,,,,,,,,,,,,,,,,,,,,,,,,25_26Exp,001,2021_May_04_1510,ComputerHuman,2020.1.3,59.99784432150528,
Human.xlsx,h,Sychronize.jpg,Number6.jpg,6,Human,,,,,0,6,6,8,0,7,7,0,,,,,,,,,,,,,,,,,,,,,,,,,,,,,965.3890709590162,None,965.3890709590162,None,965.8222851911116,None,965.8222851911116,None,v,5.966472862497312,965.8222851911116,None,t,2.805851401690461,965.8222851911116,None,5.966472862497312,2.805851401690461,5.828567775700119,False,False,False,971.88766650969,None,971.88766650969,None,971.88766650969,None,971.88766650969,None,971.88766650969,None,971.88766650969,None,971.88766650969,None,971.88766650969,None,972.8735286644965,None,972.8735286644965,None,973.870633471447,None,973.870633471447,None,h,,,,,,,,,,,,,,,,,,,,,,,,,,,,,,,,,,,,,,,,,,,,,,,25_26Exp,001,2021_May_04_1510,ComputerHuman,2020.1.3,59.99784432150528,
Human.xlsx,h,Sychronize.jpg,Number7.jpg,7,Human,,,,,0,6,6,8,0,8,8,3,,,,,,,,,,,,,,,,,,,,,,,,,,,,,974.9210611580259,None,974.9210611580259,None,975.3709074320968,None,975.3709074320968,None,v,5.037696215493497,975.3709074320968,None,t,3.3774994899326884,975.3709074320968,None,5.037696215493497,3.3774994899326884,6.88600676166371,False,False,False,980.4696927021246,None,980.4696927021246,None,980.4696927021246,None,980.4696927021246,None,980.4696927021246,None,980.4696927021246,None,980.4696927021246,None,980.4696927021246,None,981.4710916979016,None,981.4710916979016,None,982.4689991389807,None,982.4689991389807,None,h,,,,,,,,,,,,,,,,,,,,,,,,,,,,,,,,,,,,,,,,,,,,,,,25_26Exp,001,2021_May_04_1510,ComputerHuman,2020.1.3,59.99784432150528,
Human.xlsx,h,Sychronize.jpg,Number7.jpg,7,Human,,,,,0,6,6,8,0,9,9,2,,,,,,,,,,,,,,,,,,,,,,,,,,,,,983.5361990558301,None,983.5361990558301,None,983.9860302524417,None,983.9860302524417,None,v,2.9825688526630074,983.9860302524417,None,t,4.629462446859861,983.9860302524417,None,2.9825688526630074,4.629462446859861,7.355579288365439,False,False,False,988.6846671217706,None,988.6846671217706,None,988.6846671217706,None,988.6846671217706,None,988.6846671217706,None,988.6846671217706,None,988.6846671217706,None,988.6846671217706,None,989.6862464054695,None,989.6862464054695,None,990.6842898644825,None,990.6842898644825,None,h,,,,,,,,,,,,,,,,,,,,,,,,,,,,,,,,,,,,,,,,,,,,,,,25_26Exp,001,2021_May_04_1510,ComputerHuman,2020.1.3,59.99784432150528,
Human.xlsx,h,,,,,,,,,0,6,6,8,,,,,,,,,,,,,,,,,,,,,,,,,,,,,,,,,,,,,,,,,,,,,,,,,,,,,,,,,,,,,,,,,,,,,,,,,,,,,,,h,991.6846372876485,None,991.6846372876485,None,a,0,4.223969247115065,991.6846372876485,None,l,0,5.231406925879355,991.6846372876485,None,c,c,996.9831148491805,None,996.9831148491805,None,998.9826076691018,None,None,None,None,None,None,None,None,,,,,,,,,,,,,,,,,,25_26Exp,001,2021_May_04_1510,ComputerHuman,2020.1.3,59.99784432150528,
Computer.xlsx,c,Sychronize.jpg,Number9.jpg,9,Computer,,,,,0,7,7,7,0,0,0,7,,,,,,,,,,,,,,,,,,,,,,,,,1004.0006114391083,None,1004.0006114391083,None,1007.0816248753704,None,1007.0816248753704,None,1007.5148727911521,None,1007.5148727911521,None,v,5.221285138501116,1007.5148727911521,None,t,4.324488425002301,1007.5148727911521,None,5.221285138501116,4.324488425002301,8.480589741469188,False,False,False,1012.8301325276623,None,1012.8301325276623,None,1012.8301325276623,None,1012.8301325276623,None,1012.8301325276623,None,1012.8301325276623,None,1012.8301325276623,None,1012.8301325276623,None,1013.8297546287802,None,1013.8297546287802,None,1014.8130484826943,None,1014.8130484826943,None,c,,,,,,,,,,,,,,,,,,,,,,,,,,,,,,,,,,,,,,,,,,,,,,,25_26Exp,001,2021_May_04_1510,ComputerHuman,2020.1.3,59.99784432150528,
Computer.xlsx,c,Sychronize.jpg,Number10.jpg,10,Computer,,,,,0,7,7,7,0,1,1,8,,,,,,,,,,,,,,,,,,,,,,,,,,,,,1015.8967072111318,None,1015.8967072111318,None,1016.3131726311385,None,1016.3131726311385,None,v,5.223189710371571,1016.3131726311385,None,t,4.486430607114926,1016.3131726311385,None,5.223189710371571,4.486430607114926,9.925528716802694,False,False,False,1021.613124896543,None,1021.613124896543,None,1021.613124896543,None,1021.613124896543,None,1021.613124896543,None,1021.613124896543,None,1021.613124896543,None,1021.613124896543,None,1022.6282710067508,None,1022.6282710067508,None,1023.6114846614116,None,1023.6114846614116,None,c,,,,,,,,,,,,,,,,,,,,,,,,,,,,,,,,,,,,,,,,,,,,,,,25_26Exp,001,2021_May_04_1510,ComputerHuman,2020.1.3,59.99784432150528,
Computer.xlsx,c,Sychronize.jpg,Number8.jpg,8,Computer,,,,,0,7,7,7,0,2,2,5,,,,,,,,,,,,,,,,,,,,,,,,,,,,,1024.6619938304318,None,1024.6619938304318,None,1025.1115950155843,None,1025.1115950155843,None,v,5.348320435154847,1025.1115950155843,None,t,4.307416249523612,1025.1115950155843,None,5.348320435154847,4.307416249523612,7.994910490402862,False,False,False,1030.527132049033,None,1030.527132049033,None,1030.527132049033,None,1030.527132049033,None,1030.527132049033,None,1030.527132049033,None,1030.527132049033,None,1030.527132049033,None,1031.5263653441702,None,1031.5263653441702,None,1032.5097820633407,None,1032.5097820633407,None,c,,,,,,,,,,,,,,,,,,,,,,,,,,,,,,,,,,,,,,,,,,,,,,,25_26Exp,001,2021_May_04_1510,ComputerHuman,2020.1.3,59.99784432150528,
Computer.xlsx,c,Sychronize.jpg,Number6.jpg,6,Computer,,,,,0,7,7,7,0,3,3,1,,,,,,,,,,,,,,,,,,,,,,,,,,,,,1033.5763480852909,None,1033.5763480852909,None,1034.0264554881312,None,1034.0264554881312,None,v,5.009236066823178,1034.0264554881312,None,t,3.2964866952647753,1034.0264554881312,None,5.009236066823178,3.2964866952647753,6.432190781276787,False,False,False,1039.108697576956,None,1039.108697576956,None,1039.108697576956,None,1039.108697576956,None,1039.108697576956,None,1039.108697576956,None,1039.108697576956,None,1039.108697576956,None,1040.1250222953925,None,1040.1250222953925,None,1041.1081916800654,None,1041.1081916800654,None,c,,,,,,,,,,,,,,,,,,,,,,,,,,,,,,,,,,,,,,,,,,,,,,,25_26Exp,001,2021_May_04_1510,ComputerHuman,2020.1.3,59.99784432150528,
Computer.xlsx,c,Sychronize.jpg,Number7.jpg,7,Computer,,,,,0,7,7,7,0,4,4,2,,,,,,,,,,,,,,,,,,,,,,,,,,,,,1042.1581208480845,None,1042.1581208480845,None,1042.5919324042197,None,1042.5919324042197,None,v,4.935592941952336,1042.5919324042197,None,t,4.406494086427756,1042.5919324042197,None,4.935592941952336,4.406494086427756,7.042856636592825,False,False,False,1047.608025186415,None,1047.608025186415,None,1047.608025186415,None,1047.608025186415,None,1047.608025186415,None,1047.608025186415,None,1047.608025186415,None,1047.608025186415,None,1048.6067859475509,None,1048.6067859475509,None,1049.5900406642295,None,1049.5900406642295,None,c,,,,,,,,,,,,,,,,,,,,,,,,,,,,,,,,,,,,,,,,,,,,,,,25_26Exp,001,2021_May_04_1510,ComputerHuman,2020.1.3,59.99784432150528,
Computer.xlsx,c,Sychronize.jpg,Number7.jpg,7,Computer,,,,,0,7,7,7,0,5,5,3,,,,,,,,,,,,,,,,,,,,,,,,,,,,,1050.657033667005,None,1050.657033667005,None,1051.1068388790582,None,1051.1068388790582,None,v,5.5086166077896905,1051.1068388790582,None,t,4.703518758284417,1051.1068388790582,None,5.5086166077896905,4.703518758284417,7.460917092886044,False,False,False,1056.6887932129616,None,1056.6887932129616,None,1056.6887932129616,None,1056.6887932129616,None,1056.6887932129616,None,1056.6887932129616,None,1056.6887932129616,None,1056.6887932129616,None,1057.7050056524433,None,1057.7050056524433,None,1058.6716135704835,None,1058.6716135704835,None,c,,,,,,,,,,,,,,,,,,,,,,,,,,,,,,,,,,,,,,,,,,,,,,,25_26Exp,001,2021_May_04_1510,ComputerHuman,2020.1.3,59.99784432150528,
Computer.xlsx,c,Sychronize.jpg,Number9.jpg,9,Computer,,,,,0,7,7,7,0,6,6,6,,,,,,,,,,,,,,,,,,,,,,,,,,,,,1059.7385844382652,None,1059.7385844382652,None,1060.1719940357418,None,1060.1719940357418,None,v,4.919262449169537,1060.1719940357418,None,t,5.462475090111866,1060.1719940357418,None,4.919262449169537,5.462475090111866,9.546125036601579,False,False,False,1065.7203910772234,None,1065.7203910772234,None,1065.7203910772234,None,1065.7203910772234,None,1065.7203910772234,None,1065.7203910772234,None,1065.7203910772234,None,1065.7203910772234,None,1066.7202255459645,None,1066.7202255459645,None,1067.7033397535508,None,1067.7033397535508,None,c,,,,,,,,,,,,,,,,,,,,,,,,,,,,,,,,,,,,,,,,,,,,,,,25_26Exp,001,2021_May_04_1510,ComputerHuman,2020.1.3,59.99784432150528,
Computer.xlsx,c,Sychronize.jpg,Number8.jpg,8,Computer,,,,,0,7,7,7,0,7,7,4,,,,,,,,,,,,,,,,,,,,,,,,,,,,,1068.7535438446112,None,1068.7535438446112,None,1069.203319222542,None,1069.203319222542,None,v,5.071886761220412,1069.203319222542,None,t,6.379469504394365,1069.203319222542,None,5.071886761220412,6.379469504394365,7.832629472629234,False,False,False,1075.6522223533925,None,1075.6522223533925,None,1075.6522223533925,None,1075.6522223533925,None,1075.6522223533925,None,1075.6522223533925,None,1075.6522223533925,None,1075.6522223533925,None,1076.6516616002125,None,1076.6516616002125,None,1077.6346782855069,None,1077.6346782855069,None,c,,,,,,,,,,,,,,,,,,,,,,,,,,,,,,,,,,,,,,,,,,,,,,,25_26Exp,001,2021_May_04_1510,ComputerHuman,2020.1.3,59.99784432150528,
Computer.xlsx,c,Sychronize.jpg,Number10.jpg,10,Computer,,,,,0,7,7,7,0,8,8,9,,,,,,,,,,,,,,,,,,,,,,,,,,,,,1078.6851345230198,None,1078.6851345230198,None,1079.1350635627202,None,1079.1350635627202,None,v,4.9119168391487165,1079.1350635627202,None,t,7.515415579699493,1079.1350635627202,None,4.9119168391487165,7.515415579699493,10.660416410277552,False,False,False,1086.7171176644952,None,1086.7171176644952,None,1086.7171176644952,None,1086.7171176644952,None,1086.7171176644952,None,1086.7171176644952,None,1086.7171176644952,None,1086.7171176644952,None,1087.733266586168,None,1087.733266586168,None,1088.7161203065793,None,1088.7161203065793,None,c,,,,,,,,,,,,,,,,,,,,,,,,,,,,,,,,,,,,,,,,,,,,,,,25_26Exp,001,2021_May_04_1510,ComputerHuman,2020.1.3,59.99784432150528,
Computer.xlsx,c,Sychronize.jpg,Number6.jpg,6,Computer,,,,,0,7,7,7,0,9,9,0,,,,,,,,,,,,,,,,,,,,,,,,,,,,,1089.7665836016265,None,1089.7665836016265,None,1090.2164600306169,None,1090.2164600306169,None,v,5.846361648588754,1090.2164600306169,None,t,4.885441461602568,1090.2164600306169,None,5.846361648588754,4.885441461602568,5.777944676044702,False,True,False,1096.1328619328149,None,1096.1328619328149,None,1096.1328619328149,None,1096.1328619328149,None,1096.1328619328149,None,1096.1328619328149,None,1096.1328619328149,None,1096.1328619328149,None,1097.1310558456273,None,1097.1310558456273,None,1098.1143423212102,None,1098.1143423212102,None,c,,,,,,,,,,,,,,,,,,,,,,,,,,,,,,,,,,,,,,,,,,,,,,,25_26Exp,001,2021_May_04_1510,ComputerHuman,2020.1.3,59.99784432150528,
Computer.xlsx,c,,,,,,,,,0,7,7,7,,,,,,,,,,,,,,,,,,,,,,,,,,,,,,,,,,,,,,,,,,,,,,,,,,,,,,,,,,,,,,,,,,,,,,,,,,,,,,,c,1099.1149736497332,None,1099.1149736497332,None,a,1,3.6637299838703257,1099.1149736497332,None,l,0,2.123737503352231,1099.1149736497332,None,c,c,1102.8639602519668,None,1102.8639602519668,None,1104.8632391002798,None,None,None,None,None,None,None,None,,,,,,,,,,,,,,,,,,25_26Exp,001,2021_May_04_1510,ComputerHuman,2020.1.3,59.99784432150528,
Computer.xlsx,c,Sychronize.jpg,Number7.jpg,7,Computer,,,,,0,8,8,3,0,0,0,2,,,,,,,,,,,,,,,,,,,,,,,,,1109.8651337274432,None,1109.8651337274432,None,1112.9464297858744,None,1112.9464297858744,None,1113.3621400497107,None,1113.3621400497107,None,v,6.516299696269471,1113.3621400497107,None,t,5.343469342712524,1113.3621400497107,None,6.516299696269471,5.343469342712524,6.6773716445521965,False,True,False,1119.9605506288262,None,1119.9605506288262,None,1119.9605506288262,None,1119.9605506288262,None,1119.9605506288262,None,1119.9605506288262,None,1119.9605506288262,None,1119.9605506288262,None,1120.9934608736714,None,1120.9934608736714,None,1121.976742537299,None,1121.976742537299,None,c,,,,,,,,,,,,,,,,,,,,,,,,,,,,,,,,,,,,,,,,,,,,,,,25_26Exp,001,2021_May_04_1510,ComputerHuman,2020.1.3,59.99784432150528,
Computer.xlsx,c,Sychronize.jpg,Number9.jpg,9,Computer,,,,,0,8,8,3,0,1,1,7,,,,,,,,,,,,,,,,,,,,,,,,,,,,,1123.0272501023342,None,1123.0272501023342,None,1123.476929561958,None,1123.476929561958,None,v,5.553350788968373,1123.476929561958,None,t,5.196406688489333,1123.476929561958,None,5.553350788968373,5.196406688489333,9.366365176295298,False,False,False,1129.1094151998757,None,1129.1094151998757,None,1129.1094151998757,None,1129.1094151998757,None,1129.1094151998757,None,1129.1094151998757,None,1129.1094151998757,None,1129.1094151998757,None,1130.1084518464434,None,1130.1084518464434,None,1131.0916023040925,None,1131.0916023040925,None,c,,,,,,,,,,,,,,,,,,,,,,,,,,,,,,,,,,,,,,,,,,,,,,,25_26Exp,001,2021_May_04_1510,ComputerHuman,2020.1.3,59.99784432150528,
Computer.xlsx,c,Sychronize.jpg,Number7.jpg,7,Computer,,,,,0,8,8,3,0,2,2,3,,,,,,,,,,,,,,,,,,,,,,,,,,,,,1132.15831364709,None,1132.15831364709,None,1132.591780988029,None,1132.591780988029,None,v,5.47437858410467,1132.591780988029,None,t,3.7894929995677558,1132.591780988029,None,5.47437858410467,3.7894929995677558,7.216858123472592,False,False,False,1138.1409556414721,None,1138.1409556414721,None,1138.1409556414721,None,1138.1409556414721,None,1138.1409556414721,None,1138.1409556414721,None,1138.1409556414721,None,1138.1409556414721,None,1139.1566037990065,None,1139.1566037990065,None,1140.1400080070935,None,1140.1400080070935,None,c,,,,,,,,,,,,,,,,,,,,,,,,,,,,,,,,,,,,,,,,,,,,,,,25_26Exp,001,2021_May_04_1510,ComputerHuman,2020.1.3,59.99784432150528,
Computer.xlsx,c,Sychronize.jpg,Number6.jpg,6,Computer,,,,,0,8,8,3,0,3,3,0,,,,,,,,,,,,,,,,,,,,,,,,,,,,,1141.1902746535714,None,1141.1902746535714,None,1141.6401501201706,None,1141.6401501201706,None,v,6.309848532481965,1141.6401501201706,None,t,3.633475296705228,1141.6401501201706,None,6.309848532481965,3.633475296705228,6.060329166992192,False,True,False,1148.0385036615771,None,1148.0385036615771,None,1148.0385036615771,None,1148.0385036615771,None,1148.0385036615771,None,1148.0385036615771,None,1148.0385036615771,None,1148.0385036615771,None,1149.0215713535965,None,1149.0215713535965,None,1150.021489229561,None,1150.021489229561,None,c,,,,,,,,,,,,,,,,,,,,,,,,,,,,,,,,,,,,,,,,,,,,,,,25_26Exp,001,2021_May_04_1510,ComputerHuman,2020.1.3,59.99784432150528,
Computer.xlsx,c,Sychronize.jpg,Number6.jpg,6,Computer,,,,,0,8,8,3,0,4,4,1,,,,,,,,,,,,,,,,,,,,,,,,,,,,,1151.07147646184,None,1151.07147646184,None,1151.5214770392745,None,1151.5214770392745,None,v,6.460387022349323,1151.5214770392745,None,t,3.415352254369054,1151.5214770392745,None,6.460387022349323,3.415352254369054,5.79188195892482,False,False,False,1158.0539872502434,None,1158.0539872502434,None,1158.0539872502434,None,1158.0539872502434,None,1158.0539872502434,None,1158.0539872502434,None,1158.0539872502434,None,1158.0539872502434,None,1159.0529683989278,None,1159.0529683989278,None,1160.036286312618,None,1160.036286312618,None,c,,,,,,,,,,,,,,,,,,,,,,,,,,,,,,,,,,,,,,,,,,,,,,,25_26Exp,001,2021_May_04_1510,ComputerHuman,2020.1.3,59.99784432150528,
Computer.xlsx,c,Sychronize.jpg,Number9.jpg,9,Computer,,,,,0,8,8,3,0,5,5,6,,,,,,,,,,,,,,,,,,,,,,,,,,,,,1161.1031930209967,None,1161.1031930209967,None,1161.536362020713,None,1161.536362020713,None,v,6.2653061879177585,1161.536362020713,None,t,6.452512418052493,1161.536362020713,None,6.2653061879177585,6.452512418052493,9.097942813250953,False,False,False,1168.0698840254636,None,1168.0698840254636,None,1168.0698840254636,None,1168.0698840254636,None,1168.0698840254636,None,1168.0698840254636,None,1168.0698840254636,None,1168.0698840254636,None,1169.0846602567144,None,1169.0846602567144,None,1170.06784119008,None,1170.06784119008,None,c,,,,,,,,,,,,,,,,,,,,,,,,,,,,,,,,,,,,,,,,,,,,,,,25_26Exp,001,2021_May_04_1510,ComputerHuman,2020.1.3,59.99784432150528,
Computer.xlsx,c,Sychronize.jpg,Number8.jpg,8,Computer,,,,,0,8,8,3,0,6,6,4,,,,,,,,,,,,,,,,,,,,,,,,,,,,,1171.1181745623367,None,1171.1181745623367,None,1171.5679961350374,None,1171.5679961350374,None,v,6.7775574258735105,1171.5679961350374,None,t,5.216446236345291,1171.5679961350374,None,6.7775574258735105,5.216446236345291,7.436468846114106,False,False,False,1178.4330859132897,None,1178.4330859132897,None,1178.4330859132897,None,1178.4330859132897,None,1178.4330859132897,None,1178.4330859132897,None,1178.4330859132897,None,1178.4330859132897,None,1179.4158305627166,None,1179.4158305627166,None,1180.3992148813886,None,1180.3992148813886,None,c,,,,,,,,,,,,,,,,,,,,,,,,,,,,,,,,,,,,,,,,,,,,,,,25_26Exp,001,2021_May_04_1510,ComputerHuman,2020.1.3,59.99784432150528,
Computer.xlsx,c,Sychronize.jpg,Number8.jpg,8,Computer,,,,,0,8,8,3,0,7,7,5,,,,,,,,,,,,,,,,,,,,,,,,,,,,,1181.4491575228826,None,1181.4491575228826,None,1181.8994076803938,None,1181.8994076803938,None,v,5.882124420480068,1181.8994076803938,None,t,5.609453374720488,1181.8994076803938,None,5.882124420480068,5.609453374720488,8.059049507991585,False,False,False,1187.8485061766255,None,1187.8485061766255,None,1187.8485061766255,None,1187.8485061766255,None,1187.8485061766255,None,1187.8485061766255,None,1187.8485061766255,None,1187.8485061766255,None,1188.8642383829779,None,1188.8642383829779,None,1189.8474947036411,None,1189.8474947036411,None,c,,,,,,,,,,,,,,,,,,,,,,,,,,,,,,,,,,,,,,,,,,,,,,,25_26Exp,001,2021_May_04_1510,ComputerHuman,2020.1.3,59.99784432150528,
Computer.xlsx,c,Sychronize.jpg,Number10.jpg,10,Computer,,,,,0,8,8,3,0,8,8,9,,,,,,,,,,,,,,,,,,,,,,,,,,,,,1190.897711626582,None,1190.897711626582,None,1191.34781710464,None,1191.34781710464,None,v,5.297417648198461,1191.34781710464,None,t,8.308430930478153,1191.34781710464,None,5.297417648198461,8.308430930478153,9.262242252068912,False,False,False,1199.7293413139078,None,1199.7293413139078,None,1199.7293413139078,None,1199.7293413139078,None,1199.7293413139078,None,1199.7293413139078,None,1199.7293413139078,None,1199.7293413139078,None,1200.7453401025782,None,1200.7453401025782,None,1201.728669564961,None,1201.728669564961,None,c,,,,,,,,,,,,,,,,,,,,,,,,,,,,,,,,,,,,,,,,,,,,,,,25_26Exp,001,2021_May_04_1510,ComputerHuman,2020.1.3,59.99784432150528,
Computer.xlsx,c,Sychronize.jpg,Number10.jpg,10,Computer,,,,,0,8,8,3,0,9,9,8,,,,,,,,,,,,,,,,,,,,,,,,,,,,,1202.7786022617474,None,1202.7786022617474,None,1203.228742385883,None,1203.228742385883,None,v,5.108311337351552,1203.228742385883,None,t,8.699387855138411,1203.228742385883,None,5.108311337351552,8.699387855138411,9.543146583316569,False,False,False,1212.0267050682078,None,1212.0267050682078,None,1212.0267050682078,None,1212.0267050682078,None,1212.0267050682078,None,1212.0267050682078,None,1212.0267050682078,None,1212.0267050682078,None,1213.0099187228684,None,1213.0099187228684,None,1213.9930249105296,None,1213.9930249105296,None,c,,,,,,,,,,,,,,,,,,,,,,,,,,,,,,,,,,,,,,,,,,,,,,,25_26Exp,001,2021_May_04_1510,ComputerHuman,2020.1.3,59.99784432150528,
Computer.xlsx,c,,,,,,,,,0,8,8,3,,,,,,,,,,,,,,,,,,,,,,,,,,,,,,,,,,,,,,,,,,,,,,,,,,,,,,,,,,,,,,,,,,,,,,,,,,,,,,,c,1214.9935840597245,None,1214.9935840597245,None,q,0,4.0273258104293745,1214.9935840597245,None,l,0,1.9104610623003282,1214.9935840597245,None,h,c,1219.1088092143168,None,1219.1088092143168,None,1221.1083597777006,None,None,None,None,None,None,None,None,,,,,,,,,,,,,,,,,,25_26Exp,001,2021_May_04_1510,ComputerHuman,2020.1.3,59.99784432150528,
Computer.xlsx,c,Sychronize.jpg,Number8.jpg,8,Computer,,,,,0,9,9,9,0,0,0,5,,,,,,,,,,,,,,,,,,,,,,,,,1226.110464206111,None,1226.110464206111,None,1229.1914375427464,None,1229.1914375427464,None,1229.6072860700956,None,1229.6072860700956,None,v,6.065320687942858,1229.6072860700956,None,t,4.776466395229363,1229.6072860700956,None,6.065320687942858,4.776466395229363,8.11006534952446,False,False,False,1235.7556999213407,None,1235.7556999213407,None,1235.7556999213407,None,1235.7556999213407,None,1235.7556999213407,None,1235.7556999213407,None,1235.7556999213407,None,1235.7556999213407,None,1236.771724694569,None,1236.771724694569,None,1237.755177022208,None,1237.755177022208,None,c,,,,,,,,,,,,,,,,,,,,,,,,,,,,,,,,,,,,,,,,,,,,,,,25_26Exp,001,2021_May_04_1510,ComputerHuman,2020.1.3,59.99784432150528,
Computer.xlsx,c,Sychronize.jpg,Number9.jpg,9,Computer,,,,,0,9,9,9,0,1,1,7,,,,,,,,,,,,,,,,,,,,,,,,,,,,,1238.805051654735,None,1238.805051654735,None,1239.2380855989086,None,1239.2380855989086,None,v,5.138455349546803,1239.2380855989086,None,t,6.681528764584982,1239.2380855989086,None,5.138455349546803,6.681528764584982,9.273162395889198,False,False,False,1245.9888535869595,None,1245.9888535869595,None,1245.9888535869595,None,1245.9888535869595,None,1245.9888535869595,None,1245.9888535869595,None,1245.9888535869595,None,1245.9888535869595,None,1246.986930408862,None,1246.986930408862,None,1247.9699506229235,None,1247.9699506229235,None,c,,,,,,,,,,,,,,,,,,,,,,,,,,,,,,,,,,,,,,,,,,,,,,,25_26Exp,001,2021_May_04_1510,ComputerHuman,2020.1.3,59.99784432150528,
Computer.xlsx,c,Sychronize.jpg,Number7.jpg,7,Computer,,,,,0,9,9,9,0,2,2,2,,,,,,,,,,,,,,,,,,,,,,,,,,,,,1249.0366443220855,None,1249.0366443220855,None,1249.4700593731113,None,1249.4700593731113,None,v,4.1342907627145,1249.4700593731113,None,t,5.485413680581132,1249.4700593731113,None,4.1342907627145,5.485413680581132,6.939650762756867,False,False,False,1255.0519505100033,None,1255.0519505100033,None,1255.0519505100033,None,1255.0519505100033,None,1255.0519505100033,None,1255.0519505100033,None,1255.0519505100033,None,1255.0519505100033,None,1256.0518289279348,None,1256.0518289279348,None,1257.035115724315,None,1257.035115724315,None,c,,,,,,,,,,,,,,,,,,,,,,,,,,,,,,,,,,,,,,,,,,,,,,,25_26Exp,001,2021_May_04_1510,ComputerHuman,2020.1.3,59.99784432150528,
Computer.xlsx,c,Sychronize.jpg,Number8.jpg,8,Computer,,,,,0,9,9,9,0,3,3,4,,,,,,,,,,,,,,,,,,,,,,,,,,,,,1258.0689989465027,None,1258.0689989465027,None,1258.5350307131062,None,1258.5350307131062,None,v,4.909198726051272,1258.5350307131062,None,t,6.112434862166083,1258.5350307131062,None,4.909198726051272,6.112434862166083,8.0247064651276,False,False,False,1264.733681697504,None,1264.733681697504,None,1264.733681697504,None,1264.733681697504,None,1264.733681697504,None,1264.733681697504,None,1264.733681697504,None,1264.733681697504,None,1265.7167314248904,None,1265.7167314248904,None,1266.7166987035953,None,1266.7166987035953,None,c,,,,,,,,,,,,,,,,,,,,,,,,,,,,,,,,,,,,,,,,,,,,,,,25_26Exp,001,2021_May_04_1510,ComputerHuman,2020.1.3,59.99784432150528,
Computer.xlsx,c,Sychronize.jpg,Number10.jpg,10,Computer,,,,,0,9,9,9,0,4,4,8,,,,,,,,,,,,,,,,,,,,,,,,,,,,,1267.7504988393566,None,1267.7504988393566,None,1268.2165899534075,None,1268.2165899534075,None,v,6.103456395344892,1268.2165899534075,None,t,8.350371932057897,1268.2165899534075,None,6.103456395344892,8.350371932057897,10.731243023769528,False,False,False,1276.6484831434,None,1276.6484831434,None,1276.6484831434,None,1276.6484831434,None,1276.6484831434,None,1276.6484831434,None,1276.6484831434,None,1276.6484831434,None,1277.647991361578,None,1277.647991361578,None,1278.6311113435108,None,1278.6311113435108,None,c,,,,,,,,,,,,,,,,,,,,,,,,,,,,,,,,,,,,,,,,,,,,,,,25_26Exp,001,2021_May_04_1510,ComputerHuman,2020.1.3,59.99784432150528,
Computer.xlsx,c,Sychronize.jpg,Number10.jpg,10,Computer,,,,,0,9,9,9,0,5,5,9,,,,,,,,,,,,,,,,,,,,,,,,,,,,,1279.6813959546212,None,1279.6813959546212,None,1280.1315039990554,None,1280.1315039990554,None,v,5.048429762777232,1280.1315039990554,None,t,10.07933310150429,1280.1315039990554,None,5.048429762777232,10.07933310150429,10.67175539552388,False,False,False,1290.2955531759544,None,1290.2955531759544,None,1290.2955531759544,None,1290.2955531759544,None,1290.2955531759544,None,1290.2955531759544,None,1290.2955531759544,None,1290.2955531759544,None,1291.2949933851655,None,1291.2949933851655,None,1292.261933007318,None,1292.261933007318,None,c,,,,,,,,,,,,,,,,,,,,,,,,,,,,,,,,,,,,,,,,,,,,,,,25_26Exp,001,2021_May_04_1510,ComputerHuman,2020.1.3,59.99784432150528,
Computer.xlsx,c,Sychronize.jpg,Number6.jpg,6,Computer,,,,,0,9,9,9,0,6,6,0,,,,,,,,,,,,,,,,,,,,,,,,,,,,,1293.3134626316391,None,1293.3134626316391,None,1293.7619246665959,None,1293.7619246665959,None,v,5.749737267245564,1293.7619246665959,None,t,9.869395836567946,1293.7619246665959,None,5.749737267245564,9.869395836567946,5.683359487649608,False,True,False,1303.710703328205,None,1303.710703328205,None,1303.710703328205,None,1303.710703328205,None,1303.710703328205,None,1303.710703328205,None,1303.710703328205,None,1303.710703328205,None,1304.726231507656,None,1304.726231507656,None,1305.7097146318083,None,1305.7097146318083,None,c,,,,,,,,,,,,,,,,,,,,,,,,,,,,,,,,,,,,,,,,,,,,,,,25_26Exp,001,2021_May_04_1510,ComputerHuman,2020.1.3,59.99784432150528,
Computer.xlsx,c,Sychronize.jpg,Number7.jpg,7,Computer,,,,,0,9,9,9,0,7,7,3,,,,,,,,,,,,,,,,,,,,,,,,,,,,,1306.7597807801526,None,1306.7597807801526,None,1307.2097938686707,None,1307.2097938686707,None,v,5.453653172233317,1307.2097938686707,None,t,3.0765222780692056,1307.2097938686707,None,5.453653172233317,3.0765222780692056,7.504426550093645,False,False,False,1312.742195971046,None,1312.742195971046,None,1312.742195971046,None,1312.742195971046,None,1312.742195971046,None,1312.742195971046,None,1312.742195971046,None,1312.742195971046,None,1313.74135548287,None,1313.74135548287,None,1314.7244607081402,None,1314.7244607081402,None,c,,,,,,,,,,,,,,,,,,,,,,,,,,,,,,,,,,,,,,,,,,,,,,,25_26Exp,001,2021_May_04_1510,ComputerHuman,2020.1.3,59.99784432150528,
Computer.xlsx,c,Sychronize.jpg,Number9.jpg,9,Computer,,,,,0,9,9,9,0,8,8,6,,,,,,,,,,,,,,,,,,,,,,,,,,,,,1315.808592612173,None,1315.808592612173,None,1316.2245710623129,None,1316.2245710623129,None,v,2.1467986382808704,1316.2245710623129,None,t,4.74648149835275,1316.2245710623129,None,2.1467986382808704,4.74648149835275,9.22624167890378,False,False,False,1321.0403569059258,None,1321.0403569059258,None,1321.0403569059258,None,1321.0403569059258,None,1321.0403569059258,None,1321.0403569059258,None,1321.0403569059258,None,1321.0403569059258,None,1322.0564445553691,None,1322.0564445553691,None,1323.0396559644505,None,1323.0396559644505,None,c,,,,,,,,,,,,,,,,,,,,,,,,,,,,,,,,,,,,,,,,,,,,,,,25_26Exp,001,2021_May_04_1510,ComputerHuman,2020.1.3,59.99784432150528,
Computer.xlsx,c,Sychronize.jpg,Number6.jpg,6,Computer,,,,,0,9,9,9,0,9,9,1,,,,,,,,,,,,,,,,,,,,,,,,,,,,,1324.0743742212653,None,1324.0743742212653,None,1324.5398574249753,None,1324.5398574249753,None,v,6.023330925216669,1324.5398574249753,None,t,5.786457939020693,1324.5398574249753,None,6.023330925216669,5.786457939020693,5.75894419533243,False,True,True,1330.6222198126802,None,1330.6222198126802,None,1330.6222198126802,None,1330.6222198126802,None,1330.6222198126802,None,1330.6222198126802,None,1330.6222198126802,None,1330.6222198126802,None,1331.637876310937,None,1331.637876310937,None,1332.6211563705797,None,1332.6211563705797,None,c,,,,,,,,,,,,,,,,,,,,,,,,,,,,,,,,,,,,,,,,,,,,,,,25_26Exp,001,2021_May_04_1510,ComputerHuman,2020.1.3,59.99784432150528,
Computer.xlsx,c,,,,,,,,,0,9,9,9,,,,,,,,,,,,,,,,,,,,,,,,,,,,,,,,,,,,,,,,,,,,,,,,,,,,,,,,,,,,,,,,,,,,,,,,,,,,,,,c,1333.638249077067,None,1333.638249077067,None,q,0,3.0648102998939066,1333.638249077067,None,l,0,1.8725540831687795,1333.638249077067,None,h,c,1336.7701819817298,None,1336.7701819817298,None,None,None,1338.7867485811148,None,1338.7867485811148,None,"['space', 'space']",1339.7698932644175,None,"[362.887535945305, 378.27926887794183]",,,,,,,,,,,,,,,,,25_26Exp,001,2021_May_04_1510,ComputerHuman,2020.1.3,59.99784432150528,
Computer.xlsx,c,Sychronize.jpg,Number8.jpg,8,Computer,,,,,1,0,10,7,0,0,0,4,,,,,,,,,,,,,,,,,,,,,,,,,1718.103896849645,None,1718.103896849645,None,1721.1835234804166,None,1721.1835234804166,None,1721.6163258091465,None,1721.6163258091465,None,v,5.4686404879194015,1721.6163258091465,None,t,5.07547519661648,1721.6163258091465,None,5.4686404879194015,5.07547519661648,7.957767493992538,False,False,False,1727.1818562983362,None,1727.1818562983362,None,1727.1818562983362,None,1727.1818562983362,None,1727.1818562983362,None,1727.1818562983362,None,1727.1818562983362,None,1727.1818562983362,None,1728.181388255493,None,1728.181388255493,None,1729.1647741781503,None,1729.1647741781503,None,c,,,,,,,,,,,,,,,,,,,,,,,,,,,,,,,,,,,,,,,,,,,,,,,25_26Exp,001,2021_May_04_1510,ComputerHuman,2020.1.3,59.99784432150528,
Computer.xlsx,c,Sychronize.jpg,Number8.jpg,8,Computer,,,,,1,0,10,7,0,1,1,5,,,,,,,,,,,,,,,,,,,,,,,,,,,,,1730.2145131135403,None,1730.2145131135403,None,1730.6650179838807,None,1730.6650179838807,None,v,5.923866848708258,1730.6650179838807,None,t,5.883456690478397,1730.6650179838807,None,5.923866848708258,5.883456690478397,7.913898963342017,False,False,False,1736.6800944811366,None,1736.6800944811366,None,1736.6800944811366,None,1736.6800944811366,None,1736.6800944811366,None,1736.6800944811366,None,1736.6800944811366,None,1736.6800944811366,None,1737.6797262061646,None,1737.6797262061646,None,1738.6630835778874,None,1738.6630835778874,None,c,,,,,,,,,,,,,,,,,,,,,,,,,,,,,,,,,,,,,,,,,,,,,,,25_26Exp,001,2021_May_04_1510,ComputerHuman,2020.1.3,59.99784432150528,
Computer.xlsx,c,Sychronize.jpg,Number7.jpg,7,Computer,,,,,1,0,10,7,0,2,2,2,,,,,,,,,,,,,,,,,,,,,,,,,,,,,1739.713364981028,None,1739.713364981028,None,1740.1632019519857,None,1740.1632019519857,None,v,5.909477819453059,1740.1632019519857,None,t,4.764483664374438,1740.1632019519857,None,5.909477819453059,4.764483664374438,6.76484391816929,False,False,False,1746.1617192281878,None,1746.1617192281878,None,1746.1617192281878,None,1746.1617192281878,None,1746.1617192281878,None,1746.1617192281878,None,1746.1617192281878,None,1746.1617192281878,None,1747.1448141879537,None,1747.1448141879537,None,1748.127952455316,None,1748.127952455316,None,c,,,,,,,,,,,,,,,,,,,,,,,,,,,,,,,,,,,,,,,,,,,,,,,25_26Exp,001,2021_May_04_1510,ComputerHuman,2020.1.3,59.99784432150528,
Computer.xlsx,c,Sychronize.jpg,Number9.jpg,9,Computer,,,,,1,0,10,7,0,3,3,7,,,,,,,,,,,,,,,,,,,,,,,,,,,,,1749.21184472398,None,1749.21184472398,None,1749.6278475546928,None,1749.6278475546928,None,v,5.276718541682385,1749.6278475546928,None,t,5.696464431951881,1749.6278475546928,None,5.276718541682385,5.696464431951881,8.693343789189015,False,False,False,1755.3948113007805,None,1755.3948113007805,None,1755.3948113007805,None,1755.3948113007805,None,1755.3948113007805,None,1755.3948113007805,None,1755.3948113007805,None,1755.3948113007805,None,1756.409788671759,None,1756.409788671759,None,1757.3931810103568,None,1757.3931810103568,None,c,,,,,,,,,,,,,,,,,,,,,,,,,,,,,,,,,,,,,,,,,,,,,,,25_26Exp,001,2021_May_04_1510,ComputerHuman,2020.1.3,59.99784432150528,
Computer.xlsx,c,Sychronize.jpg,Number7.jpg,7,Computer,,,,,1,0,10,7,0,4,4,3,,,,,,,,,,,,,,,,,,,,,,,,,,,,,1758.4430450565824,None,1758.4430450565824,None,1758.8765438356286,None,1758.8765438356286,None,v,5.751827259790389,1758.8765438356286,None,t,4.271480247244654,1758.8765438356286,None,5.751827259790389,4.271480247244654,6.664854107000522,False,False,False,1764.7084843752605,None,1764.7084843752605,None,1764.7084843752605,None,1764.7084843752605,None,1764.7084843752605,None,1764.7084843752605,None,1764.7084843752605,None,1764.7084843752605,None,1765.7245450777546,None,1765.7245450777546,None,1766.7245810070203,None,1766.7245810070203,None,c,,,,,,,,,,,,,,,,,,,,,,,,,,,,,,,,,,,,,,,,,,,,,,,25_26Exp,001,2021_May_04_1510,ComputerHuman,2020.1.3,59.99784432150528,
Computer.xlsx,c,Sychronize.jpg,Number6.jpg,6,Computer,,,,,1,0,10,7,0,5,5,0,,,,,,,,,,,,,,,,,,,,,,,,,,,,,1767.7745573322009,None,1767.7745573322009,None,1768.2249091823655,None,1768.2249091823655,None,v,5.775314092355984,1768.2249091823655,None,t,3.6264979616557866,1768.2249091823655,None,5.775314092355984,3.6264979616557866,6.359893958182242,False,False,False,1774.0738147512734,None,1774.0738147512734,None,1774.0738147512734,None,1774.0738147512734,None,1774.0738147512734,None,1774.0738147512734,None,1774.0738147512734,None,1774.0738147512734,None,1775.0895014044495,None,1775.0895014044495,None,1776.056169953125,None,1776.056169953125,None,c,,,,,,,,,,,,,,,,,,,,,,,,,,,,,,,,,,,,,,,,,,,,,,,25_26Exp,001,2021_May_04_1510,ComputerHuman,2020.1.3,59.99784432150528,
Computer.xlsx,c,Sychronize.jpg,Number10.jpg,10,Computer,,,,,1,0,10,7,0,6,6,9,,,,,,,,,,,,,,,,,,,,,,,,,,,,,1777.1226994042158,None,1777.1226994042158,None,1777.5563624313336,None,1777.5563624313336,None,v,5.9637849043188,1777.5563624313336,None,t,7.967457067735722,1777.5563624313336,None,5.9637849043188,7.967457067735722,9.382974004522044,False,False,False,1785.6211249324724,None,1785.6211249324724,None,1785.6211249324724,None,1785.6211249324724,None,1785.6211249324724,None,1785.6211249324724,None,1785.6211249324724,None,1785.6211249324724,None,1786.6206700423068,None,1786.6206700423068,None,1787.604082591116,None,1787.604082591116,None,c,,,,,,,,,,,,,,,,,,,,,,,,,,,,,,,,,,,,,,,,,,,,,,,25_26Exp,001,2021_May_04_1510,ComputerHuman,2020.1.3,59.99784432150528,
Computer.xlsx,c,Sychronize.jpg,Number6.jpg,6,Computer,,,,,1,0,10,7,0,7,7,1,,,,,,,,,,,,,,,,,,,,,,,,,,,,,1788.654334801728,None,1788.654334801728,None,1789.104338266336,None,1789.104338266336,None,v,5.819551038163354,1789.104338266336,None,t,2.3864856558820975,1789.104338266336,None,5.819551038163354,2.3864856558820975,6.332920548135296,False,False,False,1795.00417132357,None,1795.00417132357,None,1795.00417132357,None,1795.00417132357,None,1795.00417132357,None,1795.00417132357,None,1795.00417132357,None,1795.00417132357,None,1796.002335723057,None,1796.002335723057,None,1796.9855102404822,None,1796.9855102404822,None,c,,,,,,,,,,,,,,,,,,,,,,,,,,,,,,,,,,,,,,,,,,,,,,,25_26Exp,001,2021_May_04_1510,ComputerHuman,2020.1.3,59.99784432150528,
Computer.xlsx,c,Sychronize.jpg,Number9.jpg,9,Computer,,,,,1,0,10,7,0,8,8,6,,,,,,,,,,,,,,,,,,,,,,,,,,,,,1798.0355600281787,None,1798.0355600281787,None,1798.4859189358776,None,1798.4859189358776,None,v,6.149858720995326,1798.4859189358776,None,t,4.137599142316958,1798.4859189358776,None,6.149858720995326,4.137599142316958,8.428261795052592,False,False,False,1804.7191896924069,None,1804.7191896924069,None,1804.7191896924069,None,1804.7191896924069,None,1804.7191896924069,None,1804.7191896924069,None,1804.7191896924069,None,1804.7191896924069,None,1805.7340207799475,None,1805.7340207799475,None,1806.717235717796,None,1806.717235717796,None,c,,,,,,,,,,,,,,,,,,,,,,,,,,,,,,,,,,,,,,,,,,,,,,,25_26Exp,001,2021_May_04_1510,ComputerHuman,2020.1.3,59.99784432150528,
Computer.xlsx,c,Sychronize.jpg,Number10.jpg,10,Computer,,,,,1,0,10,7,0,9,9,8,,,,,,,,,,,,,,,,,,,,,,,,,,,,,1807.7685853749927,None,1807.7685853749927,None,1808.2173447887808,None,1808.2173447887808,None,v,5.438340568375224,1808.2173447887808,None,t,5.089406448533282,1808.2173447887808,None,5.438340568375224,5.089406448533282,10.031087590696465,False,False,False,1813.7328242070862,None,1813.7328242070862,None,1813.7328242070862,None,1813.7328242070862,None,1813.7328242070862,None,1813.7328242070862,None,1813.7328242070862,None,1813.7328242070862,None,1814.732359051416,None,1814.732359051416,None,1815.715350714543,None,1815.715350714543,None,c,,,,,,,,,,,,,,,,,,,,,,,,,,,,,,,,,,,,,,,,,,,,,,,25_26Exp,001,2021_May_04_1510,ComputerHuman,2020.1.3,59.99784432150528,
Computer.xlsx,c,,,,,,,,,1,0,10,7,,,,,,,,,,,,,,,,,,,,,,,,,,,,,,,,,,,,,,,,,,,,,,,,,,,,,,,,,,,,,,,,,,,,,,,,,,,,,,,c,1816.7327388750805,None,1816.7327388750805,None,a,1,3.274880374793611,1816.7327388750805,None,l,0,2.302466351601197,1816.7327388750805,None,c,c,1820.0988770179738,None,1820.0988770179738,None,1822.097698730542,None,None,None,None,None,None,None,None,,,,,,,,,,,,,,,,,,25_26Exp,001,2021_May_04_1510,ComputerHuman,2020.1.3,59.99784432150528,
Human.xlsx,h,Sychronize.jpg,Number10.jpg,10,Human,,,,,1,1,11,6,0,0,0,8,,,,,,,,,,,,,,,,,,,,,,,,,1827.0997714000482,None,1827.0997714000482,None,1830.146593007395,None,1830.146593007395,None,1830.5964893258001,None,1830.5964893258001,None,v,5.758818068314213,1830.5964893258001,None,t,5.442466980363406,1830.5964893258001,None,5.758818068314213,5.442466980363406,10.158916628435515,False,False,False,1836.4448780907187,None,1836.4448780907187,None,1836.4448780907187,None,1836.4448780907187,None,1836.4448780907187,None,1836.4448780907187,None,1836.4448780907187,None,1836.4448780907187,None,1837.4296796905978,None,1837.4296796905978,None,1838.4280590240842,None,1838.4280590240842,None,h,,,,,,,,,,,,,,,,,,,,,,,,,,,,,,,,,,,,,,,,,,,,,,,25_26Exp,001,2021_May_04_1510,ComputerHuman,2020.1.3,59.99784432150528,
Human.xlsx,h,Sychronize.jpg,Number7.jpg,7,Human,,,,,1,1,11,6,0,1,1,3,,,,,,,,,,,,,,,,,,,,,,,,,,,,,1839.4945297693212,None,1839.4945297693212,None,1839.944792758713,None,1839.944792758713,None,v,5.638314198860826,1839.944792758713,None,t,3.9454866426535773,1839.944792758713,None,5.638314198860826,3.9454866426535773,6.484978186814782,False,False,False,1845.6766455924417,None,1845.6766455924417,None,1845.6766455924417,None,1845.6766455924417,None,1845.6766455924417,None,1845.6766455924417,None,1845.6766455924417,None,1845.6766455924417,None,1846.6448947080044,None,1846.6448947080044,None,1847.6430215742407,None,1847.6430215742407,None,h,,,,,,,,,,,,,,,,,,,,,,,,,,,,,,,,,,,,,,,,,,,,,,,25_26Exp,001,2021_May_04_1510,ComputerHuman,2020.1.3,59.99784432150528,
Human.xlsx,h,Sychronize.jpg,Number9.jpg,9,Human,,,,,1,1,11,6,0,2,2,7,,,,,,,,,,,,,,,,,,,,,,,,,,,,,1848.6926822351597,None,1848.6926822351597,None,1849.1433709221888,None,1849.1433709221888,None,v,5.543657265603542,1849.1433709221888,None,t,5.626484488181177,1849.1433709221888,None,5.543657265603542,5.626484488181177,9.4052517329932,True,False,False,1854.843245747194,None,1854.843245747194,None,1854.843245747194,None,1854.843245747194,None,1854.843245747194,None,1854.843245747194,None,1854.843245747194,None,1854.843245747194,None,1855.843692938231,None,1855.843692938231,None,1856.8413113412012,None,1856.8413113412012,None,h,,,,,,,,,,,,,,,,,,,,,,,,,,,,,,,,,,,,,,,,,,,,,,,25_26Exp,001,2021_May_04_1510,ComputerHuman,2020.1.3,59.99784432150528,
Human.xlsx,h,Sychronize.jpg,Number9.jpg,9,Human,,,,,1,1,11,6,0,3,3,6,,,,,,,,,,,,,,,,,,,,,,,,,,,,,1857.8750742645088,None,1857.8750742645088,None,1858.3412920933802,None,1858.3412920933802,None,v,5.813595762399473,1858.3412920933802,None,t,4.968406306099496,1858.3412920933802,None,5.813595762399473,4.968406306099496,8.582369392007475,False,False,False,1864.224224922335,None,1864.224224922335,None,1864.224224922335,None,1864.224224922335,None,1864.224224922335,None,1864.224224922335,None,1864.224224922335,None,1864.224224922335,None,1865.2085982582007,None,1865.2085982582007,None,1866.206226285081,None,1866.206226285081,None,h,,,,,,,,,,,,,,,,,,,,,,,,,,,,,,,,,,,,,,,,,,,,,,,25_26Exp,001,2021_May_04_1510,ComputerHuman,2020.1.3,59.99784432150528,
Human.xlsx,h,Sychronize.jpg,Number8.jpg,8,Human,,,,,1,1,11,6,0,4,4,4,,,,,,,,,,,,,,,,,,,,,,,,,,,,,1867.2733225844945,None,1867.2733225844945,None,1867.723170783348,None,1867.723170783348,None,v,5.6475624559707285,1867.723170783348,None,t,5.2624491697133635,1867.723170783348,None,5.6475624559707285,5.2624491697133635,8.337095922591393,False,False,False,1873.4549013934138,None,1873.4549013934138,None,1873.4549013934138,None,1873.4549013934138,None,1873.4549013934138,None,1873.4549013934138,None,1873.4549013934138,None,1873.4549013934138,None,1874.440411633896,None,1874.440411633896,None,1875.4378885653828,None,1875.4378885653828,None,h,,,,,,,,,,,,,,,,,,,,,,,,,,,,,,,,,,,,,,,,,,,,,,,25_26Exp,001,2021_May_04_1510,ComputerHuman,2020.1.3,59.99784432150528,
Human.xlsx,h,Sychronize.jpg,Number8.jpg,8,Human,,,,,1,1,11,6,0,5,5,5,,,,,,,,,,,,,,,,,,,,,,,,,,,,,1876.470777637625,None,1876.470777637625,None,1876.921508028266,None,1876.921508028266,None,v,5.869148502070402,1876.921508028266,None,t,4.752511199023502,1876.921508028266,None,5.869148502070402,4.752511199023502,7.860203928122284,False,False,False,1882.8535843933537,None,1882.8535843933537,None,1882.8535843933537,None,1882.8535843933537,None,1882.8535843933537,None,1882.8535843933537,None,1882.8535843933537,None,1882.8535843933537,None,1883.8711862047016,None,1883.8711862047016,None,1884.8694818101676,None,1884.8694818101676,None,h,,,,,,,,,,,,,,,,,,,,,,,,,,,,,,,,,,,,,,,,,,,,,,,25_26Exp,001,2021_May_04_1510,ComputerHuman,2020.1.3,59.99784432150528,
Human.xlsx,h,Sychronize.jpg,Number6.jpg,6,Human,,,,,1,1,11,6,0,6,6,1,,,,,,,,,,,,,,,,,,,,,,,,,,,,,1885.9197728372187,None,1885.9197728372187,None,1886.369390062222,None,1886.369390062222,None,v,5.761017773437743,1886.369390062222,None,t,3.8444930059831677,1886.369390062222,None,5.761017773437743,3.8444930059831677,5.806224235900913,False,False,False,1892.2016295846706,None,1892.2016295846706,None,1892.2016295846706,None,1892.2016295846706,None,1892.2016295846706,None,1892.2016295846706,None,1892.2016295846706,None,1892.2016295846706,None,1893.186867468488,None,1893.186867468488,None,1894.1843636477956,None,1894.1843636477956,None,h,,,,,,,,,,,,,,,,,,,,,,,,,,,,,,,,,,,,,,,,,,,,,,,25_26Exp,001,2021_May_04_1510,ComputerHuman,2020.1.3,59.99784432150528,
Human.xlsx,h,Sychronize.jpg,Number6.jpg,6,Human,,,,,1,1,11,6,0,7,7,0,,,,,,,,,,,,,,,,,,,,,,,,,,,,,1895.2347983919085,None,1895.2347983919085,None,1895.6847113917588,None,1895.6847113917588,None,v,6.061556776580346,1895.6847113917588,None,t,3.0405304571099805,1895.6847113917588,None,6.061556776580346,3.0405304571099805,5.5934753477180665,False,False,False,1901.8168496065105,None,1901.8168496065105,None,1901.8168496065105,None,1901.8168496065105,None,1901.8168496065105,None,1901.8168496065105,None,1901.8168496065105,None,1901.8168496065105,None,1902.8180615776282,None,1902.8180615776282,None,1903.8159911537014,None,1903.8159911537014,None,h,,,,,,,,,,,,,,,,,,,,,,,,,,,,,,,,,,,,,,,,,,,,,,,25_26Exp,001,2021_May_04_1510,ComputerHuman,2020.1.3,59.99784432150528,
Human.xlsx,h,Sychronize.jpg,Number7.jpg,7,Human,,,,,1,1,11,6,0,8,8,2,,,,,,,,,,,,,,,,,,,,,,,,,,,,,1904.8657002549694,None,1904.8657002549694,None,1905.3158038082456,None,1905.3158038082456,None,v,5.770292015105497,1905.3158038082456,None,t,3.805797186995278,1905.3158038082456,None,5.770292015105497,3.805797186995278,7.059729153462451,False,False,False,1911.1651806279665,None,1911.1651806279665,None,1911.1651806279665,None,1911.1651806279665,None,1911.1651806279665,None,1911.1651806279665,None,1911.1651806279665,None,1911.1651806279665,None,1912.1499132564873,None,1912.1499132564873,None,1913.1475858741528,None,1913.1475858741528,None,h,,,,,,,,,,,,,,,,,,,,,,,,,,,,,,,,,,,,,,,,,,,,,,,25_26Exp,001,2021_May_04_1510,ComputerHuman,2020.1.3,59.99784432150528,
Human.xlsx,h,Sychronize.jpg,Number10.jpg,10,Human,,,,,1,1,11,6,0,9,9,9,,,,,,,,,,,,,,,,,,,,,,,,,,,,,1914.2144598612363,None,1914.2144598612363,None,1914.6473879423952,None,1914.6473879423952,None,v,5.52659535562907,1914.6473879423952,None,t,6.005545938774048,1914.6473879423952,None,5.52659535562907,6.005545938774048,9.620625387640855,False,False,False,1920.7311794807965,None,1920.7311794807965,None,1920.7311794807965,None,1920.7311794807965,None,1920.7311794807965,None,1920.7311794807965,None,1920.7311794807965,None,1920.7311794807965,None,1921.7316674130543,None,1921.7316674130543,None,1922.7291777074306,None,1922.7291777074306,None,h,,,,,,,,,,,,,,,,,,,,,,,,,,,,,,,,,,,,,,,,,,,,,,,25_26Exp,001,2021_May_04_1510,ComputerHuman,2020.1.3,59.99784432150528,
Human.xlsx,h,,,,,,,,,1,1,11,6,,,,,,,,,,,,,,,,,,,,,,,,,,,,,,,,,,,,,,,,,,,,,,,,,,,,,,,,,,,,,,,,,,,,,,,,,,,,,,,h,1923.7295411704472,None,1923.7295411704472,None,a,0,2.472341202269945,1923.7295411704472,None,l,0,1.7556501978033339,1923.7295411704472,None,c,c,1926.2960446369798,None,1926.2960446369798,None,1928.27810246,None,None,None,None,None,None,None,None,,,,,,,,,,,,,,,,,,25_26Exp,001,2021_May_04_1510,ComputerHuman,2020.1.3,59.99784432150528,
