Condition,CorrectTuringReply,Sychronize,NumberImage,Number,Partner,trials.thisRepN,trials.thisTrialN,trials.thisN,trials.thisIndex,Block.thisRepN,Block.thisTrialN,Block.thisN,Block.thisIndex,trials_loop.thisRepN,trials_loop.thisTrialN,trials_loop.thisN,trials_loop.thisIndex,key_resp_Istr.keys,key_resp_Istr.rt,key_resp_Istr.started,key_resp_Istr.stopped,key_respPrLeft.keys,key_respPrLeft.rt,key_respPrRight.keys,RTPrLeft,RTPrRight,CompPr,SychronizedRTsPr,SychronizedRTsLeftCPr,SychronizedRTsRightCPr,CreditLeftPr.started,CreditLeftPr.stopped,CreditRightPr.started,CreditRightPr.stopped,key_respPrRight.rt,text_StartExp.started,text_StartExp.stopped,key_startExp.keys,key_startExp.rt,key_startExp.started,key_startExp.stopped,SychroLeft.started,SychroLeft.stopped,SychroRight.started,SychroRight.stopped,NumberLeft.started,NumberLeft.stopped,NumberRight.started,NumberRight.stopped,CrossLeft.started,CrossLeft.stopped,CrossRight.started,CrossRight.stopped,key_respLeft.keys,key_respLeft.rt,key_respLeft.started,key_respLeft.stopped,key_respRight.keys,key_respRight.rt,key_respRight.started,key_respRight.stopped,RTLeft,RTRight,Comp,SychronizedRTs,SychronizedRTsLeftC,SychronizedRTsRightC,FeedbackLeftLeft.started,FeedbackLeftLeft.stopped,FeedbackLeftRight.started,FeedbackLeftRight.stopped,FeedbackRightLeft.started,FeedbackRightLeft.stopped,FeedbackRightRight.started,FeedbackRightRight.stopped,textLeftLeft.started,textLeftLeft.stopped,textLeftRight.started,textLeftRight.stopped,textRightLeft.started,textRightLeft.stopped,textRightRight.started,textRightRight.stopped,CreditLeft.started,CreditLeft.stopped,CreditRight.started,CreditRight.stopped,BlankLeft.started,BlankLeft.stopped,BlankRight.started,BlankRight.stopped,CorrectTuringReply,TuringtextLeft.started,TuringtextLeft.stopped,TuringtextRight.started,TuringtextRight.stopped,keyTuringLeft.keys,keyTuringLeft.corr,keyTuringLeft.rt,keyTuringLeft.started,keyTuringLeft.stopped,keyTuringRight.keys,keyTuringRight.corr,keyTuringRight.rt,keyTuringRight.started,keyTuringRight.stopped,RespTuringLeft,RespTuringRight,ScoreLeft.started,ScoreLeft.stopped,ScoreRight.started,ScoreRight.stopped,BlockText.started,BlockText.stopped,text_Pause.started,text_Pause.stopped,text_LongPause.started,text_LongPause.stopped,key_respPause.keys,key_respPause.started,key_respPause.stopped,key_respPause.rt,QuestImageLeft.started,QuestImageLeft.stopped,QuestImageRight.started,QuestImageRight.stopped,respQuestLeft.keys,respQuestLeft.rt,respQuestLeft.started,respQuestLeft.stopped,respQuestRight.keys,respQuestRight.rt,respQuestRight.started,respQuestRight.stopped,RespInclusionLeft,RespInclusionRight,EndText.started,EndText.stopped,participant,session,date,expName,psychopyVersion,frameRate,
,,,,,,,,,,,,,,,,,,"['t', 't', 'v']","[84.5750041542442, 88.0627313304426, 261.55305113986697]",20.598341061189785,None,,,,,,,,,,,,,,,,,,,,,,,,,,,,,,,,,,,,,,,,,,,,,,,,,,,,,,,,,,,,,,,,,,,,,,,,,,,,,,,,,,,,,,,,,,,,,,,,,,,,,,,,,,,,,,,,,,,,,,27_28Exp,001,2021_May_05_1514,ComputerHuman,2020.1.3,60.01628777374219,
,,,,,,,,,,,,,,,,,,,,,,v,11.22067472622075,t,11.22067472622075,7.175868878584879,9,False,False,False,352.6976720835446,None,352.6976720835446,None,7.175868878584879,353.6974292447235,None,"['space', 'space']","[10.323768948325323, 14.36366797613573]",354.68056237236533,None,,,,,,,,,,,,,,,,,,,,,,,,,,,,,,,,,,,,,,,,,,,,,,,,,,,,,,,,,,,,,,,,,,,,,,,,,,,,,,,,,,,,,,,,,,,,,,,,,,27_28Exp,001,2021_May_05_1514,ComputerHuman,2020.1.3,60.01628777374219,
Human.xlsx,h,Sychronize.jpg,Number9.jpg,9,Human,,,,,0,0,0,0,0,0,0,6,,,,,,,,,,,,,,,,,,,,,,,,,369.13021100993365,None,369.13021100993365,None,372.177106811228,None,372.177106811228,None,372.6104984002154,None,372.6104984002154,None,v,9.72158865990832,372.6104984002154,None,t,8.25274805648769,372.6104984002154,None,9.72158865990832,8.25274805648769,9.037527887878406,False,False,False,382.4416202000839,None,382.4416202000839,None,382.4416202000839,None,382.4416202000839,None,382.4416202000839,None,382.4416202000839,None,382.4416202000839,None,382.4416202000839,None,383.42867435666994,None,383.42867435666994,None,384.424467823696,None,384.424467823696,None,h,,,,,,,,,,,,,,,,,,,,,,,,,,,,,,,,,,,,,,,,,,,,,,,27_28Exp,001,2021_May_05_1514,ComputerHuman,2020.1.3,60.01628777374219,
Human.xlsx,h,Sychronize.jpg,Number10.jpg,10,Human,,,,,0,0,0,0,0,1,1,9,,,,,,,,,,,,,,,,,,,,,,,,,,,,,385.4582050971135,None,385.4582050971135,None,385.92461314203956,None,385.92461314203956,None,v,10.690573298508298,385.92461314203956,None,t,8.909786179936873,385.92461314203956,None,10.690573298508298,8.909786179936873,10.189250731596532,False,False,False,396.68871944705916,None,396.68871944705916,None,396.68871944705916,None,396.68871944705916,None,396.68871944705916,None,396.68871944705916,None,396.68871944705916,None,396.68871944705916,None,397.6908369887474,None,397.6908369887474,None,398.68826777326785,None,398.68826777326785,None,h,,,,,,,,,,,,,,,,,,,,,,,,,,,,,,,,,,,,,,,,,,,,,,,27_28Exp,001,2021_May_05_1514,ComputerHuman,2020.1.3,60.01628777374219,
Human.xlsx,h,Sychronize.jpg,Number10.jpg,10,Human,,,,,0,0,0,0,0,2,2,8,,,,,,,,,,,,,,,,,,,,,,,,,,,,,399.738971685058,None,399.738971685058,None,400.1882058605961,None,400.1882058605961,None,v,10.886551605334716,400.1882058605961,None,t,9.145787019126146,400.1882058605961,None,10.886551605334716,9.145787019126146,9.742670273416634,False,False,False,411.1688990515495,None,411.1688990515495,None,411.1688990515495,None,411.1688990515495,None,411.1688990515495,None,411.1688990515495,None,411.1688990515495,None,411.1688990515495,None,412.1383687262096,None,412.1383687262096,None,413.13539755955026,None,413.13539755955026,None,h,,,,,,,,,,,,,,,,,,,,,,,,,,,,,,,,,,,,,,,,,,,,,,,27_28Exp,001,2021_May_05_1514,ComputerHuman,2020.1.3,60.01628777374219,
Human.xlsx,h,Sychronize.jpg,Number9.jpg,9,Human,,,,,0,0,0,0,0,3,3,7,,,,,,,,,,,,,,,,,,,,,,,,,,,,,414.20187989968235,None,414.20187989968235,None,414.6521640243109,None,414.6521640243109,None,v,7.926158071712052,414.6521640243109,None,t,8.905714058410922,414.6521640243109,None,7.926158071712052,8.905714058410922,9.534097346818035,False,False,False,423.6499300354735,None,423.6499300354735,None,423.6499300354735,None,423.6499300354735,None,423.6499300354735,None,423.6499300354735,None,423.6499300354735,None,423.6499300354735,None,424.61897594516313,None,424.61897594516313,None,425.61621297189185,None,425.61621297189185,None,h,,,,,,,,,,,,,,,,,,,,,,,,,,,,,,,,,,,,,,,,,,,,,,,27_28Exp,001,2021_May_05_1514,ComputerHuman,2020.1.3,60.01628777374219,
Human.xlsx,h,Sychronize.jpg,Number7.jpg,7,Human,,,,,0,0,0,0,0,4,4,2,,,,,,,,,,,,,,,,,,,,,,,,,,,,,426.6832332786066,None,426.6832332786066,None,427.11632460717556,None,427.11632460717556,None,v,9.329673428300339,427.11632460717556,None,t,6.792810687731162,427.11632460717556,None,9.329673428300339,6.792810687731162,7.1556091357465705,False,False,False,436.5306336200565,None,436.5306336200565,None,436.5306336200565,None,436.5306336200565,None,436.5306336200565,None,436.5306336200565,None,436.5306336200565,None,436.5306336200565,None,437.51643316286527,None,437.51643316286527,None,438.51357651860917,None,438.51357651860917,None,h,,,,,,,,,,,,,,,,,,,,,,,,,,,,,,,,,,,,,,,,,,,,,,,27_28Exp,001,2021_May_05_1514,ComputerHuman,2020.1.3,60.01628777374219,
Human.xlsx,h,Sychronize.jpg,Number8.jpg,8,Human,,,,,0,0,0,0,0,5,5,4,,,,,,,,,,,,,,,,,,,,,,,,,,,,,439.563688891712,None,439.563688891712,None,439.9968783823406,None,439.9968783823406,None,v,8.10861182807912,439.9968783823406,None,t,7.88840064491842,439.9968783823406,None,8.10861182807912,7.88840064491842,8.040572297523068,True,False,False,448.19493862304944,None,448.19493862304944,None,448.19493862304944,None,448.19493862304944,None,448.19493862304944,None,448.19493862304944,None,448.19493862304944,None,448.19493862304944,None,449.18104484209744,None,449.18104484209744,None,450.1778478385422,None,450.1778478385422,None,h,,,,,,,,,,,,,,,,,,,,,,,,,,,,,,,,,,,,,,,,,,,,,,,27_28Exp,001,2021_May_05_1514,ComputerHuman,2020.1.3,60.01628777374219,
Human.xlsx,h,Sychronize.jpg,Number6.jpg,6,Human,,,,,0,0,0,0,0,6,6,1,,,,,,,,,,,,,,,,,,,,,,,,,,,,,451.2281212487501,None,451.2281212487501,None,451.67805539034816,None,451.67805539034816,None,v,7.4790571566236395,451.67805539034816,None,t,4.778832217942636,451.67805539034816,None,7.4790571566236395,4.778832217942636,5.688060593156364,False,False,False,459.2426960690909,None,459.2426960690909,None,459.2426960690909,None,459.2426960690909,None,459.2426960690909,None,459.2426960690909,None,459.2426960690909,None,459.2426960690909,None,460.21103655927254,None,460.21103655927254,None,461.2089902331959,None,461.2089902331959,None,h,,,,,,,,,,,,,,,,,,,,,,,,,,,,,,,,,,,,,,,,,,,,,,,27_28Exp,001,2021_May_05_1514,ComputerHuman,2020.1.3,60.01628777374219,
Human.xlsx,h,Sychronize.jpg,Number6.jpg,6,Human,,,,,0,0,0,0,0,7,7,0,,,,,,,,,,,,,,,,,,,,,,,,,,,,,462.25894638106,None,462.25894638106,None,462.7090588824799,None,462.7090588824799,None,v,7.199730920471211,462.7090588824799,None,t,5.582828568623881,462.7090588824799,None,7.199730920471211,5.582828568623881,6.350645678928253,False,False,False,470.00717064223045,None,470.00717064223045,None,470.00717064223045,None,470.00717064223045,None,470.00717064223045,None,470.00717064223045,None,470.00717064223045,None,470.00717064223045,None,470.99232956532205,None,470.99232956532205,None,471.9901058417977,None,471.9901058417977,None,h,,,,,,,,,,,,,,,,,,,,,,,,,,,,,,,,,,,,,,,,,,,,,,,27_28Exp,001,2021_May_05_1514,ComputerHuman,2020.1.3,60.01628777374219,
Human.xlsx,h,Sychronize.jpg,Number8.jpg,8,Human,,,,,0,0,0,0,0,8,8,5,,,,,,,,,,,,,,,,,,,,,,,,,,,,,473.02385081420016,None,473.02385081420016,None,473.47336279478304,None,473.47336279478304,None,v,11.0229269359902,473.47336279478304,None,t,7.822828388981179,473.47336279478304,None,11.0229269359902,7.822828388981179,7.616753958255682,False,False,False,484.5720570469134,None,484.5720570469134,None,484.5720570469134,None,484.5720570469134,None,484.5720570469134,None,484.5720570469134,None,484.5720570469134,None,484.5720570469134,None,485.5730088339442,None,485.5730088339442,None,486.5705028143002,None,486.5705028143002,None,h,,,,,,,,,,,,,,,,,,,,,,,,,,,,,,,,,,,,,,,,,,,,,,,27_28Exp,001,2021_May_05_1514,ComputerHuman,2020.1.3,60.01628777374219,
Human.xlsx,h,Sychronize.jpg,Number7.jpg,7,Human,,,,,0,0,0,0,0,9,9,3,,,,,,,,,,,,,,,,,,,,,,,,,,,,,487.6041393593291,None,487.6041393593291,None,488.0703834800315,None,488.0703834800315,None,v,7.269537938994745,488.0703834800315,None,t,7.428834752192415,488.0703834800315,None,7.269537938994745,7.428834752192415,7.255762683349767,True,False,False,495.58531309526825,None,495.58531309526825,None,495.58531309526825,None,495.58531309526825,None,495.58531309526825,None,495.58531309526825,None,495.58531309526825,None,495.58531309526825,None,496.5540853701964,None,496.5540853701964,None,497.5682120454471,None,497.5682120454471,None,h,,,,,,,,,,,,,,,,,,,,,,,,,,,,,,,,,,,,,,,,,,,,,,,27_28Exp,001,2021_May_05_1514,ComputerHuman,2020.1.3,60.01628777374219,
Human.xlsx,h,,,,,,,,,0,0,0,0,,,,,,,,,,,,,,,,,,,,,,,,,,,,,,,,,,,,,,,,,,,,,,,,,,,,,,,,,,,,,,,,,,,,,,,,,,,,,,,h,498.56886581759727,None,498.56886581759727,None,q,0,10.670435961445946,498.56886581759727,None,o,1,42.78853999654848,498.56886581759727,None,h,h,541.4591498267409,None,541.4591498267409,None,543.4256823385927,None,None,None,None,None,None,None,None,,,,,,,,,,,,,,,,,,27_28Exp,001,2021_May_05_1514,ComputerHuman,2020.1.3,60.01628777374219,
Human.xlsx,h,Sychronize.jpg,Number10.jpg,10,Human,,,,,0,1,1,4,0,0,0,8,,,,,,,,,,,,,,,,,,,,,,,,,548.4443206191013,None,548.4443206191013,None,551.5240057562746,None,551.5240057562746,None,551.9577168531428,None,551.9577168531428,None,v,9.859928835714527,551.9577168531428,None,t,8.80274751114257,551.9577168531428,None,9.859928835714527,8.80274751114257,10.065903364973705,False,False,False,561.9051943769182,None,561.9051943769182,None,561.9051943769182,None,561.9051943769182,None,561.9051943769182,None,561.9051943769182,None,561.9051943769182,None,561.9051943769182,None,562.8909650485325,None,562.8909650485325,None,563.8881732040677,None,563.8881732040677,None,h,,,,,,,,,,,,,,,,,,,,,,,,,,,,,,,,,,,,,,,,,,,,,,,27_28Exp,001,2021_May_05_1514,ComputerHuman,2020.1.3,60.01628777374219,
Human.xlsx,h,Sychronize.jpg,Number6.jpg,6,Human,,,,,0,1,1,4,0,1,1,1,,,,,,,,,,,,,,,,,,,,,,,,,,,,,564.9722040975284,None,564.9722040975284,None,565.4046977923804,None,565.4046977923804,None,v,6.236610021383967,565.4046977923804,None,t,5.831827219376919,565.4046977923804,None,6.236610021383967,5.831827219376919,6.319186719850914,False,False,False,571.736467910951,None,571.736467910951,None,571.736467910951,None,571.736467910951,None,571.736467910951,None,571.736467910951,None,571.736467910951,None,571.736467910951,None,572.7216996536099,None,572.7216996536099,None,573.7028079481756,None,573.7028079481756,None,h,,,,,,,,,,,,,,,,,,,,,,,,,,,,,,,,,,,,,,,,,,,,,,,27_28Exp,001,2021_May_05_1514,ComputerHuman,2020.1.3,60.01628777374219,
Human.xlsx,h,Sychronize.jpg,Number7.jpg,7,Human,,,,,0,1,1,4,0,2,2,3,,,,,,,,,,,,,,,,,,,,,,,,,,,,,574.7690269188602,None,574.7690269188602,None,575.2030742047432,None,575.2030742047432,None,v,7.185869539414853,575.2030742047432,None,t,7.184834988294369,575.2030742047432,None,7.185869539414853,7.184834988294369,7.372165352308293,True,False,False,582.4855977652414,None,582.4855977652414,None,582.4855977652414,None,582.4855977652414,None,582.4855977652414,None,582.4855977652414,None,582.4855977652414,None,582.4855977652414,None,583.4865386453766,None,583.4865386453766,None,584.4839309349713,None,584.4839309349713,None,h,,,,,,,,,,,,,,,,,,,,,,,,,,,,,,,,,,,,,,,,,,,,,,,27_28Exp,001,2021_May_05_1514,ComputerHuman,2020.1.3,60.01628777374219,
Human.xlsx,h,Sychronize.jpg,Number7.jpg,7,Human,,,,,0,1,1,4,0,3,3,2,,,,,,,,,,,,,,,,,,,,,,,,,,,,,585.5337411229102,None,585.5337411229102,None,585.9838747965387,None,585.9838747965387,None,v,8.49659993571322,585.9838747965387,None,t,6.94378329410074,585.9838747965387,None,8.49659993571322,6.94378329410074,7.051505267781571,False,False,False,594.5652796945046,None,594.5652796945046,None,594.5652796945046,None,594.5652796945046,None,594.5652796945046,None,594.5652796945046,None,594.5652796945046,None,594.5652796945046,None,595.5341042583732,None,595.5341042583732,None,596.5315360052664,None,596.5315360052664,None,h,,,,,,,,,,,,,,,,,,,,,,,,,,,,,,,,,,,,,,,,,,,,,,,27_28Exp,001,2021_May_05_1514,ComputerHuman,2020.1.3,60.01628777374219,
Human.xlsx,h,Sychronize.jpg,Number9.jpg,9,Human,,,,,0,1,1,4,0,4,4,7,,,,,,,,,,,,,,,,,,,,,,,,,,,,,597.5986759670409,None,597.5986759670409,None,598.048281618609,None,598.048281618609,None,v,9.135786037505568,598.048281618609,None,t,9.738730450191724,598.048281618609,None,9.135786037505568,9.738730450191724,8.674443594037216,False,False,False,607.8790685126269,None,607.8790685126269,None,607.8790685126269,None,607.8790685126269,None,607.8790685126269,None,607.8790685126269,None,607.8790685126269,None,607.8790685126269,None,608.8475254499576,None,608.8475254499576,None,609.8455596424337,None,609.8455596424337,None,h,,,,,,,,,,,,,,,,,,,,,,,,,,,,,,,,,,,,,,,,,,,,,,,27_28Exp,001,2021_May_05_1514,ComputerHuman,2020.1.3,60.01628777374219,
Human.xlsx,h,Sychronize.jpg,Number9.jpg,9,Human,,,,,0,1,1,4,0,5,5,6,,,,,,,,,,,,,,,,,,,,,,,,,,,,,610.895745476686,None,610.895745476686,None,611.3456388778218,None,611.3456388778218,None,v,8.122081202478512,611.3456388778218,None,t,8.629739767888168,611.3456388778218,None,8.122081202478512,8.629739767888168,8.504078525407477,False,False,False,620.060121695291,None,620.060121695291,None,620.060121695291,None,620.060121695291,None,620.060121695291,None,620.060121695291,None,620.060121695291,None,620.060121695291,None,621.0452164601738,None,621.0452164601738,None,622.0256555846195,None,622.0256555846195,None,h,,,,,,,,,,,,,,,,,,,,,,,,,,,,,,,,,,,,,,,,,,,,,,,27_28Exp,001,2021_May_05_1514,ComputerHuman,2020.1.3,60.01628777374219,
Human.xlsx,h,Sychronize.jpg,Number10.jpg,10,Human,,,,,0,1,1,4,0,6,6,9,,,,,,,,,,,,,,,,,,,,,,,,,,,,,623.07659591941,None,623.07659591941,None,623.526284655859,None,623.526284655859,None,v,9.840711206578817,623.526284655859,None,t,9.73967614219282,623.526284655859,None,9.840711206578817,9.73967614219282,10.483125464196064,True,False,False,633.4410594573374,None,633.4410594573374,None,633.4410594573374,None,633.4410594573374,None,633.4410594573374,None,633.4410594573374,None,633.4410594573374,None,633.4410594573374,None,634.4426717531296,None,634.4426717531296,None,635.4403219587248,None,635.4403219587248,None,h,,,,,,,,,,,,,,,,,,,,,,,,,,,,,,,,,,,,,,,,,,,,,,,27_28Exp,001,2021_May_05_1514,ComputerHuman,2020.1.3,60.01628777374219,
Human.xlsx,h,Sychronize.jpg,Number8.jpg,8,Human,,,,,0,1,1,4,0,7,7,5,,,,,,,,,,,,,,,,,,,,,,,,,,,,,636.4741612436942,None,636.4741612436942,None,636.940183697784,None,636.940183697784,None,v,6.966673018329402,636.940183697784,None,t,7.281776117363279,636.940183697784,None,6.966673018329402,7.281776117363279,8.427309167725817,False,False,False,644.3050597729957,None,644.3050597729957,None,644.3050597729957,None,644.3050597729957,None,644.3050597729957,None,644.3050597729957,None,644.3050597729957,None,644.3050597729957,None,645.2740973421182,None,645.2740973421182,None,646.2714331724887,None,646.2714331724887,None,h,,,,,,,,,,,,,,,,,,,,,,,,,,,,,,,,,,,,,,,,,,,,,,,27_28Exp,001,2021_May_05_1514,ComputerHuman,2020.1.3,60.01628777374219,
Human.xlsx,h,Sychronize.jpg,Number6.jpg,6,Human,,,,,0,1,1,4,0,8,8,0,,,,,,,,,,,,,,,,,,,,,,,,,,,,,647.3383556379349,None,647.3383556379349,None,647.7882066946527,None,647.7882066946527,None,v,5.814224131570882,647.7882066946527,None,t,5.897879378717789,647.7882066946527,None,5.814224131570882,5.897879378717789,5.629074079912018,True,False,False,653.769889205189,None,653.769889205189,None,653.769889205189,None,653.769889205189,None,653.769889205189,None,653.769889205189,None,653.769889205189,None,653.769889205189,None,654.7550253521167,None,654.7550253521167,None,655.7528699570848,None,655.7528699570848,None,h,,,,,,,,,,,,,,,,,,,,,,,,,,,,,,,,,,,,,,,,,,,,,,,27_28Exp,001,2021_May_05_1514,ComputerHuman,2020.1.3,60.01628777374219,
Human.xlsx,h,Sychronize.jpg,Number8.jpg,8,Human,,,,,0,1,1,4,0,9,9,4,,,,,,,,,,,,,,,,,,,,,,,,,,,,,656.8026381213967,None,656.8026381213967,None,657.2364335863094,None,657.2364335863094,None,v,7.785597380292074,657.2364335863094,None,t,7.748758057469331,657.2364335863094,None,7.785597380292074,7.748758057469331,7.558202210895752,True,False,False,665.1175673516841,None,665.1175673516841,None,665.1175673516841,None,665.1175673516841,None,665.1175673516841,None,665.1175673516841,None,665.1175673516841,None,665.1175673516841,None,666.1034920030002,None,666.1034920030002,None,667.1005622183857,None,667.1005622183857,None,h,,,,,,,,,,,,,,,,,,,,,,,,,,,,,,,,,,,,,,,,,,,,,,,27_28Exp,001,2021_May_05_1514,ComputerHuman,2020.1.3,60.01628777374219,
Human.xlsx,h,,,,,,,,,0,1,1,4,,,,,,,,,,,,,,,,,,,,,,,,,,,,,,,,,,,,,,,,,,,,,,,,,,,,,,,,,,,,,,,,,,,,,,,,,,,,,,,h,668.1008178888487,None,668.1008178888487,None,a,0,6.712955210512973,668.1008178888487,None,l,0,6.031838190430335,668.1008178888487,None,c,c,674.8995619277489,None,674.8995619277489,None,676.8818414304205,None,None,None,None,None,None,None,None,,,,,,,,,,,,,,,,,,27_28Exp,001,2021_May_05_1514,ComputerHuman,2020.1.3,60.01628777374219,
Computer.xlsx,c,Sychronize.jpg,Number7.jpg,7,Computer,,,,,0,2,2,5,0,0,0,3,,,,,,,,,,,,,,,,,,,,,,,,,681.9007408348398,None,681.9007408348398,None,684.9646055200442,None,684.9646055200442,None,685.4138833231646,None,685.4138833231646,None,v,6.787215129532342,685.4138833231646,None,t,6.426801578548748,685.4138833231646,None,6.787215129532342,6.426801578548748,7.162252671048622,False,False,False,692.2953009886141,None,692.2953009886141,None,692.2953009886141,None,692.2953009886141,None,692.2953009886141,None,692.2953009886141,None,692.2953009886141,None,692.2953009886141,None,693.295142517838,None,693.295142517838,None,694.2783430115992,None,694.2783430115992,None,c,,,,,,,,,,,,,,,,,,,,,,,,,,,,,,,,,,,,,,,,,,,,,,,27_28Exp,001,2021_May_05_1514,ComputerHuman,2020.1.3,60.01628777374219,
Computer.xlsx,c,Sychronize.jpg,Number10.jpg,10,Computer,,,,,0,2,2,5,0,1,1,8,,,,,,,,,,,,,,,,,,,,,,,,,,,,,695.3291874298675,None,695.3291874298675,None,695.7785659613755,None,695.7785659613755,None,v,10.306132819041068,695.7785659613755,None,t,8.857745211070778,695.7785659613755,None,10.306132819041068,8.857745211070778,10.403511785165048,False,True,False,706.1604869479752,None,706.1604869479752,None,706.1604869479752,None,706.1604869479752,None,706.1604869479752,None,706.1604869479752,None,706.1604869479752,None,706.1604869479752,None,707.1756918019282,None,707.1756918019282,None,708.1422307296011,None,708.1422307296011,None,c,,,,,,,,,,,,,,,,,,,,,,,,,,,,,,,,,,,,,,,,,,,,,,,27_28Exp,001,2021_May_05_1514,ComputerHuman,2020.1.3,60.01628777374219,
Computer.xlsx,c,Sychronize.jpg,Number6.jpg,6,Computer,,,,,0,2,2,5,0,2,2,1,,,,,,,,,,,,,,,,,,,,,,,,,,,,,709.209282794629,None,709.209282794629,None,709.6424212794818,None,709.6424212794818,None,v,6.022431313825109,709.6424212794818,None,t,5.9528235065413355,709.6424212794818,None,6.022431313825109,5.9528235065413355,5.987295321089158,False,True,True,715.742056732538,None,715.742056732538,None,715.742056732538,None,715.742056732538,None,715.742056732538,None,715.742056732538,None,715.742056732538,None,715.742056732538,None,716.7571361571931,None,716.7571361571931,None,717.7402372057304,None,717.7402372057304,None,c,,,,,,,,,,,,,,,,,,,,,,,,,,,,,,,,,,,,,,,,,,,,,,,27_28Exp,001,2021_May_05_1514,ComputerHuman,2020.1.3,60.01628777374219,
Computer.xlsx,c,Sychronize.jpg,Number10.jpg,10,Computer,,,,,0,2,2,5,0,3,3,9,,,,,,,,,,,,,,,,,,,,,,,,,,,,,718.807012107296,None,718.807012107296,None,719.2403337638352,None,719.2403337638352,None,v,10.755575187967224,719.2403337638352,None,t,10.414663166194714,719.2403337638352,None,10.755575187967224,10.414663166194714,10.359074611812066,False,False,True,730.0877822239418,None,730.0877822239418,None,730.0877822239418,None,730.0877822239418,None,730.0877822239418,None,730.0877822239418,None,730.0877822239418,None,730.0877822239418,None,731.0875339316731,None,731.0875339316731,None,732.0707459739124,None,732.0707459739124,None,c,,,,,,,,,,,,,,,,,,,,,,,,,,,,,,,,,,,,,,,,,,,,,,,27_28Exp,001,2021_May_05_1514,ComputerHuman,2020.1.3,60.01628777374219,
Computer.xlsx,c,Sychronize.jpg,Number8.jpg,8,Computer,,,,,0,2,2,5,0,4,4,4,,,,,,,,,,,,,,,,,,,,,,,,,,,,,733.1207518443885,None,733.1207518443885,None,733.5707610510913,None,733.5707610510913,None,v,8.488694681990182,733.5707610510913,None,t,8.03184171913199,733.5707610510913,None,8.488694681990182,8.03184171913199,8.296379389047205,False,True,True,742.1519898347738,None,742.1519898347738,None,742.1519898347738,None,742.1519898347738,None,742.1519898347738,None,742.1519898347738,None,742.1519898347738,None,742.1519898347738,None,743.1350209508632,None,743.1350209508632,None,744.1182785454312,None,744.1182785454312,None,c,,,,,,,,,,,,,,,,,,,,,,,,,,,,,,,,,,,,,,,,,,,,,,,27_28Exp,001,2021_May_05_1514,ComputerHuman,2020.1.3,60.01628777374219,
Computer.xlsx,c,Sychronize.jpg,Number9.jpg,9,Computer,,,,,0,2,2,5,0,5,5,7,,,,,,,,,,,,,,,,,,,,,,,,,,,,,745.1684011838474,None,745.1684011838474,None,745.6180844668488,None,745.6180844668488,None,v,9.57301909925718,745.6180844668488,None,t,8.987782673049423,745.6180844668488,None,9.57301909925718,8.987782673049423,9.505588419940926,False,True,False,755.2676330817694,None,755.2676330817694,None,755.2676330817694,None,755.2676330817694,None,755.2676330817694,None,755.2676330817694,None,755.2676330817694,None,755.2676330817694,None,756.2824664596924,None,756.2824664596924,None,757.2489190945739,None,757.2489190945739,None,c,,,,,,,,,,,,,,,,,,,,,,,,,,,,,,,,,,,,,,,,,,,,,,,27_28Exp,001,2021_May_05_1514,ComputerHuman,2020.1.3,60.01628777374219,
Computer.xlsx,c,Sychronize.jpg,Number7.jpg,7,Computer,,,,,0,2,2,5,0,6,6,2,,,,,,,,,,,,,,,,,,,,,,,,,,,,,758.3157360197661,None,758.3157360197661,None,758.7488337641557,None,758.7488337641557,None,v,6.677892107706157,758.7488337641557,None,t,7.0847369545513175,758.7488337641557,None,6.677892107706157,7.0847369545513175,6.536185883029781,False,True,False,765.9305349447313,None,765.9305349447313,None,765.9305349447313,None,765.9305349447313,None,765.9305349447313,None,765.9305349447313,None,765.9305349447313,None,765.9305349447313,None,766.9301862448651,None,766.9301862448651,None,767.9134079108358,None,767.9134079108358,None,c,,,,,,,,,,,,,,,,,,,,,,,,,,,,,,,,,,,,,,,,,,,,,,,27_28Exp,001,2021_May_05_1514,ComputerHuman,2020.1.3,60.01628777374219,
Computer.xlsx,c,Sychronize.jpg,Number6.jpg,6,Computer,,,,,0,2,2,5,0,7,7,0,,,,,,,,,,,,,,,,,,,,,,,,,,,,,768.9638186196107,None,768.9638186196107,None,769.4134865046417,None,769.4134865046417,None,v,6.8287219620606265,769.4134865046417,None,t,5.907903457293742,769.4134865046417,None,6.8287219620606265,5.907903457293742,6.073114337014015,False,False,True,776.328415927404,None,776.328415927404,None,776.328415927404,None,776.328415927404,None,776.328415927404,None,776.328415927404,None,776.328415927404,None,776.328415927404,None,777.3114444771654,None,777.3114444771654,None,778.2946497827925,None,778.2946497827925,None,c,,,,,,,,,,,,,,,,,,,,,,,,,,,,,,,,,,,,,,,,,,,,,,,27_28Exp,001,2021_May_05_1514,ComputerHuman,2020.1.3,60.01628777374219,
Computer.xlsx,c,Sychronize.jpg,Number9.jpg,9,Computer,,,,,0,2,2,5,0,8,8,6,,,,,,,,,,,,,,,,,,,,,,,,,,,,,779.3611497664324,None,779.3611497664324,None,779.794860221718,None,779.794860221718,None,v,9.691019839643104,779.794860221718,None,t,8.35519716780027,779.794860221718,None,9.691019839643104,8.35519716780027,8.991444600857582,False,False,False,789.5757252925137,None,789.5757252925137,None,789.5757252925137,None,789.5757252925137,None,789.5757252925137,None,789.5757252925137,None,789.5757252925137,None,789.5757252925137,None,790.5754577527819,None,790.5754577527819,None,791.5418981976036,None,791.5418981976036,None,c,,,,,,,,,,,,,,,,,,,,,,,,,,,,,,,,,,,,,,,,,,,,,,,27_28Exp,001,2021_May_05_1514,ComputerHuman,2020.1.3,60.01628777374219,
Computer.xlsx,c,Sychronize.jpg,Number8.jpg,8,Computer,,,,,0,2,2,5,0,9,9,5,,,,,,,,,,,,,,,,,,,,,,,,,,,,,792.6089897199304,None,792.6089897199304,None,793.0417965068423,None,793.0417965068423,None,v,8.375750250056626,793.0417965068423,None,t,7.16673403278628,793.0417965068423,None,8.375750250056626,7.16673403278628,8.550861357012971,False,True,False,801.5065954638867,None,801.5065954638867,None,801.5065954638867,None,801.5065954638867,None,801.5065954638867,None,801.5065954638867,None,801.5065954638867,None,801.5065954638867,None,802.5063385102594,None,802.5063385102594,None,803.489488960618,None,803.489488960618,None,c,,,,,,,,,,,,,,,,,,,,,,,,,,,,,,,,,,,,,,,,,,,,,,,27_28Exp,001,2021_May_05_1514,ComputerHuman,2020.1.3,60.01628777374219,
Computer.xlsx,c,,,,,,,,,0,2,2,5,,,,,,,,,,,,,,,,,,,,,,,,,,,,,,,,,,,,,,,,,,,,,,,,,,,,,,,,,,,,,,,,,,,,,,,,,,,,,,,c,804.4904025735141,None,804.4904025735141,None,a,0,4.702720693011543,804.4904025735141,None,o,0,12.213650685498578,804.4904025735141,None,c,h,816.7868442950844,None,816.7868442950844,None,818.78646544086,None,None,None,None,None,None,None,None,,,,,,,,,,,,,,,,,,27_28Exp,001,2021_May_05_1514,ComputerHuman,2020.1.3,60.01628777374219,
Computer.xlsx,c,Sychronize.jpg,Number9.jpg,9,Computer,,,,,0,3,3,7,0,0,0,6,,,,,,,,,,,,,,,,,,,,,,,,,823.7889320032054,None,823.7889320032054,None,826.8515648507969,None,826.8515648507969,None,827.2852031280977,None,827.2852031280977,None,v,8.603124376462802,827.2852031280977,None,t,7.922781745962766,827.2852031280977,None,8.603124376462802,7.922781745962766,9.218598914194011,False,False,False,835.9678413393158,None,835.9678413393158,None,835.9678413393158,None,835.9678413393158,None,835.9678413393158,None,835.9678413393158,None,835.9678413393158,None,835.9678413393158,None,836.9827071171344,None,836.9827071171344,None,837.9659169138363,None,837.9659169138363,None,c,,,,,,,,,,,,,,,,,,,,,,,,,,,,,,,,,,,,,,,,,,,,,,,27_28Exp,001,2021_May_05_1514,ComputerHuman,2020.1.3,60.01628777374219,
Computer.xlsx,c,Sychronize.jpg,Number8.jpg,8,Computer,,,,,0,3,3,7,0,1,1,5,,,,,,,,,,,,,,,,,,,,,,,,,,,,,839.0160873501186,None,839.0160873501186,None,839.4661190121947,None,839.4661190121947,None,v,7.777738320478875,839.4661190121947,None,t,7.35286662085764,839.4661190121947,None,7.777738320478875,7.35286662085764,7.704121231049165,False,True,False,847.313948572063,None,847.313948572063,None,847.313948572063,None,847.313948572063,None,847.313948572063,None,847.313948572063,None,847.313948572063,None,847.313948572063,None,848.3304786138237,None,848.3304786138237,None,849.313569076257,None,849.313569076257,None,c,,,,,,,,,,,,,,,,,,,,,,,,,,,,,,,,,,,,,,,,,,,,,,,27_28Exp,001,2021_May_05_1514,ComputerHuman,2020.1.3,60.01628777374219,
Computer.xlsx,c,Sychronize.jpg,Number6.jpg,6,Computer,,,,,0,3,3,7,0,2,2,0,,,,,,,,,,,,,,,,,,,,,,,,,,,,,850.3634822381209,None,850.3634822381209,None,850.8137493608242,None,850.8137493608242,None,v,6.541777259379614,850.8137493608242,None,t,5.456908138918152,850.8137493608242,None,6.541777259379614,5.456908138918152,5.978414550882138,False,False,False,857.4452977486244,None,857.4452977486244,None,857.4452977486244,None,857.4452977486244,None,857.4452977486244,None,857.4452977486244,None,857.4452977486244,None,857.4452977486244,None,858.4283785873263,None,858.4283785873263,None,859.4114866932669,None,859.4114866932669,None,c,,,,,,,,,,,,,,,,,,,,,,,,,,,,,,,,,,,,,,,,,,,,,,,27_28Exp,001,2021_May_05_1514,ComputerHuman,2020.1.3,60.01628777374219,
Computer.xlsx,c,Sychronize.jpg,Number8.jpg,8,Computer,,,,,0,3,3,7,0,3,3,4,,,,,,,,,,,,,,,,,,,,,,,,,,,,,860.4783889488772,None,860.4783889488772,None,860.9113660758339,None,860.9113660758339,None,v,8.423801861486027,860.9113660758339,None,t,8.522742160348116,860.9113660758339,None,8.423801861486027,8.522742160348116,8.043725409402935,False,False,False,869.5261239395454,None,869.5261239395454,None,869.5261239395454,None,869.5261239395454,None,869.5261239395454,None,869.5261239395454,None,869.5261239395454,None,869.5261239395454,None,870.5260023597393,None,870.5260023597393,None,871.5091162399185,None,871.5091162399185,None,c,,,,,,,,,,,,,,,,,,,,,,,,,,,,,,,,,,,,,,,,,,,,,,,27_28Exp,001,2021_May_05_1514,ComputerHuman,2020.1.3,60.01628777374219,
Computer.xlsx,c,Sychronize.jpg,Number7.jpg,7,Computer,,,,,0,3,3,7,0,4,4,3,,,,,,,,,,,,,,,,,,,,,,,,,,,,,872.5588523251258,None,872.5588523251258,None,873.0091534516796,None,873.0091534516796,None,v,7.601594523968743,873.0091534516796,None,t,9.240755283267845,873.0091534516796,None,7.601594523968743,9.240755283267845,7.231065633867948,False,False,False,882.340185750847,None,882.340185750847,None,882.340185750847,None,882.340185750847,None,882.340185750847,None,882.340185750847,None,882.340185750847,None,882.340185750847,None,883.3400673789515,None,883.3400673789515,None,884.323169389862,None,884.323169389862,None,c,,,,,,,,,,,,,,,,,,,,,,,,,,,,,,,,,,,,,,,,,,,,,,,27_28Exp,001,2021_May_05_1514,ComputerHuman,2020.1.3,60.01628777374219,
Computer.xlsx,c,Sychronize.jpg,Number9.jpg,9,Computer,,,,,0,3,3,7,0,5,5,7,,,,,,,,,,,,,,,,,,,,,,,,,,,,,885.3732567412635,None,885.3732567412635,None,885.8234587433849,None,885.8234587433849,None,v,9.202741223637986,885.8234587433849,None,t,7.529871420533254,885.8234587433849,None,9.202741223637986,7.529871420533254,8.65288138856089,False,False,False,895.1209359784484,None,895.1209359784484,None,895.1209359784484,None,895.1209359784484,None,895.1209359784484,None,895.1209359784484,None,895.1209359784484,None,895.1209359784484,None,896.1041024683591,None,896.1041024683591,None,897.0871515487474,None,897.0871515487474,None,c,,,,,,,,,,,,,,,,,,,,,,,,,,,,,,,,,,,,,,,,,,,,,,,27_28Exp,001,2021_May_05_1514,ComputerHuman,2020.1.3,60.01628777374219,
Computer.xlsx,c,Sychronize.jpg,Number7.jpg,7,Computer,,,,,0,3,3,7,0,6,6,2,,,,,,,,,,,,,,,,,,,,,,,,,,,,,898.1539242047752,None,898.1539242047752,None,898.6040219498068,None,898.6040219498068,None,v,6.9937975051439025,898.6040219498068,None,t,7.0768336255741815,898.6040219498068,None,6.9937975051439025,7.0768336255741815,6.780011715482127,False,True,True,905.7536777089363,None,905.7536777089363,None,905.7536777089363,None,905.7536777089363,None,905.7536777089363,None,905.7536777089363,None,905.7536777089363,None,905.7536777089363,None,906.7686028330986,None,906.7686028330986,None,907.7350339749796,None,907.7350339749796,None,c,,,,,,,,,,,,,,,,,,,,,,,,,,,,,,,,,,,,,,,,,,,,,,,27_28Exp,001,2021_May_05_1514,ComputerHuman,2020.1.3,60.01628777374219,
Computer.xlsx,c,Sychronize.jpg,Number6.jpg,6,Computer,,,,,0,3,3,7,0,7,7,1,,,,,,,,,,,,,,,,,,,,,,,,,,,,,908.8015432615598,None,908.8015432615598,None,909.2351481765918,None,909.2351481765918,None,v,7.5263472101123625,909.2351481765918,None,t,6.505804393169001,909.2351481765918,None,7.5263472101123625,6.505804393169001,5.9211764156280955,False,False,False,916.8499137392882,None,916.8499137392882,None,916.8499137392882,None,916.8499137392882,None,916.8499137392882,None,916.8499137392882,None,916.8499137392882,None,916.8499137392882,None,917.8496506906313,None,917.8496506906313,None,918.832796649915,None,918.832796649915,None,c,,,,,,,,,,,,,,,,,,,,,,,,,,,,,,,,,,,,,,,,,,,,,,,27_28Exp,001,2021_May_05_1514,ComputerHuman,2020.1.3,60.01628777374219,
Computer.xlsx,c,Sychronize.jpg,Number10.jpg,10,Computer,,,,,0,3,3,7,0,8,8,8,,,,,,,,,,,,,,,,,,,,,,,,,,,,,919.8833145028993,None,919.8833145028993,None,920.3330426966468,None,920.3330426966468,None,v,11.239952664073371,920.3330426966468,None,t,10.411630728445743,920.3330426966468,None,11.239952664073371,10.411630728445743,9.683145402118322,False,False,False,931.6634850610822,None,931.6634850610822,None,931.6634850610822,None,931.6634850610822,None,931.6634850610822,None,931.6634850610822,None,931.6634850610822,None,931.6634850610822,None,932.6632682063355,None,932.6632682063355,None,933.6464715872166,None,933.6464715872166,None,c,,,,,,,,,,,,,,,,,,,,,,,,,,,,,,,,,,,,,,,,,,,,,,,27_28Exp,001,2021_May_05_1514,ComputerHuman,2020.1.3,60.01628777374219,
Computer.xlsx,c,Sychronize.jpg,Number10.jpg,10,Computer,,,,,0,3,3,7,0,9,9,9,,,,,,,,,,,,,,,,,,,,,,,,,,,,,934.6799426040666,None,934.6799426040666,None,935.1467436180228,None,935.1467436180228,None,v,11.401775385959809,935.1467436180228,None,t,9.704729165744084,935.1467436180228,None,11.401775385959809,9.704729165744084,10.402877259521333,False,False,False,946.643883124274,None,946.643883124274,None,946.643883124274,None,946.643883124274,None,946.643883124274,None,946.643883124274,None,946.643883124274,None,946.643883124274,None,947.6435681074677,None,947.6435681074677,None,948.6267086133039,None,948.6267086133039,None,c,,,,,,,,,,,,,,,,,,,,,,,,,,,,,,,,,,,,,,,,,,,,,,,27_28Exp,001,2021_May_05_1514,ComputerHuman,2020.1.3,60.01628777374219,
Computer.xlsx,c,,,,,,,,,0,3,3,7,,,,,,,,,,,,,,,,,,,,,,,,,,,,,,,,,,,,,,,,,,,,,,,,,,,,,,,,,,,,,,,,,,,,,,,,,,,,,,,c,949.6274730583641,None,949.6274730583641,None,q,0,2.100796395848647,949.6274730583641,None,l,1,5.3158354649895045,949.6274730583641,None,h,c,955.0427887135447,None,955.0427887135447,None,957.041742293156,None,None,None,None,None,None,None,None,,,,,,,,,,,,,,,,,,27_28Exp,001,2021_May_05_1514,ComputerHuman,2020.1.3,60.01628777374219,
Human.xlsx,h,Sychronize.jpg,Number10.jpg,10,Human,,,,,0,4,4,6,0,0,0,8,,,,,,,,,,,,,,,,,,,,,,,,,962.0271976271729,None,962.0271976271729,None,965.1239382618387,None,965.1239382618387,None,965.5568881215568,None,965.5568881215568,None,v,10.155011365626706,965.5568881215568,None,t,10.581669871369286,965.5568881215568,None,10.155011365626706,10.581669871369286,10.127074802910823,False,False,False,976.237760698863,None,976.237760698863,None,976.237760698863,None,976.237760698863,None,976.237760698863,None,976.237760698863,None,976.237760698863,None,976.237760698863,None,977.2229786475068,None,977.2229786475068,None,978.2207491497434,None,978.2207491497434,None,h,,,,,,,,,,,,,,,,,,,,,,,,,,,,,,,,,,,,,,,,,,,,,,,27_28Exp,001,2021_May_05_1514,ComputerHuman,2020.1.3,60.01628777374219,
Human.xlsx,h,Sychronize.jpg,Number7.jpg,7,Human,,,,,0,4,4,6,0,1,1,2,,,,,,,,,,,,,,,,,,,,,,,,,,,,,979.2704146609208,None,979.2704146609208,None,979.7210991327738,None,979.7210991327738,None,v,7.549945882550674,979.7210991327738,None,t,6.732782342634437,979.7210991327738,None,7.549945882550674,6.732782342634437,6.589809785780879,False,False,False,987.3689822005881,None,987.3689822005881,None,987.3689822005881,None,987.3689822005881,None,987.3689822005881,None,987.3689822005881,None,987.3689822005881,None,987.3689822005881,None,988.3544282316652,None,988.3544282316652,None,989.3519074556334,None,989.3519074556334,None,h,,,,,,,,,,,,,,,,,,,,,,,,,,,,,,,,,,,,,,,,,,,,,,,27_28Exp,001,2021_May_05_1514,ComputerHuman,2020.1.3,60.01628777374219,
Human.xlsx,h,Sychronize.jpg,Number8.jpg,8,Human,,,,,0,4,4,6,0,2,2,5,,,,,,,,,,,,,,,,,,,,,,,,,,,,,990.4018389025869,None,990.4018389025869,None,990.8353119724993,None,990.8353119724993,None,v,9.343331427834528,990.8353119724993,None,None,,990.8353119724993,None,9.343331427834528,13,7.735079047359485,False,False,False,1003.8987195304649,None,1003.8987195304649,None,1003.8987195304649,None,1003.8987195304649,None,1003.8987195304649,None,1003.8987195304649,None,1003.8987195304649,None,1003.8987195304649,None,1004.9009147035863,None,1004.9009147035863,None,1005.8984051552407,None,1005.8984051552407,None,h,,,,,,,,,,,,,,,,,,,,,,,,,,,,,,,,,,,,,,,,,,,,,,,27_28Exp,001,2021_May_05_1514,ComputerHuman,2020.1.3,60.01628777374219,
Human.xlsx,h,Sychronize.jpg,Number10.jpg,10,Human,,,,,0,4,4,6,0,3,3,9,,,,,,,,,,,,,,,,,,,,,,,,,,,,,1006.9483093349554,None,1006.9483093349554,None,1007.3821635046297,None,1007.3821635046297,None,v,9.815868185676663,1007.3821635046297,None,t,6.502851190808087,1007.3821635046297,None,9.815868185676663,6.502851190808087,9.796292608312752,False,False,False,1017.2961106652119,None,1017.2961106652119,None,1017.2961106652119,None,1017.2961106652119,None,1017.2961106652119,None,1017.2961106652119,None,1017.2961106652119,None,1017.2961106652119,None,1018.2817020146322,None,1018.2817020146322,None,1019.2790638290776,None,1019.2790638290776,None,h,,,,,,,,,,,,,,,,,,,,,,,,,,,,,,,,,,,,,,,,,,,,,,,27_28Exp,001,2021_May_05_1514,ComputerHuman,2020.1.3,60.01628777374219,
Human.xlsx,h,Sychronize.jpg,Number8.jpg,8,Human,,,,,0,4,4,6,0,4,4,4,,,,,,,,,,,,,,,,,,,,,,,,,,,,,1020.3292474177929,None,1020.3292474177929,None,1020.7790195599132,None,1020.7790195599132,None,v,8.850642255751154,1020.7790195599132,None,t,7.809748775700882,1020.7790195599132,None,8.850642255751154,7.809748775700882,7.929885979598237,False,False,False,1029.7268948645847,None,1029.7268948645847,None,1029.7268948645847,None,1029.7268948645847,None,1029.7268948645847,None,1029.7268948645847,None,1029.7268948645847,None,1029.7268948645847,None,1030.6962038229312,None,1030.6962038229312,None,1031.7099490776295,None,1031.7099490776295,None,h,,,,,,,,,,,,,,,,,,,,,,,,,,,,,,,,,,,,,,,,,,,,,,,27_28Exp,001,2021_May_05_1514,ComputerHuman,2020.1.3,60.01628777374219,
Human.xlsx,h,Sychronize.jpg,Number9.jpg,9,Human,,,,,0,4,4,6,0,5,5,7,,,,,,,,,,,,,,,,,,,,,,,,,,,,,1032.7594926882098,None,1032.7594926882098,None,1033.2102381103614,None,1033.2102381103614,None,v,10.910928837639403,1033.2102381103614,None,t,6.73379123047107,1033.2102381103614,None,10.910928837639403,6.73379123047107,8.717487217473202,False,False,False,1044.2073654265528,None,1044.2073654265528,None,1044.2073654265528,None,1044.2073654265528,None,1044.2073654265528,None,1044.2073654265528,None,1044.2073654265528,None,1044.2073654265528,None,1045.1756138497044,None,1045.1756138497044,None,1046.1736714599265,None,1046.1736714599265,None,h,,,,,,,,,,,,,,,,,,,,,,,,,,,,,,,,,,,,,,,,,,,,,,,27_28Exp,001,2021_May_05_1514,ComputerHuman,2020.1.3,60.01628777374219,
Human.xlsx,h,Sychronize.jpg,Number7.jpg,7,Human,,,,,0,4,4,6,0,6,6,3,,,,,,,,,,,,,,,,,,,,,,,,,,,,,1047.2399943669093,None,1047.2399943669093,None,1047.6902457708516,None,1047.6902457708516,None,v,8.31841719132035,1047.6902457708516,None,t,7.177739411169114,1047.6902457708516,None,8.31841719132035,7.177739411169114,7.170124525874835,False,False,False,1056.089584428033,None,1056.089584428033,None,1056.089584428033,None,1056.089584428033,None,1056.089584428033,None,1056.089584428033,None,1056.089584428033,None,1056.089584428033,None,1057.0727047240334,None,1057.0727047240334,None,1058.0712300475993,None,1058.0712300475993,None,h,,,,,,,,,,,,,,,,,,,,,,,,,,,,,,,,,,,,,,,,,,,,,,,27_28Exp,001,2021_May_05_1514,ComputerHuman,2020.1.3,60.01628777374219,
Human.xlsx,h,Sychronize.jpg,Number9.jpg,9,Human,,,,,0,4,4,6,0,7,7,6,,,,,,,,,,,,,,,,,,,,,,,,,,,,,1059.1376216038657,None,1059.1376216038657,None,1059.5714270133008,None,1059.5714270133008,None,v,10.732753792231051,1059.5714270133008,None,t,8.92776908434007,1059.5714270133008,None,10.732753792231051,8.92776908434007,9.538104699532818,False,False,False,1070.3869436119917,None,1070.3869436119917,None,1070.3869436119917,None,1070.3869436119917,None,1070.3869436119917,None,1070.3869436119917,None,1070.3869436119917,None,1070.3869436119917,None,1071.38780557753,None,1071.38780557753,None,1072.3850278478708,None,1072.3850278478708,None,h,,,,,,,,,,,,,,,,,,,,,,,,,,,,,,,,,,,,,,,,,,,,,,,27_28Exp,001,2021_May_05_1514,ComputerHuman,2020.1.3,60.01628777374219,
Human.xlsx,h,Sychronize.jpg,Number6.jpg,6,Human,,,,,0,4,4,6,0,8,8,0,,,,,,,,,,,,,,,,,,,,,,,,,,,,,1073.435092743899,None,1073.435092743899,None,1073.8685590771997,None,1073.8685590771997,None,v,7.2672741165897605,1073.8685590771997,None,t,6.00685113434929,1073.8685590771997,None,7.2672741165897605,6.00685113434929,6.44107812710474,False,False,False,1081.233211881844,None,1081.233211881844,None,1081.233211881844,None,1081.233211881844,None,1081.233211881844,None,1081.233211881844,None,1081.233211881844,None,1081.233211881844,None,1082.2181825005919,None,1082.2181825005919,None,1083.2161079449038,None,1083.2161079449038,None,h,,,,,,,,,,,,,,,,,,,,,,,,,,,,,,,,,,,,,,,,,,,,,,,27_28Exp,001,2021_May_05_1514,ComputerHuman,2020.1.3,60.01628777374219,
Human.xlsx,h,Sychronize.jpg,Number6.jpg,6,Human,,,,,0,4,4,6,0,9,9,1,,,,,,,,,,,,,,,,,,,,,,,,,,,,,1084.2656412901706,None,1084.2656412901706,None,1084.7163838252027,None,1084.7163838252027,None,v,6.047190287473768,1084.7163838252027,None,t,5.4068676230090205,1084.7163838252027,None,6.047190287473768,5.4068676230090205,6.4356440226594405,False,False,False,1090.8479517812566,None,1090.8479517812566,None,1090.8479517812566,None,1090.8479517812566,None,1090.8479517812566,None,1090.8479517812566,None,1090.8479517812566,None,1090.8479517812566,None,1091.8171587280508,None,1091.8171587280508,None,1092.8141994306602,None,1092.8141994306602,None,h,,,,,,,,,,,,,,,,,,,,,,,,,,,,,,,,,,,,,,,,,,,,,,,27_28Exp,001,2021_May_05_1514,ComputerHuman,2020.1.3,60.01628777374219,
Human.xlsx,h,,,,,,,,,0,4,4,6,,,,,,,,,,,,,,,,,,,,,,,,,,,,,,,,,,,,,,,,,,,,,,,,,,,,,,,,,,,,,,,,,,,,,,,,,,,,,,,h,1093.8145680195712,None,1093.8145680195712,None,q,0,5.8566814679657,1093.8145680195712,None,o,1,10.971691794229173,1093.8145680195712,None,h,h,1104.878621650701,None,1104.878621650701,None,None,None,1106.8779784646558,None,1106.8779784646558,None,"['space', 'space']",1107.8610724557902,None,"[9.741584207328742, 10.869550963111124]",,,,,,,,,,,,,,,,,27_28Exp,001,2021_May_05_1514,ComputerHuman,2020.1.3,60.01628777374219,
Computer.xlsx,c,Sychronize.jpg,Number10.jpg,10,Computer,,,,,0,5,5,9,0,0,0,9,,,,,,,,,,,,,,,,,,,,,,,,,1118.794730942927,None,1118.794730942927,None,1121.8584711612061,None,1121.8584711612061,None,1122.3085663399092,None,1122.3085663399092,None,v,10.685556447354429,1122.3085663399092,None,t,10.276700882239766,1122.3085663399092,None,10.685556447354429,10.276700882239766,10.363141070914066,False,False,True,1133.0891767026146,None,1133.0891767026146,None,1133.0891767026146,None,1133.0891767026146,None,1133.0891767026146,None,1133.0891767026146,None,1133.0891767026146,None,1133.0891767026146,None,1134.089116073107,None,1134.089116073107,None,1135.0722941114955,None,1135.0722941114955,None,c,,,,,,,,,,,,,,,,,,,,,,,,,,,,,,,,,,,,,,,,,,,,,,,27_28Exp,001,2021_May_05_1514,ComputerHuman,2020.1.3,60.01628777374219,
Computer.xlsx,c,Sychronize.jpg,Number6.jpg,6,Computer,,,,,0,5,5,9,0,1,1,0,,,,,,,,,,,,,,,,,,,,,,,,,,,,,1136.13891824127,None,1136.13891824127,None,1136.5890564059728,None,1136.5890564059728,None,v,6.592743257453549,1136.5890564059728,None,t,6.219883976295023,1136.5890564059728,None,6.592743257453549,6.219883976295023,6.211618201341855,False,False,True,1143.2554542497437,None,1143.2554542497437,None,1143.2554542497437,None,1143.2554542497437,None,1143.2554542497437,None,1143.2554542497437,None,1143.2554542497437,None,1143.2554542497437,None,1144.2537563027422,None,1144.2537563027422,None,1145.2369186223696,None,1145.2369186223696,None,c,,,,,,,,,,,,,,,,,,,,,,,,,,,,,,,,,,,,,,,,,,,,,,,27_28Exp,001,2021_May_05_1514,ComputerHuman,2020.1.3,60.01628777374219,
Computer.xlsx,c,Sychronize.jpg,Number8.jpg,8,Computer,,,,,0,5,5,9,0,2,2,5,,,,,,,,,,,,,,,,,,,,,,,,,,,,,1146.320400642352,None,1146.320400642352,None,1146.7371143049068,None,1146.7371143049068,None,v,10.504456108406885,1146.7371143049068,None,t,8.307711431773896,1146.7371143049068,None,10.504456108406885,8.307711431773896,8.13849657397044,False,False,True,1157.3342979520062,None,1157.3342979520062,None,1157.3342979520062,None,1157.3342979520062,None,1157.3342979520062,None,1157.3342979520062,None,1157.3342979520062,None,1157.3342979520062,None,1158.3342238492746,None,1158.3342238492746,None,1159.300761814574,None,1159.300761814574,None,c,,,,,,,,,,,,,,,,,,,,,,,,,,,,,,,,,,,,,,,,,,,,,,,27_28Exp,001,2021_May_05_1514,ComputerHuman,2020.1.3,60.01628777374219,
Computer.xlsx,c,Sychronize.jpg,Number6.jpg,6,Computer,,,,,0,5,5,9,0,3,3,1,,,,,,,,,,,,,,,,,,,,,,,,,,,,,1160.367115517497,None,1160.367115517497,None,1160.8008134619322,None,1160.8008134619322,None,v,7.080114034800772,1160.8008134619322,None,t,6.127794170200104,1160.8008134619322,None,7.080114034800772,6.127794170200104,5.697570093437828,False,False,False,1167.96562018212,None,1167.96562018212,None,1167.96562018212,None,1167.96562018212,None,1167.96562018212,None,1167.96562018212,None,1167.96562018212,None,1167.96562018212,None,1168.9654424638807,None,1168.9654424638807,None,1169.9485505698212,None,1169.9485505698212,None,c,,,,,,,,,,,,,,,,,,,,,,,,,,,,,,,,,,,,,,,,,,,,,,,27_28Exp,001,2021_May_05_1514,ComputerHuman,2020.1.3,60.01628777374219,
Computer.xlsx,c,Sychronize.jpg,Number9.jpg,9,Computer,,,,,0,5,5,9,0,4,4,7,,,,,,,,,,,,,,,,,,,,,,,,,,,,,1170.983068327851,None,1170.983068327851,None,1171.4484527285526,None,1171.4484527285526,None,v,11.291956421178384,1171.4484527285526,None,t,6.595832796008381,1171.4484527285526,None,11.291956421178384,6.595832796008381,8.500853388179706,False,False,False,1182.8141712010483,None,1182.8141712010483,None,1182.8141712010483,None,1182.8141712010483,None,1182.8141712010483,None,1182.8141712010483,None,1182.8141712010483,None,1182.8141712010483,None,1183.8289224564642,None,1183.8289224564642,None,1184.8122387557928,None,1184.8122387557928,None,c,,,,,,,,,,,,,,,,,,,,,,,,,,,,,,,,,,,,,,,,,,,,,,,27_28Exp,001,2021_May_05_1514,ComputerHuman,2020.1.3,60.01628777374219,
Computer.xlsx,c,Sychronize.jpg,Number7.jpg,7,Computer,,,,,0,5,5,9,0,5,5,3,,,,,,,,,,,,,,,,,,,,,,,,,,,,,1185.862309105269,None,1185.862309105269,None,1186.3123876028376,None,1186.3123876028376,None,v,8.231629419618457,1186.3123876028376,None,t,9.087095089523245,1186.3123876028376,None,8.231629419618457,9.087095089523245,7.459024065383233,False,False,False,1195.4933410194872,None,1195.4933410194872,None,1195.4933410194872,None,1195.4933410194872,None,1195.4933410194872,None,1195.4933410194872,None,1195.4933410194872,None,1195.4933410194872,None,1196.4764856956067,None,1196.4764856956067,None,1197.476332357487,None,1197.476332357487,None,c,,,,,,,,,,,,,,,,,,,,,,,,,,,,,,,,,,,,,,,,,,,,,,,27_28Exp,001,2021_May_05_1514,ComputerHuman,2020.1.3,60.01628777374219,
Computer.xlsx,c,Sychronize.jpg,Number8.jpg,8,Computer,,,,,0,5,5,9,0,6,6,4,,,,,,,,,,,,,,,,,,,,,,,,,,,,,1198.5267956759935,None,1198.5267956759935,None,1198.976566855741,None,1198.976566855741,None,v,9.066923427818892,1198.976566855741,None,t,7.633724634250029,1198.976566855741,None,9.066923427818892,7.633724634250029,7.560060902940524,False,False,True,1208.1407698471817,None,1208.1407698471817,None,1208.1407698471817,None,1208.1407698471817,None,1208.1407698471817,None,1208.1407698471817,None,1208.1407698471817,None,1208.1407698471817,None,1209.1239517350627,None,1209.1239517350627,None,1210.1071191873466,None,1210.1071191873466,None,c,,,,,,,,,,,,,,,,,,,,,,,,,,,,,,,,,,,,,,,,,,,,,,,27_28Exp,001,2021_May_05_1514,ComputerHuman,2020.1.3,60.01628777374219,
Computer.xlsx,c,Sychronize.jpg,Number7.jpg,7,Computer,,,,,0,5,5,9,0,7,7,2,,,,,,,,,,,,,,,,,,,,,,,,,,,,,1211.1735761849864,None,1211.1735761849864,None,1211.6073860854963,None,1211.6073860854963,None,v,7.088054896329595,1211.6073860854963,None,t,5.850883169826375,1211.6073860854963,None,7.088054896329595,5.850883169826375,7.026024072024216,False,True,False,1218.7886051171308,None,1218.7886051171308,None,1218.7886051171308,None,1218.7886051171308,None,1218.7886051171308,None,1218.7886051171308,None,1218.7886051171308,None,1218.7886051171308,None,1219.7883962821602,None,1219.7883962821602,None,1220.7716288550264,None,1220.7716288550264,None,c,,,,,,,,,,,,,,,,,,,,,,,,,,,,,,,,,,,,,,,,,,,,,,,27_28Exp,001,2021_May_05_1514,ComputerHuman,2020.1.3,60.01628777374219,
Computer.xlsx,c,Sychronize.jpg,Number9.jpg,9,Computer,,,,,0,5,5,9,0,8,8,6,,,,,,,,,,,,,,,,,,,,,,,,,,,,,1221.821871790085,None,1221.821871790085,None,1222.2717093735787,None,1222.2717093735787,None,v,10.438990355096394,1222.2717093735787,None,t,7.66280658802134,1222.2717093735787,None,10.438990355096394,7.66280658802134,9.627470914925944,False,False,False,1232.802505313904,None,1232.802505313904,None,1232.802505313904,None,1232.802505313904,None,1232.802505313904,None,1232.802505313904,None,1232.802505313904,None,1232.802505313904,None,1233.8022085821872,None,1233.8022085821872,None,1234.7848031016647,None,1234.7848031016647,None,c,,,,,,,,,,,,,,,,,,,,,,,,,,,,,,,,,,,,,,,,,,,,,,,27_28Exp,001,2021_May_05_1514,ComputerHuman,2020.1.3,60.01628777374219,
Computer.xlsx,c,Sychronize.jpg,Number10.jpg,10,Computer,,,,,0,5,5,9,0,9,9,8,,,,,,,,,,,,,,,,,,,,,,,,,,,,,1235.8359160220375,None,1235.8359160220375,None,1236.285501784561,None,1236.285501784561,None,v,12.440702416903605,1236.285501784561,None,t,9.307748001953314,1236.285501784561,None,12.440702416903605,9.307748001953314,10.431860458802676,False,False,False,1248.800811857977,None,1248.800811857977,None,1248.800811857977,None,1248.800811857977,None,1248.800811857977,None,1248.800811857977,None,1248.800811857977,None,1248.800811857977,None,1249.8156962416765,None,1249.8156962416765,None,1250.7988361059306,None,1250.7988361059306,None,c,,,,,,,,,,,,,,,,,,,,,,,,,,,,,,,,,,,,,,,,,,,,,,,27_28Exp,001,2021_May_05_1514,ComputerHuman,2020.1.3,60.01628777374219,
Computer.xlsx,c,,,,,,,,,0,5,5,9,,,,,,,,,,,,,,,,,,,,,,,,,,,,,,,,,,,,,,,,,,,,,,,,,,,,,,,,,,,,,,,,,,,,,,,,,,,,,,,c,1251.7992454353039,None,1251.7992454353039,None,a,1,9.95851883075511,1251.7992454353039,None,l,0,5.053858570927332,1251.7992454353039,None,c,c,1261.847292555659,None,1261.847292555659,None,1263.8295601890618,None,None,None,None,None,None,None,None,,,,,,,,,,,,,,,,,,27_28Exp,001,2021_May_05_1514,ComputerHuman,2020.1.3,60.01628777374219,
Human.xlsx,h,Sychronize.jpg,Number9.jpg,9,Human,,,,,0,6,6,8,0,0,0,6,,,,,,,,,,,,,,,,,,,,,,,,,1268.8488926613913,None,1268.8488926613913,None,1271.9286284835503,None,1271.9286284835503,None,1272.361287706582,None,1272.361287706582,None,v,12.159658023914744,1272.361287706582,None,t,7.334824370110255,1272.361287706582,None,12.159658023914744,7.334824370110255,9.529387877095777,False,False,False,1284.5937752422456,None,1284.5937752422456,None,1284.5937752422456,None,1284.5937752422456,None,1284.5937752422456,None,1284.5937752422456,None,1284.5937752422456,None,1284.5937752422456,None,1285.6104429033644,None,1285.6104429033644,None,1286.6082095561092,None,1286.6082095561092,None,h,,,,,,,,,,,,,,,,,,,,,,,,,,,,,,,,,,,,,,,,,,,,,,,27_28Exp,001,2021_May_05_1514,ComputerHuman,2020.1.3,60.01628777374219,
Human.xlsx,h,Sychronize.jpg,Number10.jpg,10,Human,,,,,0,6,6,8,0,1,1,9,,,,,,,,,,,,,,,,,,,,,,,,,,,,,1287.6585047801077,None,1287.6585047801077,None,1288.1081684948554,None,1288.1081684948554,None,v,11.592234803646534,1288.1081684948554,None,t,8.915684564882213,1288.1081684948554,None,11.592234803646534,8.915684564882213,10.228761904208426,False,False,False,1299.788924625011,None,1299.788924625011,None,1299.788924625011,None,1299.788924625011,None,1299.788924625011,None,1299.788924625011,None,1299.788924625011,None,1299.788924625011,None,1300.773946249536,None,1300.773946249536,None,1301.7718120267132,None,1301.7718120267132,None,h,,,,,,,,,,,,,,,,,,,,,,,,,,,,,,,,,,,,,,,,,,,,,,,27_28Exp,001,2021_May_05_1514,ComputerHuman,2020.1.3,60.01628777374219,
Human.xlsx,h,Sychronize.jpg,Number6.jpg,6,Human,,,,,0,6,6,8,0,2,2,0,,,,,,,,,,,,,,,,,,,,,,,,,,,,,1302.8221255358017,None,1302.8221255358017,None,1303.2718999234598,None,1303.2718999234598,None,v,6.680168440962007,1303.2718999234598,None,t,6.383836109138429,1303.2718999234598,None,6.680168440962007,6.383836109138429,6.444383188785992,True,False,False,1310.021788769362,None,1310.021788769362,None,1310.021788769362,None,1310.021788769362,None,1310.021788769362,None,1310.021788769362,None,1310.021788769362,None,1310.021788769362,None,1311.005683134154,None,1311.005683134154,None,1312.0031078236448,None,1312.0031078236448,None,h,,,,,,,,,,,,,,,,,,,,,,,,,,,,,,,,,,,,,,,,,,,,,,,27_28Exp,001,2021_May_05_1514,ComputerHuman,2020.1.3,60.01628777374219,
Human.xlsx,h,Sychronize.jpg,Number7.jpg,7,Human,,,,,0,6,6,8,0,3,3,3,,,,,,,,,,,,,,,,,,,,,,,,,,,,,1313.0866684374337,None,1313.0866684374337,None,1313.5028896857343,None,1313.5028896857343,None,v,9.996712533369646,1313.5028896857343,None,t,6.78830164880128,1313.5028896857343,None,9.996712533369646,6.78830164880128,7.2883697442685325,False,False,False,1323.5840334597892,None,1323.5840334597892,None,1323.5840334597892,None,1323.5840334597892,None,1323.5840334597892,None,1323.5840334597892,None,1323.5840334597892,None,1323.5840334597892,None,1324.5531156188667,None,1324.5531156188667,None,1325.5503885741932,None,1325.5503885741932,None,h,,,,,,,,,,,,,,,,,,,,,,,,,,,,,,,,,,,,,,,,,,,,,,,27_28Exp,001,2021_May_05_1514,ComputerHuman,2020.1.3,60.01628777374219,
Human.xlsx,h,Sychronize.jpg,Number6.jpg,6,Human,,,,,0,6,6,8,0,4,4,1,,,,,,,,,,,,,,,,,,,,,,,,,,,,,1326.600758863296,None,1326.600758863296,None,1327.0503962731777,None,1327.0503962731777,None,v,7.0728333612414644,1327.0503962731777,None,None,,1327.0503962731777,None,7.0728333612414644,13,5.85362502144388,False,False,False,1340.115745258548,None,1340.115745258548,None,1340.115745258548,None,1340.115745258548,None,1340.115745258548,None,1340.115745258548,None,1340.115745258548,None,1340.115745258548,None,1341.099638019385,None,1341.099638019385,None,1342.0969430538157,None,1342.0969430538157,None,h,,,,,,,,,,,,,,,,,,,,,,,,,,,,,,,,,,,,,,,,,,,,,,,27_28Exp,001,2021_May_05_1514,ComputerHuman,2020.1.3,60.01628777374219,
Human.xlsx,h,Sychronize.jpg,Number8.jpg,8,Human,,,,,0,6,6,8,0,5,5,5,,,,,,,,,,,,,,,,,,,,,,,,,,,,,1343.1639611149926,None,1343.1639611149926,None,1343.5968724797854,None,1343.5968724797854,None,v,9.701642835099847,1343.5968724797854,None,t,6.1248595737206415,1343.5968724797854,None,9.701642835099847,6.1248595737206415,8.15996051374864,False,False,False,1353.3945999318644,None,1353.3945999318644,None,1353.3945999318644,None,1353.3945999318644,None,1353.3945999318644,None,1353.3945999318644,None,1353.3945999318644,None,1353.3945999318644,None,1354.3800841370753,None,1354.3800841370753,None,1355.3775996104318,None,1355.3775996104318,None,h,,,,,,,,,,,,,,,,,,,,,,,,,,,,,,,,,,,,,,,,,,,,,,,27_28Exp,001,2021_May_05_1514,ComputerHuman,2020.1.3,60.01628777374219,
Human.xlsx,h,Sychronize.jpg,Number7.jpg,7,Human,,,,,0,6,6,8,0,6,6,2,,,,,,,,,,,,,,,,,,,,,,,,,,,,,1356.4297753115366,None,1356.4297753115366,None,1356.8611603525364,None,1356.8611603525364,None,v,8.421304182409585,1356.8611603525364,None,t,7.328852524015929,1356.8611603525364,None,8.421304182409585,7.328852524015929,7.1944886000657435,False,False,False,1365.3756161593997,None,1365.3756161593997,None,1365.3756161593997,None,1365.3756161593997,None,1365.3756161593997,None,1365.3756161593997,None,1365.3756161593997,None,1365.3756161593997,None,1366.3603169928797,None,1366.3603169928797,None,1367.358483672057,None,1367.358483672057,None,h,,,,,,,,,,,,,,,,,,,,,,,,,,,,,,,,,,,,,,,,,,,,,,,27_28Exp,001,2021_May_05_1514,ComputerHuman,2020.1.3,60.01628777374219,
Human.xlsx,h,Sychronize.jpg,Number10.jpg,10,Human,,,,,0,6,6,8,0,7,7,8,,,,,,,,,,,,,,,,,,,,,,,,,,,,,1368.408979390459,None,1368.408979390459,None,1368.8587534573257,None,1368.8587534573257,None,v,11.87489470033961,1368.8587534573257,None,t,7.11082656945382,1368.8587534573257,None,11.87489470033961,7.11082656945382,10.528527620601228,False,False,False,1380.8056978263844,None,1380.8056978263844,None,1380.8056978263844,None,1380.8056978263844,None,1380.8056978263844,None,1380.8056978263844,None,1380.8056978263844,None,1380.8056978263844,None,1381.8078926787143,None,1381.8078926787143,None,1382.8054177758017,None,1382.8054177758017,None,h,,,,,,,,,,,,,,,,,,,,,,,,,,,,,,,,,,,,,,,,,,,,,,,27_28Exp,001,2021_May_05_1514,ComputerHuman,2020.1.3,60.01628777374219,
Human.xlsx,h,Sychronize.jpg,Number8.jpg,8,Human,,,,,0,6,6,8,0,8,8,4,,,,,,,,,,,,,,,,,,,,,,,,,,,,,1383.8562140754134,None,1383.8562140754134,None,1384.3055942108763,None,1384.3055942108763,None,v,9.415569721688371,1384.3055942108763,None,t,8.246791929153915,1384.3055942108763,None,9.415569721688371,8.246791929153915,8.185946544910855,False,False,False,1393.8198585054856,None,1393.8198585054856,None,1393.8198585054856,None,1393.8198585054856,None,1393.8198585054856,None,1393.8198585054856,None,1393.8198585054856,None,1393.8198585054856,None,1394.7888360866832,None,1394.7888360866832,None,1395.7860638104717,None,1395.7860638104717,None,h,,,,,,,,,,,,,,,,,,,,,,,,,,,,,,,,,,,,,,,,,,,,,,,27_28Exp,001,2021_May_05_1514,ComputerHuman,2020.1.3,60.01628777374219,
Human.xlsx,h,Sychronize.jpg,Number9.jpg,9,Human,,,,,0,6,6,8,0,9,9,7,,,,,,,,,,,,,,,,,,,,,,,,,,,,,1396.8531485961862,None,1396.8531485961862,None,1397.2858697318893,None,1397.2858697318893,None,v,10.63886883944906,1397.2858697318893,None,t,8.81768642932002,1397.2858697318893,None,10.63886883944906,8.81768642932002,8.553514367054264,False,False,False,1408.0169117831042,None,1408.0169117831042,None,1408.0169117831042,None,1408.0169117831042,None,1408.0169117831042,None,1408.0169117831042,None,1408.0169117831042,None,1408.0169117831042,None,1408.9848961952262,None,1408.9848961952262,None,1409.9831950403136,None,1409.9831950403136,None,h,,,,,,,,,,,,,,,,,,,,,,,,,,,,,,,,,,,,,,,,,,,,,,,27_28Exp,001,2021_May_05_1514,ComputerHuman,2020.1.3,60.01628777374219,
Human.xlsx,h,,,,,,,,,0,6,6,8,,,,,,,,,,,,,,,,,,,,,,,,,,,,,,,,,,,,,,,,,,,,,,,,,,,,,,,,,,,,,,,,,,,,,,,,,,,,,,,h,1410.9836897001055,None,1410.9836897001055,None,q,1,14.856419381681917,1410.9836897001055,None,o,0,8.507761218544147,1410.9836897001055,None,h,h,1425.9136481833289,None,1425.9136481833289,None,1427.9129498212237,None,None,None,None,None,None,None,None,,,,,,,,,,,,,,,,,,27_28Exp,001,2021_May_05_1514,ComputerHuman,2020.1.3,60.01628777374219,
Human.xlsx,h,Sychronize.jpg,Number8.jpg,8,Human,,,,,0,7,7,2,0,0,0,5,,,,,,,,,,,,,,,,,,,,,,,,,1432.9319342352696,None,1432.9319342352696,None,1435.9947149675331,None,1435.9947149675331,None,1436.4448072591163,None,1436.4448072591163,None,None,,1436.4448072591163,None,t,9.789725640250253,1436.4448072591163,None,13,9.789725640250253,8.546107770491048,False,False,False,1449.5095951809485,None,1449.5095951809485,None,1449.5095951809485,None,1449.5095951809485,None,1449.5095951809485,None,1449.5095951809485,None,1449.5095951809485,None,1449.5095951809485,None,1450.5105209839053,None,1450.5105209839053,None,1451.5081699063353,None,1451.5081699063353,None,h,,,,,,,,,,,,,,,,,,,,,,,,,,,,,,,,,,,,,,,,,,,,,,,27_28Exp,001,2021_May_05_1514,ComputerHuman,2020.1.3,60.01628777374219,
Human.xlsx,h,Sychronize.jpg,Number8.jpg,8,Human,,,,,0,7,7,2,0,1,1,4,,,,,,,,,,,,,,,,,,,,,,,,,,,,,1452.5579560349456,None,1452.5579560349456,None,1453.02473170641,None,1453.02473170641,None,None,,1453.02473170641,None,t,7.813775344898204,1453.02473170641,None,13,7.813775344898204,8.498549664694854,False,False,False,1466.0884366376736,None,1466.0884366376736,None,1466.0884366376736,None,1466.0884366376736,None,1466.0884366376736,None,1466.0884366376736,None,1466.0884366376736,None,1466.0884366376736,None,1467.0899879831672,None,1467.0899879831672,None,1468.0880702943,None,1468.0880702943,None,h,,,,,,,,,,,,,,,,,,,,,,,,,,,,,,,,,,,,,,,,,,,,,,,27_28Exp,001,2021_May_05_1514,ComputerHuman,2020.1.3,60.01628777374219,
Human.xlsx,h,Sychronize.jpg,Number7.jpg,7,Human,,,,,0,7,7,2,0,2,2,2,,,,,,,,,,,,,,,,,,,,,,,,,,,,,1469.1383190035972,None,1469.1383190035972,None,1469.5882855450914,None,1469.5882855450914,None,None,,1469.5882855450914,None,t,7.789793968743652,1469.5882855450914,None,13,7.789793968743652,6.765031930879007,False,False,False,1482.668424922385,None,1482.668424922385,None,1482.668424922385,None,1482.668424922385,None,1482.668424922385,None,1482.668424922385,None,1482.668424922385,None,1482.668424922385,None,1483.6530522947146,None,1483.6530522947146,None,1484.651277999445,None,1484.651277999445,None,h,,,,,,,,,,,,,,,,,,,,,,,,,,,,,,,,,,,,,,,,,,,,,,,27_28Exp,001,2021_May_05_1514,ComputerHuman,2020.1.3,60.01628777374219,
Human.xlsx,h,Sychronize.jpg,Number6.jpg,6,Human,,,,,0,7,7,2,0,3,3,1,,,,,,,,,,,,,,,,,,,,,,,,,,,,,1485.701217145383,None,1485.701217145383,None,1486.1512991716531,None,1486.1512991716531,None,None,,1486.1512991716531,None,t,7.429721739431443,1486.1512991716531,None,13,7.429721739431443,6.099719456140513,False,False,False,1499.2164232825012,None,1499.2164232825012,None,1499.2164232825012,None,1499.2164232825012,None,1499.2164232825012,None,1499.2164232825012,None,1499.2164232825012,None,1499.2164232825012,None,1500.2168197802325,None,1500.2168197802325,None,1501.2148895805144,None,1501.2148895805144,None,h,,,,,,,,,,,,,,,,,,,,,,,,,,,,,,,,,,,,,,,,,,,,,,,27_28Exp,001,2021_May_05_1514,ComputerHuman,2020.1.3,60.01628777374219,
Human.xlsx,h,Sychronize.jpg,Number9.jpg,9,Human,,,,,0,7,7,2,0,4,4,6,,,,,,,,,,,,,,,,,,,,,,,,,,,,,1502.2647029763634,None,1502.2647029763634,None,1502.7145642983946,None,1502.7145642983946,None,None,,1502.7145642983946,None,t,8.525753746679584,1502.7145642983946,None,13,8.525753746679584,8.45607131589811,False,False,False,1515.795065527987,None,1515.795065527987,None,1515.795065527987,None,1515.795065527987,None,1515.795065527987,None,1515.795065527987,None,1515.795065527987,None,1515.795065527987,None,1516.7806049092583,None,1516.7806049092583,None,1517.7780382601063,None,1517.7780382601063,None,h,,,,,,,,,,,,,,,,,,,,,,,,,,,,,,,,,,,,,,,,,,,,,,,27_28Exp,001,2021_May_05_1514,ComputerHuman,2020.1.3,60.01628777374219,
Human.xlsx,h,Sychronize.jpg,Number9.jpg,9,Human,,,,,0,7,7,2,0,5,5,7,,,,,,,,,,,,,,,,,,,,,,,,,,,,,1518.827808028374,None,1518.827808028374,None,1519.2779570999724,None,1519.2779570999724,None,None,,1519.2779570999724,None,t,9.013817432683936,1519.2779570999724,None,13,9.013817432683936,9.176807220094984,False,False,False,1532.3430754365804,None,1532.3430754365804,None,1532.3430754365804,None,1532.3430754365804,None,1532.3430754365804,None,1532.3430754365804,None,1532.3430754365804,None,1532.3430754365804,None,1533.3436759574174,None,1533.3436759574174,None,1534.3412889512506,None,1534.3412889512506,None,h,,,,,,,,,,,,,,,,,,,,,,,,,,,,,,,,,,,,,,,,,,,,,,,27_28Exp,001,2021_May_05_1514,ComputerHuman,2020.1.3,60.01628777374219,
Human.xlsx,h,Sychronize.jpg,Number10.jpg,10,Human,,,,,0,7,7,2,0,6,6,9,,,,,,,,,,,,,,,,,,,,,,,,,,,,,1535.3912521565176,None,1535.3912521565176,None,1535.8412905552063,None,1535.8412905552063,None,None,,1535.8412905552063,None,t,10.077709705918096,1535.8412905552063,None,13,10.077709705918096,10.089208460004661,False,False,False,1548.9217282681716,None,1548.9217282681716,None,1548.9217282681716,None,1548.9217282681716,None,1548.9217282681716,None,1548.9217282681716,None,1548.9217282681716,None,1548.9217282681716,None,1549.907589082069,None,1549.907589082069,None,1550.904603159022,None,1550.904603159022,None,h,,,,,,,,,,,,,,,,,,,,,,,,,,,,,,,,,,,,,,,,,,,,,,,27_28Exp,001,2021_May_05_1514,ComputerHuman,2020.1.3,60.01628777374219,
Human.xlsx,h,Sychronize.jpg,Number7.jpg,7,Human,,,,,0,7,7,2,0,7,7,3,,,,,,,,,,,,,,,,,,,,,,,,,,,,,1551.9380590986925,None,1551.9380590986925,None,1552.4047943504852,None,1552.4047943504852,None,None,,1552.4047943504852,None,t,9.041732027842045,1552.4047943504852,None,13,9.041732027842045,7.1335601851660195,False,False,False,1565.4701365992428,None,1565.4701365992428,None,1565.4701365992428,None,1565.4701365992428,None,1565.4701365992428,None,1565.4701365992428,None,1565.4701365992428,None,1565.4701365992428,None,1566.470898477975,None,1566.470898477975,None,1567.4679276321071,None,1567.4679276321071,None,h,,,,,,,,,,,,,,,,,,,,,,,,,,,,,,,,,,,,,,,,,,,,,,,27_28Exp,001,2021_May_05_1514,ComputerHuman,2020.1.3,60.01628777374219,
Human.xlsx,h,Sychronize.jpg,Number6.jpg,6,Human,,,,,0,7,7,2,0,8,8,0,,,,,,,,,,,,,,,,,,,,,,,,,,,,,1568.5347737492843,None,1568.5347737492843,None,1568.9681095206292,None,1568.9681095206292,None,None,,1568.9681095206292,None,t,5.709830705733111,1568.9681095206292,None,13,5.709830705733111,6.119554133514207,False,False,False,1582.0483172264153,None,1582.0483172264153,None,1582.0483172264153,None,1582.0483172264153,None,1582.0483172264153,None,1582.0483172264153,None,1582.0483172264153,None,1582.0483172264153,None,1583.032894876133,None,1583.032894876133,None,1584.0312652576245,None,1584.0312652576245,None,h,,,,,,,,,,,,,,,,,,,,,,,,,,,,,,,,,,,,,,,,,,,,,,,27_28Exp,001,2021_May_05_1514,ComputerHuman,2020.1.3,60.01628777374219,
Human.xlsx,h,Sychronize.jpg,Number10.jpg,10,Human,,,,,0,7,7,2,0,9,9,8,,,,,,,,,,,,,,,,,,,,,,,,,,,,,1585.0815611232051,None,1585.0815611232051,None,1585.5312591625948,None,1585.5312591625948,None,None,,1585.5312591625948,None,t,9.462742365653867,1585.5312591625948,None,13,9.462742365653867,9.255895324105706,False,False,False,1598.6116359252615,None,1598.6116359252615,None,1598.6116359252615,None,1598.6116359252615,None,1598.6116359252615,None,1598.6116359252615,None,1598.6116359252615,None,1598.6116359252615,None,1599.5967573158,None,1599.5967573158,None,1600.5945762574852,None,1600.5945762574852,None,h,,,,,,,,,,,,,,,,,,,,,,,,,,,,,,,,,,,,,,,,,,,,,,,27_28Exp,001,2021_May_05_1514,ComputerHuman,2020.1.3,60.01628777374219,
Human.xlsx,h,,,,,,,,,0,7,7,2,,,,,,,,,,,,,,,,,,,,,,,,,,,,,,,,,,,,,,,,,,,,,,,,,,,,,,,,,,,,,,,,,,,,,,,,,,,,,,,h,1601.5949390721566,None,1601.5949390721566,None,a,0,3.334971292410046,1601.5949390721566,None,o,1,13.293637366254188,1601.5949390721566,None,c,h,1614.9921669242617,None,1614.9921669242617,None,1616.9745487592768,None,None,None,None,None,None,None,None,,,,,,,,,,,,,,,,,,27_28Exp,001,2021_May_05_1514,ComputerHuman,2020.1.3,60.01628777374219,
Computer.xlsx,c,Sychronize.jpg,Number8.jpg,8,Computer,,,,,0,8,8,1,0,0,0,5,,,,,,,,,,,,,,,,,,,,,,,,,1621.9766903602936,None,1621.9766903602936,None,1625.0395358923474,None,1625.0395358923474,None,1625.4732216467232,None,1625.4732216467232,None,v,10.48804636328805,1625.4732216467232,None,t,6.850827352184751,1625.4732216467232,None,10.48804636328805,6.850827352184751,7.92496021683646,False,False,False,1636.0386306200185,None,1636.0386306200185,None,1636.0386306200185,None,1636.0386306200185,None,1636.0386306200185,None,1636.0386306200185,None,1636.0386306200185,None,1636.0386306200185,None,1637.0538062819874,None,1637.0538062819874,None,1638.053661926017,None,1638.053661926017,None,c,,,,,,,,,,,,,,,,,,,,,,,,,,,,,,,,,,,,,,,,,,,,,,,27_28Exp,001,2021_May_05_1514,ComputerHuman,2020.1.3,60.01628777374219,
Computer.xlsx,c,Sychronize.jpg,Number10.jpg,10,Computer,,,,,0,8,8,1,0,1,1,9,,,,,,,,,,,,,,,,,,,,,,,,,,,,,1639.0872230851505,None,1639.0872230851505,None,1639.5538624204196,None,1639.5538624204196,None,None,,1639.5538624204196,None,t,7.485774841898092,1639.5538624204196,None,13,7.485774841898092,10.489432831587612,False,False,False,1652.619091429939,None,1652.619091429939,None,1652.619091429939,None,1652.619091429939,None,1652.619091429939,None,1652.619091429939,None,1652.619091429939,None,1652.619091429939,None,1653.6337621668022,None,1653.6337621668022,None,1654.6169424507284,None,1654.6169424507284,None,c,,,,,,,,,,,,,,,,,,,,,,,,,,,,,,,,,,,,,,,,,,,,,,,27_28Exp,001,2021_May_05_1514,ComputerHuman,2020.1.3,60.01628777374219,
Computer.xlsx,c,Sychronize.jpg,Number7.jpg,7,Computer,,,,,0,8,8,1,0,2,2,3,,,,,,,,,,,,,,,,,,,,,,,,,,,,,1655.6671465700706,None,1655.6671465700706,None,1656.1169543199971,None,1656.1169543199971,None,v,8.123075013136258,1656.1169543199971,None,t,6.214888297349717,1656.1169543199971,None,8.123075013136258,6.214888297349717,6.691583635191631,False,False,False,1664.3316485387645,None,1664.3316485387645,None,1664.3316485387645,None,1664.3316485387645,None,1664.3316485387645,None,1664.3316485387645,None,1664.3316485387645,None,1664.3316485387645,None,1665.3314095494366,None,1665.3314095494366,None,1666.3145718690635,None,1666.3145718690635,None,c,,,,,,,,,,,,,,,,,,,,,,,,,,,,,,,,,,,,,,,,,,,,,,,27_28Exp,001,2021_May_05_1514,ComputerHuman,2020.1.3,60.01628777374219,
Computer.xlsx,c,Sychronize.jpg,Number8.jpg,8,Computer,,,,,0,8,8,1,0,3,3,4,,,,,,,,,,,,,,,,,,,,,,,,,,,,,1667.364578381122,None,1667.364578381122,None,1667.8146616905565,None,1667.8146616905565,None,v,7.6053150585094045,1667.8146616905565,None,t,6.4639600884611355,1667.8146616905565,None,7.6053150585094045,6.4639600884611355,7.661052609620237,False,True,False,1675.5126192781304,None,1675.5126192781304,None,1675.5126192781304,None,1675.5126192781304,None,1675.5126192781304,None,1675.5126192781304,None,1675.5126192781304,None,1675.5126192781304,None,1676.4957405365044,None,1676.4957405365044,None,1677.4790026221458,None,1677.4790026221458,None,c,,,,,,,,,,,,,,,,,,,,,,,,,,,,,,,,,,,,,,,,,,,,,,,27_28Exp,001,2021_May_05_1514,ComputerHuman,2020.1.3,60.01628777374219,
Computer.xlsx,c,Sychronize.jpg,Number6.jpg,6,Computer,,,,,0,8,8,1,0,4,4,1,,,,,,,,,,,,,,,,,,,,,,,,,,,,,1678.5457585970403,None,1678.5457585970403,None,1678.9789788836092,None,1678.9789788836092,None,v,6.008075272977294,1678.9789788836092,None,t,6.772238999593355,1678.9789788836092,None,6.008075272977294,6.772238999593355,5.622211045298513,False,False,False,1685.828911228777,None,1685.828911228777,None,1685.828911228777,None,1685.828911228777,None,1685.828911228777,None,1685.828911228777,None,1685.828911228777,None,1685.828911228777,None,1686.843715735507,None,1686.843715735507,None,1687.8268979441787,None,1687.8268979441787,None,c,,,,,,,,,,,,,,,,,,,,,,,,,,,,,,,,,,,,,,,,,,,,,,,27_28Exp,001,2021_May_05_1514,ComputerHuman,2020.1.3,60.01628777374219,
Computer.xlsx,c,Sychronize.jpg,Number10.jpg,10,Computer,,,,,0,8,8,1,0,5,5,8,,,,,,,,,,,,,,,,,,,,,,,,,,,,,1688.8770279607893,None,1688.8770279607893,None,1689.326858166089,None,1689.326858166089,None,v,10.999826452044545,1689.326858166089,None,t,8.782667595677594,1689.326858166089,None,10.999826452044545,8.782667595677594,9.874287780523945,False,False,False,1700.4242618758449,None,1700.4242618758449,None,1700.4242618758449,None,1700.4242618758449,None,1700.4242618758449,None,1700.4242618758449,None,1700.4242618758449,None,1700.4242618758449,None,1701.4241297099347,None,1701.4241297099347,None,1702.4071973962032,None,1702.4071973962032,None,c,,,,,,,,,,,,,,,,,,,,,,,,,,,,,,,,,,,,,,,,,,,,,,,27_28Exp,001,2021_May_05_1514,ComputerHuman,2020.1.3,60.01628777374219,
Computer.xlsx,c,Sychronize.jpg,Number9.jpg,9,Computer,,,,,0,8,8,1,0,6,6,6,,,,,,,,,,,,,,,,,,,,,,,,,,,,,1703.4574355193959,None,1703.4574355193959,None,1703.9073302036963,None,1703.9073302036963,None,v,9.774990424387397,1703.9073302036963,None,t,10.7616240239131,1703.9073302036963,None,9.774990424387397,10.7616240239131,8.35742342066588,False,False,False,1714.754724450116,None,1714.754724450116,None,1714.754724450116,None,1714.754724450116,None,1714.754724450116,None,1714.754724450116,None,1714.754724450116,None,1714.754724450116,None,1715.754522030967,None,1715.754522030967,None,1716.7376827466392,None,1716.7376827466392,None,c,,,,,,,,,,,,,,,,,,,,,,,,,,,,,,,,,,,,,,,,,,,,,,,27_28Exp,001,2021_May_05_1514,ComputerHuman,2020.1.3,60.01628777374219,
Computer.xlsx,c,Sychronize.jpg,Number7.jpg,7,Computer,,,,,0,8,8,1,0,7,7,2,,,,,,,,,,,,,,,,,,,,,,,,,,,,,1717.7879064342346,None,1717.7879064342346,None,1718.2377828334452,None,1718.2377828334452,None,v,8.27208758622055,1718.2377828334452,None,t,5.867790141064688,1718.2377828334452,None,8.27208758622055,5.867790141064688,7.215124215360637,False,False,False,1726.602290961328,None,1726.602290961328,None,1726.602290961328,None,1726.602290961328,None,1726.602290961328,None,1726.602290961328,None,1726.602290961328,None,1726.602290961328,None,1727.5854067662535,None,1727.5854067662535,None,1728.5686515291786,None,1728.5686515291786,None,c,,,,,,,,,,,,,,,,,,,,,,,,,,,,,,,,,,,,,,,,,,,,,,,27_28Exp,001,2021_May_05_1514,ComputerHuman,2020.1.3,60.01628777374219,
Computer.xlsx,c,Sychronize.jpg,Number9.jpg,9,Computer,,,,,0,8,8,1,0,8,8,7,,,,,,,,,,,,,,,,,,,,,,,,,,,,,1729.6186548333267,None,1729.6186548333267,None,1730.0686771924625,None,1730.0686771924625,None,v,9.496681095847634,1730.0686771924625,None,t,7.34774102154006,1730.0686771924625,None,9.496681095847634,7.34774102154006,8.944446502410946,False,False,False,1739.6497856795027,None,1739.6497856795027,None,1739.6497856795027,None,1739.6497856795027,None,1739.6497856795027,None,1739.6497856795027,None,1739.6497856795027,None,1739.6497856795027,None,1740.6494632845029,None,1740.6494632845029,None,1741.615955697474,None,1741.615955697474,None,c,,,,,,,,,,,,,,,,,,,,,,,,,,,,,,,,,,,,,,,,,,,,,,,27_28Exp,001,2021_May_05_1514,ComputerHuman,2020.1.3,60.01628777374219,
Computer.xlsx,c,Sychronize.jpg,Number6.jpg,6,Computer,,,,,0,8,8,1,0,9,9,0,,,,,,,,,,,,,,,,,,,,,,,,,,,,,1742.6827402227705,None,1742.6827402227705,None,1743.115974624145,None,1743.115974624145,None,v,6.5410529131995645,1743.115974624145,None,t,6.228762830839514,1743.115974624145,None,6.5410529131995645,6.228762830839514,6.301347162136824,False,True,True,1749.7476291937814,None,1749.7476291937814,None,1749.7476291937814,None,1749.7476291937814,None,1749.7476291937814,None,1749.7476291937814,None,1749.7476291937814,None,1749.7476291937814,None,1750.747384751005,None,1750.747384751005,None,1751.7305621478122,None,1751.7305621478122,None,c,,,,,,,,,,,,,,,,,,,,,,,,,,,,,,,,,,,,,,,,,,,,,,,27_28Exp,001,2021_May_05_1514,ComputerHuman,2020.1.3,60.01628777374219,
Computer.xlsx,c,,,,,,,,,0,8,8,1,,,,,,,,,,,,,,,,,,,,,,,,,,,,,,,,,,,,,,,,,,,,,,,,,,,,,,,,,,,,,,,,,,,,,,,,,,,,,,,c,1752.7308389904833,None,1752.7308389904833,None,q,0,2.446008621580404,1752.7308389904833,None,o,0,8.752748377278294,1752.7308389904833,None,h,h,1761.5788202845165,None,1761.5788202845165,None,1763.5615126452626,None,None,None,None,None,None,None,None,,,,,,,,,,,,,,,,,,27_28Exp,001,2021_May_05_1514,ComputerHuman,2020.1.3,60.01628777374219,
Computer.xlsx,c,Sychronize.jpg,Number6.jpg,6,Computer,,,,,0,9,9,3,0,0,0,1,,,,,,,,,,,,,,,,,,,,,,,,,1768.5805509522047,None,1768.5805509522047,None,1771.643214916527,None,1771.643214916527,None,1772.0934361661107,None,1772.0934361661107,None,v,7.330560736330881,1772.0934361661107,None,t,5.289839841862886,1772.0934361661107,None,7.330560736330881,5.289839841862886,5.979602054828401,False,False,False,1779.491576347948,None,1779.491576347948,None,1779.491576347948,None,1779.491576347948,None,1779.491576347948,None,1779.491576347948,None,1779.491576347948,None,1779.491576347948,None,1780.491415631635,None,1780.491415631635,None,1781.4912478579176,None,1781.4912478579176,None,c,,,,,,,,,,,,,,,,,,,,,,,,,,,,,,,,,,,,,,,,,,,,,,,27_28Exp,001,2021_May_05_1514,ComputerHuman,2020.1.3,60.01628777374219,
Computer.xlsx,c,Sychronize.jpg,Number9.jpg,9,Computer,,,,,0,9,9,3,0,1,1,7,,,,,,,,,,,,,,,,,,,,,,,,,,,,,1782.574811038035,None,1782.574811038035,None,1783.0076928900512,None,1783.0076928900512,None,v,10.21985093481726,1783.0076928900512,None,t,7.234694257263072,1783.0076928900512,None,10.21985093481726,7.234694257263072,9.266428642002904,False,False,False,1793.3221627475627,None,1793.3221627475627,None,1793.3221627475627,None,1793.3221627475627,None,1793.3221627475627,None,1793.3221627475627,None,1793.3221627475627,None,1793.3221627475627,None,1794.3052557763244,None,1794.3052557763244,None,1795.2884328523392,None,1795.2884328523392,None,c,,,,,,,,,,,,,,,,,,,,,,,,,,,,,,,,,,,,,,,,,,,,,,,27_28Exp,001,2021_May_05_1514,ComputerHuman,2020.1.3,60.01628777374219,
Computer.xlsx,c,Sychronize.jpg,Number9.jpg,9,Computer,,,,,0,9,9,3,0,2,2,6,,,,,,,,,,,,,,,,,,,,,,,,,,,,,1796.3383585250544,None,1796.3383585250544,None,1796.7882628330858,None,1796.7882628330858,None,v,9.52686657081449,1796.7882628330858,None,t,5.8818253908675615,1796.7882628330858,None,9.52686657081449,5.8818253908675615,8.94742611872526,False,False,False,1806.4028185984384,None,1806.4028185984384,None,1806.4028185984384,None,1806.4028185984384,None,1806.4028185984384,None,1806.4028185984384,None,1806.4028185984384,None,1806.4028185984384,None,1807.402642163364,None,1807.402642163364,None,1808.369052774618,None,1808.369052774618,None,c,,,,,,,,,,,,,,,,,,,,,,,,,,,,,,,,,,,,,,,,,,,,,,,27_28Exp,001,2021_May_05_1514,ComputerHuman,2020.1.3,60.01628777374219,
Computer.xlsx,c,Sychronize.jpg,Number8.jpg,8,Computer,,,,,0,9,9,3,0,3,3,4,,,,,,,,,,,,,,,,,,,,,,,,,,,,,1809.4189649741088,None,1809.4189649741088,None,1809.8690749092007,None,1809.8690749092007,None,v,9.049617713310909,1809.8690749092007,None,t,7.404782160424475,1809.8690749092007,None,9.049617713310909,7.404782160424475,7.878654027134217,False,False,False,1819.0013781183302,None,1819.0013781183302,None,1819.0013781183302,None,1819.0013781183302,None,1819.0013781183302,None,1819.0013781183302,None,1819.0013781183302,None,1819.0013781183302,None,1820.01667086903,None,1820.01667086903,None,1820.9998524361195,None,1820.9998524361195,None,c,,,,,,,,,,,,,,,,,,,,,,,,,,,,,,,,,,,,,,,,,,,,,,,27_28Exp,001,2021_May_05_1514,ComputerHuman,2020.1.3,60.01628777374219,
Computer.xlsx,c,Sychronize.jpg,Number10.jpg,10,Computer,,,,,0,9,9,3,0,4,4,8,,,,,,,,,,,,,,,,,,,,,,,,,,,,,1822.0495625372519,None,1822.0495625372519,None,1822.4997119296418,None,1822.4997119296418,None,v,12.142498910914583,1822.4997119296418,None,t,12.549593974774325,1822.4997119296418,None,12.142498910914583,12.549593974774325,10.312220299682787,False,False,False,1835.1318909926372,None,1835.1318909926372,None,1835.1318909926372,None,1835.1318909926372,None,1835.1318909926372,None,1835.1318909926372,None,1835.1318909926372,None,1835.1318909926372,None,1836.1467558080826,None,1836.1467558080826,None,1837.1299062584408,None,1837.1299062584408,None,c,,,,,,,,,,,,,,,,,,,,,,,,,,,,,,,,,,,,,,,,,,,,,,,27_28Exp,001,2021_May_05_1514,ComputerHuman,2020.1.3,60.01628777374219,
Computer.xlsx,c,Sychronize.jpg,Number7.jpg,7,Computer,,,,,0,9,9,3,0,5,5,2,,,,,,,,,,,,,,,,,,,,,,,,,,,,,1838.1800138196782,None,1838.1800138196782,None,1838.6128488362024,None,1838.6128488362024,None,v,6.7929425328502475,1838.6128488362024,None,t,7.683941906025211,1838.6128488362024,None,6.7929425328502475,7.683941906025211,7.142833299615868,False,False,False,1846.3946519000133,None,1846.3946519000133,None,1846.3946519000133,None,1846.3946519000133,None,1846.3946519000133,None,1846.3946519000133,None,1846.3946519000133,None,1846.3946519000133,None,1847.3944844470884,None,1847.3944844470884,None,1848.3776057054615,None,1848.3776057054615,None,c,,,,,,,,,,,,,,,,,,,,,,,,,,,,,,,,,,,,,,,,,,,,,,,27_28Exp,001,2021_May_05_1514,ComputerHuman,2020.1.3,60.01628777374219,
Computer.xlsx,c,Sychronize.jpg,Number8.jpg,8,Computer,,,,,0,9,9,3,0,6,6,5,,,,,,,,,,,,,,,,,,,,,,,,,,,,,1849.4279885054152,None,1849.4279885054152,None,1849.8776775626552,None,1849.8776775626552,None,v,7.255719223146116,1849.8776775626552,None,t,9.25477898459394,1849.8776775626552,None,7.255719223146116,9.25477898459394,7.906313407499984,False,False,False,1859.2101588749733,None,1859.2101588749733,None,1859.2101588749733,None,1859.2101588749733,None,1859.2101588749733,None,1859.2101588749733,None,1859.2101588749733,None,1859.2101588749733,None,1860.2085574860762,None,1860.2085574860762,None,1861.1917560550914,None,1861.1917560550914,None,c,,,,,,,,,,,,,,,,,,,,,,,,,,,,,,,,,,,,,,,,,,,,,,,27_28Exp,001,2021_May_05_1514,ComputerHuman,2020.1.3,60.01628777374219,
Computer.xlsx,c,Sychronize.jpg,Number10.jpg,10,Computer,,,,,0,9,9,3,0,7,7,9,,,,,,,,,,,,,,,,,,,,,,,,,,,,,1862.2413558041048,None,1862.2413558041048,None,1862.6919895909728,None,1862.6919895909728,None,v,10.740795061356948,1862.6919895909728,None,t,6.795859165032198,1862.6919895909728,None,10.740795061356948,6.795859165032198,9.374776532279848,False,False,False,1873.5225233808555,None,1873.5225233808555,None,1873.5225233808555,None,1873.5225233808555,None,1873.5225233808555,None,1873.5225233808555,None,1873.5225233808555,None,1873.5225233808555,None,1874.5055605919756,None,1874.5055605919756,None,1875.4888252439455,None,1875.4888252439455,None,c,,,,,,,,,,,,,,,,,,,,,,,,,,,,,,,,,,,,,,,,,,,,,,,27_28Exp,001,2021_May_05_1514,ComputerHuman,2020.1.3,60.01628777374219,
Computer.xlsx,c,Sychronize.jpg,Number6.jpg,6,Computer,,,,,0,9,9,3,0,8,8,0,,,,,,,,,,,,,,,,,,,,,,,,,,,,,1876.5558872534962,None,1876.5558872534962,None,1876.9887922024677,None,1876.9887922024677,None,v,6.439751913037071,1876.9887922024677,None,t,5.7553156680114625,1876.9887922024677,None,6.439751913037071,5.7553156680114625,6.0960156962515555,False,False,False,1883.5042681248547,None,1883.5042681248547,None,1883.5042681248547,None,1883.5042681248547,None,1883.5042681248547,None,1883.5042681248547,None,1883.5042681248547,None,1883.5042681248547,None,1884.5203128097642,None,1884.5203128097642,None,1885.5033788920778,None,1885.5033788920778,None,c,,,,,,,,,,,,,,,,,,,,,,,,,,,,,,,,,,,,,,,,,,,,,,,27_28Exp,001,2021_May_05_1514,ComputerHuman,2020.1.3,60.01628777374219,
Computer.xlsx,c,Sychronize.jpg,Number7.jpg,7,Computer,,,,,0,9,9,3,0,9,9,3,,,,,,,,,,,,,,,,,,,,,,,,,,,,,1886.5532413689566,None,1886.5532413689566,None,1887.003372797048,None,1887.003372797048,None,v,8.228722090377232,1887.003372797048,None,t,9.287747001085336,1887.003372797048,None,8.228722090377232,9.287747001085336,6.756562484406882,False,False,False,1896.3527639677236,None,1896.3527639677236,None,1896.3527639677236,None,1896.3527639677236,None,1896.3527639677236,None,1896.3527639677236,None,1896.3527639677236,None,1896.3527639677236,None,1897.3843304481393,None,1897.3843304481393,None,1898.3674799361247,None,1898.3674799361247,None,c,,,,,,,,,,,,,,,,,,,,,,,,,,,,,,,,,,,,,,,,,,,,,,,27_28Exp,001,2021_May_05_1514,ComputerHuman,2020.1.3,60.01628777374219,
Computer.xlsx,c,,,,,,,,,0,9,9,3,,,,,,,,,,,,,,,,,,,,,,,,,,,,,,,,,,,,,,,,,,,,,,,,,,,,,,,,,,,,,,,,,,,,,,,,,,,,,,,c,1899.3679906354678,None,1899.3679906354678,None,a,0,2.04039914104942,1899.3679906354678,None,l,1,14.934523660585,1899.3679906354678,None,c,c,1914.415248930643,None,1914.415248930643,None,None,None,1916.3971957730005,None,1916.3971957730005,None,"['space', 'space']",1917.380285273061,None,"[478.01071730802414, 478.2307337710208]",,,,,,,,,,,,,,,,,27_28Exp,001,2021_May_05_1514,ComputerHuman,2020.1.3,60.01628777374219,
Human.xlsx,h,Sychronize.jpg,Number10.jpg,10,Human,,,,,1,0,10,8,0,0,0,8,,,,,,,,,,,,,,,,,,,,,,,,,2395.6533451769387,None,2395.6533451769387,None,2398.750487762784,None,2398.750487762784,None,2399.1828207413223,None,2399.1828207413223,None,v,9.719668404712138,2399.1828207413223,None,t,11.14671795473896,2399.1828207413223,None,9.719668404712138,11.14671795473896,10.173811130491583,False,False,False,2410.4135798548355,None,2410.4135798548355,None,2410.4135798548355,None,2410.4135798548355,None,2410.4135798548355,None,2410.4135798548355,None,2410.4135798548355,None,2410.4135798548355,None,2411.398965577196,None,2411.398965577196,None,2412.396611612508,None,2412.396611612508,None,h,,,,,,,,,,,,,,,,,,,,,,,,,,,,,,,,,,,,,,,,,,,,,,,27_28Exp,001,2021_May_05_1514,ComputerHuman,2020.1.3,60.01628777374219,
Human.xlsx,h,Sychronize.jpg,Number8.jpg,8,Human,,,,,1,0,10,8,0,1,1,5,,,,,,,,,,,,,,,,,,,,,,,,,,,,,2413.480088179043,None,2413.480088179043,None,2413.89664593715,None,2413.89664593715,None,v,8.10586842306202,2413.89664593715,None,t,7.405208170933292,2413.89664593715,None,8.10586842306202,7.405208170933292,7.996833327341601,False,False,False,2422.0946365662016,None,2422.0946365662016,None,2422.0946365662016,None,2422.0946365662016,None,2422.0946365662016,None,2422.0946365662016,None,2422.0946365662016,None,2422.0946365662016,None,2423.0806183183236,None,2423.0806183183236,None,2424.060897047247,None,2424.060897047247,None,h,,,,,,,,,,,,,,,,,,,,,,,,,,,,,,,,,,,,,,,,,,,,,,,27_28Exp,001,2021_May_05_1514,ComputerHuman,2020.1.3,60.01628777374219,
Human.xlsx,h,Sychronize.jpg,Number7.jpg,7,Human,,,,,1,0,10,8,0,2,2,2,,,,,,,,,,,,,,,,,,,,,,,,,,,,,2425.1270627666177,None,2425.1270627666177,None,2425.5607770713964,None,2425.5607770713964,None,v,7.368940497752192,2425.5607770713964,None,t,6.299857825408253,2425.5607770713964,None,7.368940497752192,6.299857825408253,6.988274682797918,False,False,False,2433.025644998515,None,2433.025644998515,None,2433.025644998515,None,2433.025644998515,None,2433.025644998515,None,2433.025644998515,None,2433.025644998515,None,2433.025644998515,None,2434.0111734728903,None,2434.0111734728903,None,2435.0086263919925,None,2435.0086263919925,None,h,,,,,,,,,,,,,,,,,,,,,,,,,,,,,,,,,,,,,,,,,,,,,,,27_28Exp,001,2021_May_05_1514,ComputerHuman,2020.1.3,60.01628777374219,
Human.xlsx,h,Sychronize.jpg,Number9.jpg,9,Human,,,,,1,0,10,8,0,3,3,7,,,,,,,,,,,,,,,,,,,,,,,,,,,,,2436.0584596768863,None,2436.0584596768863,None,2436.508840680411,None,2436.508840680411,None,None,,2436.508840680411,None,t,7.219800249832588,2436.508840680411,None,13,7.219800249832588,9.569244617764753,False,False,False,2449.5890451782866,None,2449.5890451782866,None,2449.5890451782866,None,2449.5890451782866,None,2449.5890451782866,None,2449.5890451782866,None,2449.5890451782866,None,2449.5890451782866,None,2450.57465609596,None,2450.57465609596,None,2451.572017268824,None,2451.572017268824,None,h,,,,,,,,,,,,,,,,,,,,,,,,,,,,,,,,,,,,,,,,,,,,,,,27_28Exp,001,2021_May_05_1514,ComputerHuman,2020.1.3,60.01628777374219,
Human.xlsx,h,Sychronize.jpg,Number6.jpg,6,Human,,,,,1,0,10,8,0,4,4,1,,,,,,,,,,,,,,,,,,,,,,,,,,,,,2452.6217029898366,None,2452.6217029898366,None,2453.07174908751,None,2453.07174908751,None,v,6.601069709818148,2453.07174908751,None,t,6.1043706496720915,2453.07174908751,None,6.601069709818148,6.1043706496720915,5.685278979868848,False,False,False,2459.770302704846,None,2459.770302704846,None,2459.770302704846,None,2459.770302704846,None,2459.770302704846,None,2459.770302704846,None,2459.770302704846,None,2459.770302704846,None,2460.739355351148,None,2460.739355351148,None,2461.736600076862,None,2461.736600076862,None,h,,,,,,,,,,,,,,,,,,,,,,,,,,,,,,,,,,,,,,,,,,,,,,,27_28Exp,001,2021_May_05_1514,ComputerHuman,2020.1.3,60.01628777374219,
Human.xlsx,h,Sychronize.jpg,Number8.jpg,8,Human,,,,,1,0,10,8,0,5,5,4,,,,,,,,,,,,,,,,,,,,,,,,,,,,,2462.803218432397,None,2462.803218432397,None,2463.236555486906,None,2463.236555486906,None,v,8.647850667919556,2463.236555486906,None,t,8.030749746414585,2463.236555486906,None,8.647850667919556,8.030749746414585,7.4705027249305225,False,False,False,2471.9678060523006,None,2471.9678060523006,None,2471.9678060523006,None,2471.9678060523006,None,2471.9678060523006,None,2471.9678060523006,None,2471.9678060523006,None,2471.9678060523006,None,2472.952990317885,None,2472.952990317885,None,2473.934138069749,None,2473.934138069749,None,h,,,,,,,,,,,,,,,,,,,,,,,,,,,,,,,,,,,,,,,,,,,,,,,27_28Exp,001,2021_May_05_1514,ComputerHuman,2020.1.3,60.01628777374219,
Human.xlsx,h,Sychronize.jpg,Number10.jpg,10,Human,,,,,1,0,10,8,0,6,6,9,,,,,,,,,,,,,,,,,,,,,,,,,,,,,2475.000892440688,None,2475.000892440688,None,2475.4341781686294,None,2475.4341781686294,None,v,11.07774210581374,2475.4341781686294,None,t,9.844739700522041,2475.4341781686294,None,11.07774210581374,9.844739700522041,10.18349755628641,False,False,False,2486.5981569271303,None,2486.5981569271303,None,2486.5981569271303,None,2486.5981569271303,None,2486.5981569271303,None,2486.5981569271303,None,2486.5981569271303,None,2486.5981569271303,None,2487.5834050301323,None,2487.5834050301323,None,2488.5811062415037,None,2488.5811062415037,None,h,,,,,,,,,,,,,,,,,,,,,,,,,,,,,,,,,,,,,,,,,,,,,,,27_28Exp,001,2021_May_05_1514,ComputerHuman,2020.1.3,60.01628777374219,
Human.xlsx,h,Sychronize.jpg,Number9.jpg,9,Human,,,,,1,0,10,8,0,7,7,6,,,,,,,,,,,,,,,,,,,,,,,,,,,,,2489.631026781561,None,2489.631026781561,None,2490.0644825287577,None,2490.0644825287577,None,v,10.062921559531787,2490.0644825287577,None,t,10.733670613038157,2490.0644825287577,None,10.062921559531787,10.733670613038157,9.33791923498728,False,False,False,2500.880145087374,None,2500.880145087374,None,2500.880145087374,None,2500.880145087374,None,2500.880145087374,None,2500.880145087374,None,2500.880145087374,None,2500.880145087374,None,2501.880595798792,None,2501.880595798792,None,2502.878227719298,None,2502.878227719298,None,h,,,,,,,,,,,,,,,,,,,,,,,,,,,,,,,,,,,,,,,,,,,,,,,27_28Exp,001,2021_May_05_1514,ComputerHuman,2020.1.3,60.01628777374219,
Human.xlsx,h,Sychronize.jpg,Number6.jpg,6,Human,,,,,1,0,10,8,0,8,8,0,,,,,,,,,,,,,,,,,,,,,,,,,,,,,2503.928241288759,None,2503.928241288759,None,2504.378250495462,None,2504.378250495462,None,v,7.728750640780163,2504.378250495462,None,t,5.839902813144363,2504.378250495462,None,7.728750640780163,5.839902813144363,6.3872495684855135,False,False,False,2512.192920847376,None,2512.192920847376,None,2512.192920847376,None,2512.192920847376,None,2512.192920847376,None,2512.192920847376,None,2512.192920847376,None,2512.192920847376,None,2513.1616209443196,None,2513.1616209443196,None,2514.1758884468386,None,2514.1758884468386,None,h,,,,,,,,,,,,,,,,,,,,,,,,,,,,,,,,,,,,,,,,,,,,,,,27_28Exp,001,2021_May_05_1514,ComputerHuman,2020.1.3,60.01628777374219,
Human.xlsx,h,Sychronize.jpg,Number7.jpg,7,Human,,,,,1,0,10,8,0,9,9,3,,,,,,,,,,,,,,,,,,,,,,,,,,,,,2515.243142931017,None,2515.243142931017,None,2515.675896145824,None,2515.675896145824,None,v,8.139140228673568,2515.675896145824,None,t,7.101754598699699,2515.675896145824,None,8.139140228673568,7.101754598699699,6.8229101533498095,False,False,False,2523.8923085214296,None,2523.8923085214296,None,2523.8923085214296,None,2523.8923085214296,None,2523.8923085214296,None,2523.8923085214296,None,2523.8923085214296,None,2523.8923085214296,None,2524.8758352596838,None,2524.8758352596838,None,2525.8735069582785,None,2525.8735069582785,None,h,,,,,,,,,,,,,,,,,,,,,,,,,,,,,,,,,,,,,,,,,,,,,,,27_28Exp,001,2021_May_05_1514,ComputerHuman,2020.1.3,60.01628777374219,
Human.xlsx,h,,,,,,,,,1,0,10,8,,,,,,,,,,,,,,,,,,,,,,,,,,,,,,,,,,,,,,,,,,,,,,,,,,,,,,,,,,,,,,,,,,,,,,,,,,,,,,,h,2526.8740468496076,None,2526.8740468496076,None,q,0,6.6202004045817375,2526.8740468496076,None,l,0,9.147667496232316,2526.8740468496076,None,h,c,2536.0887311238534,None,2536.0887311238534,None,2538.104446356359,None,None,None,None,None,None,None,None,,,,,,,,,,,,,,,,,,27_28Exp,001,2021_May_05_1514,ComputerHuman,2020.1.3,60.01628777374219,
Computer.xlsx,c,Sychronize.jpg,Number7.jpg,7,Computer,,,,,1,1,11,3,0,0,0,2,,,,,,,,,,,,,,,,,,,,,,,,,2543.088885745137,None,2543.088885745137,None,2546.1529252614614,None,2546.1529252614614,None,2546.6028873118807,None,2546.6028873118807,None,v,7.890664467323404,2546.6028873118807,None,t,7.153805191297579,2546.6028873118807,None,7.890664467323404,7.153805191297579,6.721205697801705,False,False,False,2554.569063424881,None,2554.569063424881,None,2554.569063424881,None,2554.569063424881,None,2554.569063424881,None,2554.569063424881,None,2554.569063424881,None,2554.569063424881,None,2555.6008316828634,None,2555.6008316828634,None,2556.5840392340283,None,2556.5840392340283,None,c,,,,,,,,,,,,,,,,,,,,,,,,,,,,,,,,,,,,,,,,,,,,,,,27_28Exp,001,2021_May_05_1514,ComputerHuman,2020.1.3,60.01628777374219,
Computer.xlsx,c,Sychronize.jpg,Number10.jpg,10,Computer,,,,,1,1,11,3,0,1,1,9,,,,,,,,,,,,,,,,,,,,,,,,,,,,,2557.634124660684,None,2557.634124660684,None,2558.067158567655,None,2558.067158567655,None,v,11.625904710944269,2558.067158567655,None,t,9.685689575638207,2558.067158567655,None,11.625904710944269,9.685689575638207,9.35397247032359,False,False,False,2569.781245208184,None,2569.781245208184,None,2569.781245208184,None,2569.781245208184,None,2569.781245208184,None,2569.781245208184,None,2569.781245208184,None,2569.781245208184,None,2570.7810812839602,None,2570.7810812839602,None,2571.7642468114977,None,2571.7642468114977,None,c,,,,,,,,,,,,,,,,,,,,,,,,,,,,,,,,,,,,,,,,,,,,,,,27_28Exp,001,2021_May_05_1514,ComputerHuman,2020.1.3,60.01628777374219,
Computer.xlsx,c,Sychronize.jpg,Number6.jpg,6,Computer,,,,,1,1,11,3,0,2,2,1,,,,,,,,,,,,,,,,,,,,,,,,,,,,,2572.814525995944,None,2572.814525995944,None,2573.247446984468,None,2573.247446984468,None,v,6.08969349698782,2573.247446984468,None,t,5.124846742078262,2573.247446984468,None,6.08969349698782,5.124846742078262,5.7890515688228374,False,False,False,2579.429357641596,None,2579.429357641596,None,2579.429357641596,None,2579.429357641596,None,2579.429357641596,None,2579.429357641596,None,2579.429357641596,None,2579.429357641596,None,2580.412530868118,None,2580.412530868118,None,2581.412283859014,None,2581.412283859014,None,c,,,,,,,,,,,,,,,,,,,,,,,,,,,,,,,,,,,,,,,,,,,,,,,27_28Exp,001,2021_May_05_1514,ComputerHuman,2020.1.3,60.01628777374219,
Computer.xlsx,c,Sychronize.jpg,Number8.jpg,8,Computer,,,,,1,1,11,3,0,3,3,4,,,,,,,,,,,,,,,,,,,,,,,,,,,,,2582.462487657565,None,2582.462487657565,None,2582.9124211575813,None,2582.9124211575813,None,v,9.059831058603777,2582.9124211575813,None,t,6.57481617069152,2582.9124211575813,None,9.059831058603777,6.57481617069152,8.304227872680993,False,False,False,2592.0451587177854,None,2592.0451587177854,None,2592.0451587177854,None,2592.0451587177854,None,2592.0451587177854,None,2592.0451587177854,None,2592.0451587177854,None,2592.0451587177854,None,2593.0431787954553,None,2593.0431787954553,None,2594.0264270870825,None,2594.0264270870825,None,c,,,,,,,,,,,,,,,,,,,,,,,,,,,,,,,,,,,,,,,,,,,,,,,27_28Exp,001,2021_May_05_1514,ComputerHuman,2020.1.3,60.01628777374219,
Computer.xlsx,c,Sychronize.jpg,Number10.jpg,10,Computer,,,,,1,1,11,3,0,4,4,8,,,,,,,,,,,,,,,,,,,,,,,,,,,,,2595.0931840243497,None,2595.0931840243497,None,2595.526210553128,None,2595.526210553128,None,v,11.241559185627011,2595.526210553128,None,t,6.388854564246685,2595.526210553128,None,11.241559185627011,6.388854564246685,10.580952526469956,False,False,False,2606.857176769339,None,2606.857176769339,None,2606.857176769339,None,2606.857176769339,None,2606.857176769339,None,2606.857176769339,None,2606.857176769339,None,2606.857176769339,None,2607.8401915250856,None,2607.8401915250856,None,2608.823443986997,None,2608.823443986997,None,c,,,,,,,,,,,,,,,,,,,,,,,,,,,,,,,,,,,,,,,,,,,,,,,27_28Exp,001,2021_May_05_1514,ComputerHuman,2020.1.3,60.01628777374219,
Computer.xlsx,c,Sychronize.jpg,Number6.jpg,6,Computer,,,,,1,1,11,3,0,5,5,0,,,,,,,,,,,,,,,,,,,,,,,,,,,,,2609.8902878586364,None,2609.8902878586364,None,2610.3232428510114,None,2610.3232428510114,None,v,6.284156386917857,2610.3232428510114,None,t,6.0877819031511535,2610.3232428510114,None,6.284156386917857,6.0877819031511535,5.681155871634618,False,False,False,2616.705186613775,None,2616.705186613775,None,2616.705186613775,None,2616.705186613775,None,2616.705186613775,None,2616.705186613775,None,2616.705186613775,None,2616.705186613775,None,2617.704900788954,None,2617.704900788954,None,2618.6880955084766,None,2618.6880955084766,None,c,,,,,,,,,,,,,,,,,,,,,,,,,,,,,,,,,,,,,,,,,,,,,,,27_28Exp,001,2021_May_05_1514,ComputerHuman,2020.1.3,60.01628777374219,
Computer.xlsx,c,Sychronize.jpg,Number8.jpg,8,Computer,,,,,1,1,11,3,0,6,6,5,,,,,,,,,,,,,,,,,,,,,,,,,,,,,2619.738286475386,None,2619.738286475386,None,2620.187255035938,None,2620.187255035938,None,v,8.735708919338322,2620.187255035938,None,t,8.158901277838595,2620.187255035938,None,8.735708919338322,8.158901277838595,8.532139463744892,False,True,False,2628.987755085019,None,2628.987755085019,None,2628.987755085019,None,2628.987755085019,None,2628.987755085019,None,2628.987755085019,None,2628.987755085019,None,2628.987755085019,None,2630.0023780240176,None,2630.0023780240176,None,2631.002227893808,None,2631.002227893808,None,c,,,,,,,,,,,,,,,,,,,,,,,,,,,,,,,,,,,,,,,,,,,,,,,27_28Exp,001,2021_May_05_1514,ComputerHuman,2020.1.3,60.01628777374219,
Computer.xlsx,c,Sychronize.jpg,Number7.jpg,7,Computer,,,,,1,1,11,3,0,7,7,3,,,,,,,,,,,,,,,,,,,,,,,,,,,,,2632.052176663478,None,2632.052176663478,None,2632.5021669435096,None,2632.5021669435096,None,v,7.392410853772162,2632.5021669435096,None,t,6.4598119394577225,2632.5021669435096,None,7.392410853772162,6.4598119394577225,7.194862771809031,False,True,False,2639.983726591076,None,2639.983726591076,None,2639.983726591076,None,2639.983726591076,None,2639.983726591076,None,2639.983726591076,None,2639.983726591076,None,2639.983726591076,None,2640.9835347580306,None,2640.9835347580306,None,2641.9499790523446,None,2641.9499790523446,None,c,,,,,,,,,,,,,,,,,,,,,,,,,,,,,,,,,,,,,,,,,,,,,,,27_28Exp,001,2021_May_05_1514,ComputerHuman,2020.1.3,60.01628777374219,
Computer.xlsx,c,Sychronize.jpg,Number9.jpg,9,Computer,,,,,1,1,11,3,0,8,8,7,,,,,,,,,,,,,,,,,,,,,,,,,,,,,2643.016591954433,None,2643.016591954433,None,2643.450105764808,None,2643.450105764808,None,v,9.932039454732148,2643.450105764808,None,t,8.051700609566979,2643.450105764808,None,9.932039454732148,8.051700609566979,9.064345808420766,False,False,False,2653.4658851555228,None,2653.4658851555228,None,2653.4658851555228,None,2653.4658851555228,None,2653.4658851555228,None,2653.4658851555228,None,2653.4658851555228,None,2653.4658851555228,None,2654.4807980896253,None,2654.4807980896253,None,2655.4639039500285,None,2655.4639039500285,None,c,,,,,,,,,,,,,,,,,,,,,,,,,,,,,,,,,,,,,,,,,,,,,,,27_28Exp,001,2021_May_05_1514,ComputerHuman,2020.1.3,60.01628777374219,
Computer.xlsx,c,Sychronize.jpg,Number9.jpg,9,Computer,,,,,1,1,11,3,0,9,9,6,,,,,,,,,,,,,,,,,,,,,,,,,,,,,2656.5142229125645,None,2656.5142229125645,None,2656.947449935746,None,2656.947449935746,None,v,9.230277606154232,2656.947449935746,None,t,6.421799162992102,2656.947449935746,None,9.230277606154232,6.421799162992102,8.465291169777826,False,False,False,2666.261703259301,None,2666.261703259301,None,2666.261703259301,None,2666.261703259301,None,2666.261703259301,None,2666.261703259301,None,2666.261703259301,None,2666.261703259301,None,2667.261502444107,None,2667.261502444107,None,2668.2446509697197,None,2668.2446509697197,None,c,,,,,,,,,,,,,,,,,,,,,,,,,,,,,,,,,,,,,,,,,,,,,,,27_28Exp,001,2021_May_05_1514,ComputerHuman,2020.1.3,60.01628777374219,
Computer.xlsx,c,,,,,,,,,1,1,11,3,,,,,,,,,,,,,,,,,,,,,,,,,,,,,,,,,,,,,,,,,,,,,,,,,,,,,,,,,,,,,,,,,,,,,,,,,,,,,,,c,2669.245109700914,None,2669.245109700914,None,a,1,3.4883575306021157,2669.245109700914,None,o,0,2.2564086031025,2669.245109700914,None,c,h,2672.8275234867165,None,2672.8275234867165,None,2674.8100384500153,None,None,None,None,None,None,None,None,,,,,,,,,,,,,,,,,,27_28Exp,001,2021_May_05_1514,ComputerHuman,2020.1.3,60.01628777374219,
