Condition,CorrectTuringReply,Sychronize,NumberImage,Number,Partner,trials.thisRepN,trials.thisTrialN,trials.thisN,trials.thisIndex,Block.thisRepN,Block.thisTrialN,Block.thisN,Block.thisIndex,trials_loop.thisRepN,trials_loop.thisTrialN,trials_loop.thisN,trials_loop.thisIndex,key_resp_Istr.keys,key_resp_Istr.rt,key_resp_Istr.started,key_resp_Istr.stopped,key_respPrLeft.keys,key_respPrRight.keys,RTPrLeft,RTPrRight,CompPr,SychronizedRTsPr,SychronizedRTsLeftCPr,SychronizedRTsRightCPr,CreditLeftPr.started,CreditLeftPr.stopped,CreditRightPr.started,CreditRightPr.stopped,key_respPrLeft.rt,key_respPrRight.rt,text_StartExp.started,text_StartExp.stopped,key_startExp.keys,key_startExp.rt,key_startExp.started,key_startExp.stopped,SychroLeft.started,SychroLeft.stopped,SychroRight.started,SychroRight.stopped,NumberLeft.started,NumberLeft.stopped,NumberRight.started,NumberRight.stopped,CrossLeft.started,CrossLeft.stopped,CrossRight.started,CrossRight.stopped,key_respLeft.keys,key_respLeft.rt,key_respLeft.started,key_respLeft.stopped,key_respRight.keys,key_respRight.rt,key_respRight.started,key_respRight.stopped,RTLeft,RTRight,Comp,SychronizedRTs,SychronizedRTsLeftC,SychronizedRTsRightC,FeedbackLeftLeft.started,FeedbackLeftLeft.stopped,FeedbackLeftRight.started,FeedbackLeftRight.stopped,FeedbackRightLeft.started,FeedbackRightLeft.stopped,FeedbackRightRight.started,FeedbackRightRight.stopped,textLeftLeft.started,textLeftLeft.stopped,textLeftRight.started,textLeftRight.stopped,textRightLeft.started,textRightLeft.stopped,textRightRight.started,textRightRight.stopped,CreditLeft.started,CreditLeft.stopped,CreditRight.started,CreditRight.stopped,BlankLeft.started,BlankLeft.stopped,BlankRight.started,BlankRight.stopped,CorrectTuringReply,TuringtextLeft.started,TuringtextLeft.stopped,TuringtextRight.started,TuringtextRight.stopped,keyTuringLeft.keys,keyTuringLeft.corr,keyTuringLeft.rt,keyTuringLeft.started,keyTuringLeft.stopped,keyTuringRight.keys,keyTuringRight.corr,keyTuringRight.rt,keyTuringRight.started,keyTuringRight.stopped,RespTuringLeft,RespTuringRight,ScoreLeft.started,ScoreLeft.stopped,ScoreRight.started,ScoreRight.stopped,BlockText.started,BlockText.stopped,text_Pause.started,text_Pause.stopped,text_LongPause.started,text_LongPause.stopped,key_respPause.keys,key_respPause.started,key_respPause.stopped,key_respPause.rt,QuestImageLeft.started,QuestImageLeft.stopped,QuestImageRight.started,QuestImageRight.stopped,respQuestLeft.keys,respQuestLeft.rt,respQuestLeft.started,respQuestLeft.stopped,respQuestRight.keys,respQuestRight.rt,respQuestRight.started,respQuestRight.stopped,RespInclusionLeft,RespInclusionRight,EndText.started,EndText.stopped,participant,session,date,expName,psychopyVersion,frameRate,
,,,,,,,,,,,,,,,,,,"['v', 't']","[273.16615153946327, 276.3940763205194]",19.168672909356133,None,,,,,,,,,,,,,,,,,,,,,,,,,,,,,,,,,,,,,,,,,,,,,,,,,,,,,,,,,,,,,,,,,,,,,,,,,,,,,,,,,,,,,,,,,,,,,,,,,,,,,,,,,,,,,,,,,,,,,,29_30Exp,001,2021_May_06_1245,ComputerHuman,2020.1.3,59.97850869177095,
,,,,,,,,,,,,,,,,,,,,,,v,t,7.049019151825405,5.696247425299589,6,False,False,False,370.72401649732967,None,370.72401649732967,None,7.049019151825405,5.696247425299589,371.7404002690745,None,"['space', 'space']","[1.4829456272677817, 1.84689446463085]",372.72354237713864,None,,,,,,,,,,,,,,,,,,,,,,,,,,,,,,,,,,,,,,,,,,,,,,,,,,,,,,,,,,,,,,,,,,,,,,,,,,,,,,,,,,,,,,,,,,,,,,,,,,29_30Exp,001,2021_May_06_1245,ComputerHuman,2020.1.3,59.97850869177095,
Human.xlsx,h,Sychronize.jpg,Number8.jpg,8,Human,,,,,0,0,0,2,0,0,0,5,,,,,,,,,,,,,,,,,,,,,,,,,374.6589141492799,None,374.6589141492799,None,377.7057657570382,None,377.7057657570382,None,378.13934161450436,None,378.13934161450436,None,v,9.558425369215456,378.13934161450436,None,t,8.27408605955111,378.13934161450436,None,9.558425369215456,8.27408605955111,8.230789206239729,False,False,False,387.78681881711816,None,387.78681881711816,None,387.78681881711816,None,387.78681881711816,None,387.78681881711816,None,387.78681881711816,None,387.78681881711816,None,387.78681881711816,None,388.7900273084248,None,388.7900273084248,None,389.78639858880285,None,389.78639858880285,None,h,,,,,,,,,,,,,,,,,,,,,,,,,,,,,,,,,,,,,,,,,,,,,,,29_30Exp,001,2021_May_06_1245,ComputerHuman,2020.1.3,59.97850869177095,
Human.xlsx,h,Sychronize.jpg,Number10.jpg,10,Human,,,,,0,0,0,2,0,1,1,8,,,,,,,,,,,,,,,,,,,,,,,,,,,,,390.8361346950443,None,390.8361346950443,None,391.28665056539955,None,391.28665056539955,None,v,12.294254452415089,391.28665056539955,None,t,12.097884326863095,391.28665056539955,None,12.294254452415089,12.097884326863095,10.391027777825121,True,False,False,403.66668933547146,None,403.66668933547146,None,403.66668933547146,None,403.66668933547146,None,403.66668933547146,None,403.66668933547146,None,403.66668933547146,None,403.66668933547146,None,404.6355561914228,None,404.6355561914228,None,405.6496636729943,None,405.6496636729943,None,h,,,,,,,,,,,,,,,,,,,,,,,,,,,,,,,,,,,,,,,,,,,,,,,29_30Exp,001,2021_May_06_1245,ComputerHuman,2020.1.3,59.97850869177095,
Human.xlsx,h,Sychronize.jpg,Number6.jpg,6,Human,,,,,0,0,0,2,0,2,2,1,,,,,,,,,,,,,,,,,,,,,,,,,,,,,406.6998078177222,None,406.6998078177222,None,407.1493966195038,None,407.1493966195038,None,v,7.07094608791499,407.1493966195038,None,t,6.534203537424219,407.1493966195038,None,7.07094608791499,6.534203537424219,5.805354237926758,False,False,False,414.31425507473807,None,414.31425507473807,None,414.31425507473807,None,414.31425507473807,None,414.31425507473807,None,414.31425507473807,None,414.31425507473807,None,414.31425507473807,None,415.28304013052104,None,415.28304013052104,None,416.280568161514,None,416.280568161514,None,h,,,,,,,,,,,,,,,,,,,,,,,,,,,,,,,,,,,,,,,,,,,,,,,29_30Exp,001,2021_May_06_1245,ComputerHuman,2020.1.3,59.97850869177095,
Human.xlsx,h,Sychronize.jpg,Number7.jpg,7,Human,,,,,0,0,0,2,0,3,3,2,,,,,,,,,,,,,,,,,,,,,,,,,,,,,417.3475259298515,None,417.3475259298515,None,417.78072229869383,None,417.78072229869383,None,v,8.595007366827076,417.78072229869383,None,t,7.674077013414944,417.78072229869383,None,8.595007366827076,7.674077013414944,7.2220492538580165,False,False,False,426.4616634689752,None,426.4616634689752,None,426.4616634689752,None,426.4616634689752,None,426.4616634689752,None,426.4616634689752,None,426.4616634689752,None,426.4616634689752,None,427.44664912828296,None,427.44664912828296,None,428.44451270035836,None,428.44451270035836,None,h,,,,,,,,,,,,,,,,,,,,,,,,,,,,,,,,,,,,,,,,,,,,,,,29_30Exp,001,2021_May_06_1245,ComputerHuman,2020.1.3,59.97850869177095,
Human.xlsx,h,Sychronize.jpg,Number7.jpg,7,Human,,,,,0,0,0,2,0,4,4,3,,,,,,,,,,,,,,,,,,,,,,,,,,,,,429.4780844517769,None,429.4780844517769,None,429.9446225692117,None,429.9446225692117,None,v,7.306532176497285,429.9446225692117,None,t,8.370141591279435,429.9446225692117,None,7.306532176497285,8.370141591279435,7.195357190156768,False,False,False,438.40900148298886,None,438.40900148298886,None,438.40900148298886,None,438.40900148298886,None,438.40900148298886,None,438.40900148298886,None,438.40900148298886,None,438.40900148298886,None,439.3947903878708,None,439.3947903878708,None,440.3918224852945,None,440.3918224852945,None,h,,,,,,,,,,,,,,,,,,,,,,,,,,,,,,,,,,,,,,,,,,,,,,,29_30Exp,001,2021_May_06_1245,ComputerHuman,2020.1.3,59.97850869177095,
Human.xlsx,h,Sychronize.jpg,Number8.jpg,8,Human,,,,,0,0,0,2,0,5,5,4,,,,,,,,,,,,,,,,,,,,,,,,,,,,,441.44143573089093,None,441.44143573089093,None,441.8920000397774,None,441.8920000397774,None,v,8.962390848902942,441.8920000397774,None,t,10.67394709550058,441.8920000397774,None,8.962390848902942,10.67394709550058,7.499064439138276,False,False,False,452.6557727020328,None,452.6557727020328,None,452.6557727020328,None,452.6557727020328,None,452.6557727020328,None,452.6557727020328,None,452.6557727020328,None,452.6557727020328,None,453.6239280569124,None,453.6239280569124,None,454.62200046000555,None,454.62200046000555,None,h,,,,,,,,,,,,,,,,,,,,,,,,,,,,,,,,,,,,,,,,,,,,,,,29_30Exp,001,2021_May_06_1245,ComputerHuman,2020.1.3,59.97850869177095,
Human.xlsx,h,Sychronize.jpg,Number6.jpg,6,Human,,,,,0,0,0,2,0,6,6,0,,,,,,,,,,,,,,,,,,,,,,,,,,,,,455.68982210227716,None,455.68982210227716,None,456.1386814390286,None,456.1386814390286,None,v,7.859011475440866,456.1386814390286,None,t,7.574179760842071,456.1386814390286,None,7.859011475440866,7.574179760842071,5.81746737505565,True,False,False,464.08660424404945,None,464.08660424404945,None,464.08660424404945,None,464.08660424404945,None,464.08660424404945,None,464.08660424404945,None,464.08660424404945,None,464.08660424404945,None,465.0724454368818,None,465.0724454368818,None,466.0528698546492,None,466.0528698546492,None,h,,,,,,,,,,,,,,,,,,,,,,,,,,,,,,,,,,,,,,,,,,,,,,,29_30Exp,001,2021_May_06_1245,ComputerHuman,2020.1.3,59.97850869177095,
Human.xlsx,h,Sychronize.jpg,Number9.jpg,9,Human,,,,,0,0,0,2,0,7,7,6,,,,,,,,,,,,,,,,,,,,,,,,,,,,,467.1199479173516,None,467.1199479173516,None,467.5529784403626,None,467.5529784403626,None,v,10.535989988942674,467.5529784403626,None,t,8.39913060856452,467.5529784403626,None,10.535989988942674,8.39913060856452,9.100299978759884,False,False,False,478.18339501493745,None,478.18339501493745,None,478.18339501493745,None,478.18339501493745,None,478.18339501493745,None,478.18339501493745,None,478.18339501493745,None,478.18339501493745,None,479.16899465668473,None,479.16899465668473,None,480.1662910809267,None,480.1662910809267,None,h,,,,,,,,,,,,,,,,,,,,,,,,,,,,,,,,,,,,,,,,,,,,,,,29_30Exp,001,2021_May_06_1245,ComputerHuman,2020.1.3,59.97850869177095,
Human.xlsx,h,Sychronize.jpg,Number9.jpg,9,Human,,,,,0,0,0,2,0,8,8,7,,,,,,,,,,,,,,,,,,,,,,,,,,,,,481.1999407830939,None,481.1999407830939,None,481.64977691009005,None,481.64977691009005,None,v,9.97044864665645,481.64977691009005,None,t,10.217987183357081,481.64977691009005,None,9.97044864665645,10.217987183357081,8.720719863728851,True,False,False,491.9484844995096,None,491.9484844995096,None,491.9484844995096,None,491.9484844995096,None,491.9484844995096,None,491.9484844995096,None,491.9484844995096,None,491.9484844995096,None,492.94919535901124,None,492.94919535901124,None,493.9465787159812,None,493.9465787159812,None,h,,,,,,,,,,,,,,,,,,,,,,,,,,,,,,,,,,,,,,,,,,,,,,,29_30Exp,001,2021_May_06_1245,ComputerHuman,2020.1.3,59.97850869177095,
Human.xlsx,h,Sychronize.jpg,Number10.jpg,10,Human,,,,,0,0,0,2,0,9,9,9,,,,,,,,,,,,,,,,,,,,,,,,,,,,,494.99651114262645,None,494.99651114262645,None,495.44662442784,None,495.44662442784,None,v,10.04086383543995,495.44662442784,None,t,9.456080206508432,495.44662442784,None,10.04086383543995,9.456080206508432,10.603927912627622,False,False,False,505.577455616993,None,505.577455616993,None,505.577455616993,None,505.577455616993,None,505.577455616993,None,505.577455616993,None,505.577455616993,None,505.577455616993,None,506.5618478240996,None,506.5618478240996,None,507.56030067817153,None,507.56030067817153,None,h,,,,,,,,,,,,,,,,,,,,,,,,,,,,,,,,,,,,,,,,,,,,,,,29_30Exp,001,2021_May_06_1245,ComputerHuman,2020.1.3,59.97850869177095,
Human.xlsx,h,,,,,,,,,0,0,0,2,,,,,,,,,,,,,,,,,,,,,,,,,,,,,,,,,,,,,,,,,,,,,,,,,,,,,,,,,,,,,,,,,,,,,,,,,,,,,,,h,508.5609332661396,None,508.5609332661396,None,a,0,9.533925737637219,508.5609332661396,None,o,1,12.321152593241777,508.5609332661396,None,c,h,520.9911662233952,None,520.9911662233952,None,522.9735900939035,None,None,None,None,None,None,None,None,,,,,,,,,,,,,,,,,,29_30Exp,001,2021_May_06_1245,ComputerHuman,2020.1.3,59.97850869177095,
Human.xlsx,h,Sychronize.jpg,Number10.jpg,10,Human,,,,,0,1,1,4,0,0,0,9,,,,,,,,,,,,,,,,,,,,,,,,,527.9759773756774,None,527.9759773756774,None,531.038670628575,None,531.038670628575,None,531.4885542317473,None,531.4885542317473,None,v,10.26103107347808,531.4885542317473,None,t,9.831994323389154,531.4885542317473,None,10.26103107347808,9.831994323389154,10.038586236546475,False,False,False,541.8359961159355,None,541.8359961159355,None,541.8359961159355,None,541.8359961159355,None,541.8359961159355,None,541.8359961159355,None,541.8359961159355,None,541.8359961159355,None,542.8385287133027,None,542.8385287133027,None,543.8356102116123,None,543.8356102116123,None,h,,,,,,,,,,,,,,,,,,,,,,,,,,,,,,,,,,,,,,,,,,,,,,,29_30Exp,001,2021_May_06_1245,ComputerHuman,2020.1.3,59.97850869177095,
Human.xlsx,h,Sychronize.jpg,Number6.jpg,6,Human,,,,,0,1,1,4,0,1,1,1,,,,,,,,,,,,,,,,,,,,,,,,,,,,,544.8857030307444,None,544.8857030307444,None,545.3358371669812,None,545.3358371669812,None,v,5.437224144971651,545.3358371669812,None,t,7.180244906496,545.3358371669812,None,5.437224144971651,7.180244906496,6.257900256685697,False,False,False,552.5851900634931,None,552.5851900634931,None,552.5851900634931,None,552.5851900634931,None,552.5851900634931,None,552.5851900634931,None,552.5851900634931,None,552.5851900634931,None,553.5686651463596,None,553.5686651463596,None,554.566493752873,None,554.566493752873,None,h,,,,,,,,,,,,,,,,,,,,,,,,,,,,,,,,,,,,,,,,,,,,,,,29_30Exp,001,2021_May_06_1245,ComputerHuman,2020.1.3,59.97850869177095,
Human.xlsx,h,Sychronize.jpg,Number9.jpg,9,Human,,,,,0,1,1,4,0,2,2,6,,,,,,,,,,,,,,,,,,,,,,,,,,,,,555.6333007522729,None,555.6333007522729,None,556.0834015268723,None,556.0834015268723,None,v,9.148893307879916,556.0834015268723,None,t,8.484076394299791,556.0834015268723,None,9.148893307879916,8.484076394299791,8.746712091232343,False,False,False,565.3308040507444,None,565.3308040507444,None,565.3308040507444,None,565.3308040507444,None,565.3308040507444,None,565.3308040507444,None,565.3308040507444,None,565.3308040507444,None,566.2994466779988,None,566.2994466779988,None,567.2970273177276,None,567.2970273177276,None,h,,,,,,,,,,,,,,,,,,,,,,,,,,,,,,,,,,,,,,,,,,,,,,,29_30Exp,001,2021_May_06_1245,ComputerHuman,2020.1.3,59.97850869177095,
Human.xlsx,h,Sychronize.jpg,Number6.jpg,6,Human,,,,,0,1,1,4,0,3,3,0,,,,,,,,,,,,,,,,,,,,,,,,,,,,,568.3470126738936,None,568.3470126738936,None,568.7971452062053,None,568.7971452062053,None,v,5.518700320432117,568.7971452062053,None,t,6.262146122046488,568.7971452062053,None,5.518700320432117,6.262146122046488,5.5693013244808265,False,False,False,575.1452982706802,None,575.1452982706802,None,575.1452982706802,None,575.1452982706802,None,575.1452982706802,None,575.1452982706802,None,575.1452982706802,None,575.1452982706802,None,576.1301466340193,None,576.1301466340193,None,577.1281417279339,None,577.1281417279339,None,h,,,,,,,,,,,,,,,,,,,,,,,,,,,,,,,,,,,,,,,,,,,,,,,29_30Exp,001,2021_May_06_1245,ComputerHuman,2020.1.3,59.97850869177095,
Human.xlsx,h,Sychronize.jpg,Number7.jpg,7,Human,,,,,0,1,1,4,0,4,4,3,,,,,,,,,,,,,,,,,,,,,,,,,,,,,578.1780866651933,None,578.1780866651933,None,578.6282705231009,None,578.6282705231009,None,v,6.6151632490771135,578.6282705231009,None,t,5.926244477285536,578.6282705231009,None,6.6151632490771135,5.926244477285536,6.610902910081419,False,False,False,585.3264115420999,None,585.3264115420999,None,585.3264115420999,None,585.3264115420999,None,585.3264115420999,None,585.3264115420999,None,585.3264115420999,None,585.3264115420999,None,586.2949829550904,None,586.2949829550904,None,587.2926049760807,None,587.2926049760807,None,h,,,,,,,,,,,,,,,,,,,,,,,,,,,,,,,,,,,,,,,,,,,,,,,29_30Exp,001,2021_May_06_1245,ComputerHuman,2020.1.3,59.97850869177095,
Human.xlsx,h,Sychronize.jpg,Number7.jpg,7,Human,,,,,0,1,1,4,0,5,5,2,,,,,,,,,,,,,,,,,,,,,,,,,,,,,588.3595293827808,None,588.3595293827808,None,588.8096077024321,None,588.8096077024321,None,v,6.237133234510111,588.8096077024321,None,t,4.912278141102433,588.8096077024321,None,6.237133234510111,4.912278141102433,7.508800066053821,False,False,False,595.1259472379292,None,595.1259472379292,None,595.1259472379292,None,595.1259472379292,None,595.1259472379292,None,595.1259472379292,None,595.1259472379292,None,595.1259472379292,None,596.1263796560737,None,596.1263796560737,None,597.123804394305,None,597.123804394305,None,h,,,,,,,,,,,,,,,,,,,,,,,,,,,,,,,,,,,,,,,,,,,,,,,29_30Exp,001,2021_May_06_1245,ComputerHuman,2020.1.3,59.97850869177095,
Human.xlsx,h,Sychronize.jpg,Number10.jpg,10,Human,,,,,0,1,1,4,0,6,6,8,,,,,,,,,,,,,,,,,,,,,,,,,,,,,598.1738853443932,None,598.1738853443932,None,598.6072036115255,None,598.6072036115255,None,v,9.202820469802418,598.6072036115255,None,t,8.55429237561475,598.6072036115255,None,9.202820469802418,8.55429237561475,10.34523075560918,False,False,False,607.9047015208095,None,607.9047015208095,None,607.9047015208095,None,607.9047015208095,None,607.9047015208095,None,607.9047015208095,None,607.9047015208095,None,607.9047015208095,None,608.8900323447489,None,608.8900323447489,None,609.8875722447859,None,609.8875722447859,None,h,,,,,,,,,,,,,,,,,,,,,,,,,,,,,,,,,,,,,,,,,,,,,,,29_30Exp,001,2021_May_06_1245,ComputerHuman,2020.1.3,59.97850869177095,
Human.xlsx,h,Sychronize.jpg,Number8.jpg,8,Human,,,,,0,1,1,4,0,7,7,4,,,,,,,,,,,,,,,,,,,,,,,,,,,,,610.9216957463592,None,610.9216957463592,None,611.3874549978781,None,611.3874549978781,None,v,6.5340450696471635,611.3874549978781,None,t,6.15324443526265,611.3874549978781,None,6.5340450696471635,6.15324443526265,7.47945769652146,False,False,False,618.0190555897904,None,618.0190555897904,None,618.0190555897904,None,618.0190555897904,None,618.0190555897904,None,618.0190555897904,None,618.0190555897904,None,618.0190555897904,None,618.988295197881,None,618.988295197881,None,619.9853423721985,None,619.9853423721985,None,h,,,,,,,,,,,,,,,,,,,,,,,,,,,,,,,,,,,,,,,,,,,,,,,29_30Exp,001,2021_May_06_1245,ComputerHuman,2020.1.3,59.97850869177095,
Human.xlsx,h,Sychronize.jpg,Number8.jpg,8,Human,,,,,0,1,1,4,0,8,8,5,,,,,,,,,,,,,,,,,,,,,,,,,,,,,621.0357216523122,None,621.0357216523122,None,621.485428823749,None,621.485428823749,None,v,6.463601972570814,621.485428823749,None,t,7.15531253598806,621.485428823749,None,6.463601972570814,7.15531253598806,7.739955317582685,False,False,False,628.7334100437134,None,628.7334100437134,None,628.7334100437134,None,628.7334100437134,None,628.7334100437134,None,628.7334100437134,None,628.7334100437134,None,628.7334100437134,None,629.7189493778857,None,629.7189493778857,None,630.69965480329,None,630.69965480329,None,h,,,,,,,,,,,,,,,,,,,,,,,,,,,,,,,,,,,,,,,,,,,,,,,29_30Exp,001,2021_May_06_1245,ComputerHuman,2020.1.3,59.97850869177095,
Human.xlsx,h,Sychronize.jpg,Number9.jpg,9,Human,,,,,0,1,1,4,0,9,9,7,,,,,,,,,,,,,,,,,,,,,,,,,,,,,631.7661192043378,None,631.7661192043378,None,632.199817601664,None,632.199817601664,None,v,8.736489900245488,632.199817601664,None,t,8.164262436753233,632.199817601664,None,8.736489900245488,8.164262436753233,9.422341929261083,False,False,False,641.0153556559043,None,641.0153556559043,None,641.0153556559043,None,641.0153556559043,None,641.0153556559043,None,641.0153556559043,None,641.0153556559043,None,641.0153556559043,None,642.0162551369705,None,642.0162551369705,None,643.0136073777977,None,643.0136073777977,None,h,,,,,,,,,,,,,,,,,,,,,,,,,,,,,,,,,,,,,,,,,,,,,,,29_30Exp,001,2021_May_06_1245,ComputerHuman,2020.1.3,59.97850869177095,
Human.xlsx,h,,,,,,,,,0,1,1,4,,,,,,,,,,,,,,,,,,,,,,,,,,,,,,,,,,,,,,,,,,,,,,,,,,,,,,,,,,,,,,,,,,,,,,,,,,,,,,,h,644.014299631771,None,644.014299631771,None,q,0,10.857284689927837,644.014299631771,None,l,0,18.78859468273231,644.014299631771,None,h,c,662.8927763394137,None,662.8927763394137,None,664.8754353453074,None,None,None,None,None,None,None,None,,,,,,,,,,,,,,,,,,29_30Exp,001,2021_May_06_1245,ComputerHuman,2020.1.3,59.97850869177095,
Human.xlsx,h,Sychronize.jpg,Number10.jpg,10,Human,,,,,0,2,2,8,0,0,0,8,,,,,,,,,,,,,,,,,,,,,,,,,669.8774944640533,None,669.8774944640533,None,672.9575078600338,None,672.9575078600338,None,673.4071524784007,None,673.4071524784007,None,v,7.934984263893057,673.4071524784007,None,t,9.374061262872601,673.4071524784007,None,7.934984263893057,9.374061262872601,9.804983806111684,False,False,False,682.8557725095619,None,682.8557725095619,None,682.8557725095619,None,682.8557725095619,None,682.8557725095619,None,682.8557725095619,None,682.8557725095619,None,682.8557725095619,None,683.8741733772209,None,683.8741733772209,None,684.8542997857477,None,684.8542997857477,None,h,,,,,,,,,,,,,,,,,,,,,,,,,,,,,,,,,,,,,,,,,,,,,,,29_30Exp,001,2021_May_06_1245,ComputerHuman,2020.1.3,59.97850869177095,
Human.xlsx,h,Sychronize.jpg,Number6.jpg,6,Human,,,,,0,2,2,8,0,1,1,0,,,,,,,,,,,,,,,,,,,,,,,,,,,,,685.9212572333003,None,685.9212572333003,None,686.3544577723472,None,686.3544577723472,None,v,5.703060898140166,686.3544577723472,None,t,4.32632845879175,686.3544577723472,None,5.703060898140166,4.32632845879175,5.897934182721263,False,False,False,692.1376565310378,None,692.1376565310378,None,692.1376565310378,None,692.1376565310378,None,692.1376565310378,None,692.1376565310378,None,692.1376565310378,None,692.1376565310378,None,693.1384238486947,None,693.1384238486947,None,694.1356307739289,None,694.1356307739289,None,h,,,,,,,,,,,,,,,,,,,,,,,,,,,,,,,,,,,,,,,,,,,,,,,29_30Exp,001,2021_May_06_1245,ComputerHuman,2020.1.3,59.97850869177095,
Human.xlsx,h,Sychronize.jpg,Number7.jpg,7,Human,,,,,0,2,2,8,0,2,2,3,,,,,,,,,,,,,,,,,,,,,,,,,,,,,695.1858907220325,None,695.1858907220325,None,695.635746416912,None,695.635746416912,None,v,6.869540600631581,695.635746416912,None,t,6.252225205166042,695.635746416912,None,6.869540600631581,6.252225205166042,6.720887593032818,False,False,False,702.600474825918,None,702.600474825918,None,702.600474825918,None,702.600474825918,None,702.600474825918,None,702.600474825918,None,702.600474825918,None,702.600474825918,None,703.5690494467582,None,703.5690494467582,None,704.5665354549195,None,704.5665354549195,None,h,,,,,,,,,,,,,,,,,,,,,,,,,,,,,,,,,,,,,,,,,,,,,,,29_30Exp,001,2021_May_06_1245,ComputerHuman,2020.1.3,59.97850869177095,
Human.xlsx,h,Sychronize.jpg,Number6.jpg,6,Human,,,,,0,2,2,8,0,3,3,1,,,,,,,,,,,,,,,,,,,,,,,,,,,,,705.6335605881014,None,705.6335605881014,None,706.0834348885095,None,706.0834348885095,None,v,5.377128929575974,706.0834348885095,None,t,5.408273621883836,706.0834348885095,None,5.377128929575974,5.408273621883836,5.719982510139728,True,False,False,711.5817156414433,None,711.5817156414433,None,711.5817156414433,None,711.5817156414433,None,711.5817156414433,None,711.5817156414433,None,711.5817156414433,None,711.5817156414433,None,712.567675845501,None,712.567675845501,None,713.5646171607772,None,713.5646171607772,None,h,,,,,,,,,,,,,,,,,,,,,,,,,,,,,,,,,,,,,,,,,,,,,,,29_30Exp,001,2021_May_06_1245,ComputerHuman,2020.1.3,59.97850869177095,
Human.xlsx,h,Sychronize.jpg,Number9.jpg,9,Human,,,,,0,2,2,8,0,4,4,7,,,,,,,,,,,,,,,,,,,,,,,,,,,,,714.6148254624999,None,714.6148254624999,None,715.0482216803808,None,715.0482216803808,None,v,7.515749740244473,715.0482216803808,None,t,6.791168340576178,715.0482216803808,None,7.515749740244473,6.791168340576178,9.421618971890128,False,False,False,722.6473254713213,None,722.6473254713213,None,722.6473254713213,None,722.6473254713213,None,722.6473254713213,None,722.6473254713213,None,722.6473254713213,None,722.6473254713213,None,723.6479808350226,None,723.6479808350226,None,724.645587779119,None,724.645587779119,None,h,,,,,,,,,,,,,,,,,,,,,,,,,,,,,,,,,,,,,,,,,,,,,,,29_30Exp,001,2021_May_06_1245,ComputerHuman,2020.1.3,59.97850869177095,
Human.xlsx,h,Sychronize.jpg,Number8.jpg,8,Human,,,,,0,2,2,8,0,5,5,4,,,,,,,,,,,,,,,,,,,,,,,,,,,,,725.6793337167784,None,725.6793337167784,None,726.14536339003,None,726.14536339003,None,v,6.302086417547116,726.14536339003,None,t,5.129264154556722,726.14536339003,None,6.302086417547116,5.129264154556722,7.436736402740717,False,False,False,732.5285978200094,None,732.5285978200094,None,732.5285978200094,None,732.5285978200094,None,732.5285978200094,None,732.5285978200094,None,732.5285978200094,None,732.5285978200094,None,733.5124591279845,None,733.5124591279845,None,734.5099419282961,None,734.5099419282961,None,h,,,,,,,,,,,,,,,,,,,,,,,,,,,,,,,,,,,,,,,,,,,,,,,29_30Exp,001,2021_May_06_1245,ComputerHuman,2020.1.3,59.97850869177095,
Human.xlsx,h,Sychronize.jpg,Number8.jpg,8,Human,,,,,0,2,2,8,0,6,6,5,,,,,,,,,,,,,,,,,,,,,,,,,,,,,735.5602557682752,None,735.5602557682752,None,736.0098474571215,None,736.0098474571215,None,v,6.177056303857626,736.0098474571215,None,t,6.35620989987342,736.0098474571215,None,6.177056303857626,6.35620989987342,8.569136786414044,True,False,False,742.4582198422828,None,742.4582198422828,None,742.4582198422828,None,742.4582198422828,None,742.4582198422828,None,742.4582198422828,None,742.4582198422828,None,742.4582198422828,None,743.4439269469964,None,743.4439269469964,None,744.4411290604561,None,744.4411290604561,None,h,,,,,,,,,,,,,,,,,,,,,,,,,,,,,,,,,,,,,,,,,,,,,,,29_30Exp,001,2021_May_06_1245,ComputerHuman,2020.1.3,59.97850869177095,
Human.xlsx,h,Sychronize.jpg,Number9.jpg,9,Human,,,,,0,2,2,8,0,7,7,6,,,,,,,,,,,,,,,,,,,,,,,,,,,,,745.4912084066194,None,745.4912084066194,None,745.9414224183146,None,745.9414224183146,None,v,7.412938476970794,745.9414224183146,None,t,6.256213203958623,745.9414224183146,None,7.412938476970794,6.256213203958623,9.655882671667483,False,False,False,753.4390478075469,None,753.4390478075469,None,753.4390478075469,None,753.4390478075469,None,753.4390478075469,None,753.4390478075469,None,753.4390478075469,None,753.4390478075469,None,754.4080779430498,None,754.4080779430498,None,755.422008672101,None,755.422008672101,None,h,,,,,,,,,,,,,,,,,,,,,,,,,,,,,,,,,,,,,,,,,,,,,,,29_30Exp,001,2021_May_06_1245,ComputerHuman,2020.1.3,59.97850869177095,
Human.xlsx,h,Sychronize.jpg,Number7.jpg,7,Human,,,,,0,2,2,8,0,8,8,2,,,,,,,,,,,,,,,,,,,,,,,,,,,,,756.4716604118943,None,756.4716604118943,None,756.9218032093253,None,756.9218032093253,None,v,5.712042235832769,756.9218032093253,None,t,5.279211882645313,756.9218032093253,None,5.712042235832769,5.279211882645313,7.3091494565783695,False,False,False,762.7204451982178,None,762.7204451982178,None,762.7204451982178,None,762.7204451982178,None,762.7204451982178,None,762.7204451982178,None,762.7204451982178,None,762.7204451982178,None,763.7062360278095,None,763.7062360278095,None,764.6866110446907,None,764.6866110446907,None,h,,,,,,,,,,,,,,,,,,,,,,,,,,,,,,,,,,,,,,,,,,,,,,,29_30Exp,001,2021_May_06_1245,ComputerHuman,2020.1.3,59.97850869177095,
Human.xlsx,h,Sychronize.jpg,Number10.jpg,10,Human,,,,,0,2,2,8,0,9,9,9,,,,,,,,,,,,,,,,,,,,,,,,,,,,,765.7531899659745,None,765.7531899659745,None,766.1866865895521,None,766.1866865895521,None,v,8.822502296018456,766.1866865895521,None,t,8.226075776468178,766.1866865895521,None,8.822502296018456,8.226075776468178,10.358300120709876,False,False,False,775.1009199150691,None,775.1009199150691,None,775.1009199150691,None,775.1009199150691,None,775.1009199150691,None,775.1009199150691,None,775.1009199150691,None,775.1009199150691,None,776.0861756753246,None,776.0861756753246,None,777.0838612117396,None,777.0838612117396,None,h,,,,,,,,,,,,,,,,,,,,,,,,,,,,,,,,,,,,,,,,,,,,,,,29_30Exp,001,2021_May_06_1245,ComputerHuman,2020.1.3,59.97850869177095,
Human.xlsx,h,,,,,,,,,0,2,2,8,,,,,,,,,,,,,,,,,,,,,,,,,,,,,,,,,,,,,,,,,,,,,,,,,,,,,,,,,,,,,,,,,,,,,,,,,,,,,,,h,778.0845534657127,None,778.0845534657127,None,a,0,9.755942301048435,778.0845534657127,None,l,0,3.8474083621586033,778.0845534657127,None,c,c,787.9317632619726,None,787.9317632619726,None,789.9309933780359,None,None,None,None,None,None,None,None,,,,,,,,,,,,,,,,,,29_30Exp,001,2021_May_06_1245,ComputerHuman,2020.1.3,59.97850869177095,
Human.xlsx,h,Sychronize.jpg,Number7.jpg,7,Human,,,,,0,3,3,0,0,0,0,2,,,,,,,,,,,,,,,,,,,,,,,,,794.9328112664815,None,794.9328112664815,None,797.9964177941991,None,797.9964177941991,None,798.4294666019535,None,798.4294666019535,None,v,5.326215863266043,798.4294666019535,None,t,5.161259247829776,798.4294666019535,None,5.326215863266043,5.161259247829776,6.621954789826471,True,False,False,803.8446011728541,None,803.8446011728541,None,803.8446011728541,None,803.8446011728541,None,803.8446011728541,None,803.8446011728541,None,803.8446011728541,None,803.8446011728541,None,804.8306896909013,None,804.8306896909013,None,805.8441350722873,None,805.8441350722873,None,h,,,,,,,,,,,,,,,,,,,,,,,,,,,,,,,,,,,,,,,,,,,,,,,29_30Exp,001,2021_May_06_1245,ComputerHuman,2020.1.3,59.97850869177095,
Human.xlsx,h,Sychronize.jpg,Number6.jpg,6,Human,,,,,0,3,3,0,0,1,1,0,,,,,,,,,,,,,,,,,,,,,,,,,,,,,806.8942766507354,None,806.8942766507354,None,807.3440040316256,None,807.3440040316256,None,v,4.455248731856727,807.3440040316256,None,t,3.838532562722321,807.3440040316256,None,4.455248731856727,3.838532562722321,6.396447354207193,False,False,False,811.8927416946364,None,811.8927416946364,None,811.8927416946364,None,811.8927416946364,None,811.8927416946364,None,811.8927416946364,None,811.8927416946364,None,811.8927416946364,None,812.8779557528454,None,812.8779557528454,None,813.8757051254703,None,813.8757051254703,None,h,,,,,,,,,,,,,,,,,,,,,,,,,,,,,,,,,,,,,,,,,,,,,,,29_30Exp,001,2021_May_06_1245,ComputerHuman,2020.1.3,59.97850869177095,
Human.xlsx,h,Sychronize.jpg,Number8.jpg,8,Human,,,,,0,3,3,0,0,2,2,4,,,,,,,,,,,,,,,,,,,,,,,,,,,,,814.9096781788909,None,814.9096781788909,None,815.3590668108487,None,815.3590668108487,None,v,6.071659192911284,815.3590668108487,None,t,6.323210108062767,815.3590668108487,None,6.071659192911284,6.323210108062767,7.719886805953462,True,False,False,821.7739768322677,None,821.7739768322677,None,821.7739768322677,None,821.7739768322677,None,821.7739768322677,None,821.7739768322677,None,821.7739768322677,None,821.7739768322677,None,822.7596691808723,None,822.7596691808723,None,823.7568639162777,None,823.7568639162777,None,h,,,,,,,,,,,,,,,,,,,,,,,,,,,,,,,,,,,,,,,,,,,,,,,29_30Exp,001,2021_May_06_1245,ComputerHuman,2020.1.3,59.97850869177095,
Human.xlsx,h,Sychronize.jpg,Number7.jpg,7,Human,,,,,0,3,3,0,0,3,3,3,,,,,,,,,,,,,,,,,,,,,,,,,,,,,824.8070128727803,None,824.8070128727803,None,825.2570055428436,None,825.2570055428436,None,v,5.593214820393996,825.2570055428436,None,t,5.684265785748266,825.2570055428436,None,5.593214820393996,5.684265785748266,6.605209376001139,True,False,False,831.0234086418831,None,831.0234086418831,None,831.0234086418831,None,831.0234086418831,None,831.0234086418831,None,831.0234086418831,None,831.0234086418831,None,831.0234086418831,None,832.0241968105632,None,832.0241968105632,None,833.004725483447,None,833.004725483447,None,h,,,,,,,,,,,,,,,,,,,,,,,,,,,,,,,,,,,,,,,,,,,,,,,29_30Exp,001,2021_May_06_1245,ComputerHuman,2020.1.3,59.97850869177095,
Human.xlsx,h,Sychronize.jpg,Number9.jpg,9,Human,,,,,0,3,3,0,0,4,4,6,,,,,,,,,,,,,,,,,,,,,,,,,,,,,834.0883281424977,None,834.0883281424977,None,834.5047718368756,None,834.5047718368756,None,v,7.316861773434084,834.5047718368756,None,t,7.248070718972258,834.5047718368756,None,7.316861773434084,7.248070718972258,9.197420451917013,True,False,False,841.9194117573467,None,841.9194117573467,None,841.9194117573467,None,841.9194117573467,None,841.9194117573467,None,841.9194117573467,None,841.9194117573467,None,841.9194117573467,None,842.904294123893,None,842.904294123893,None,843.9024107953127,None,843.9024107953127,None,h,,,,,,,,,,,,,,,,,,,,,,,,,,,,,,,,,,,,,,,,,,,,,,,29_30Exp,001,2021_May_06_1245,ComputerHuman,2020.1.3,59.97850869177095,
Human.xlsx,h,Sychronize.jpg,Number10.jpg,10,Human,,,,,0,3,3,0,0,5,5,9,,,,,,,,,,,,,,,,,,,,,,,,,,,,,844.9519069543936,None,844.9519069543936,None,845.402472225635,None,845.402472225635,None,v,8.162500044107901,845.402472225635,None,t,7.454173781409963,845.402472225635,None,8.162500044107901,7.454173781409963,9.814866475473979,False,False,False,853.6502795801438,None,853.6502795801438,None,853.6502795801438,None,853.6502795801438,None,853.6502795801438,None,853.6502795801438,None,853.6502795801438,None,853.6502795801438,None,854.6190287080098,None,854.6190287080098,None,855.6331538327548,None,855.6331538327548,None,h,,,,,,,,,,,,,,,,,,,,,,,,,,,,,,,,,,,,,,,,,,,,,,,29_30Exp,001,2021_May_06_1245,ComputerHuman,2020.1.3,59.97850869177095,
Human.xlsx,h,Sychronize.jpg,Number8.jpg,8,Human,,,,,0,3,3,0,0,6,6,5,,,,,,,,,,,,,,,,,,,,,,,,,,,,,856.6834760131431,None,856.6834760131431,None,857.1332714004478,None,857.1332714004478,None,v,5.97922404039582,857.1332714004478,None,t,6.086214169521554,857.1332714004478,None,5.97922404039582,6.086214169521554,7.828692643070658,True,False,False,863.3147420263282,None,863.3147420263282,None,863.3147420263282,None,863.3147420263282,None,863.3147420263282,None,863.3147420263282,None,863.3147420263282,None,863.3147420263282,None,864.3002444702284,None,864.3002444702284,None,865.2810037875082,None,865.2810037875082,None,h,,,,,,,,,,,,,,,,,,,,,,,,,,,,,,,,,,,,,,,,,,,,,,,29_30Exp,001,2021_May_06_1245,ComputerHuman,2020.1.3,59.97850869177095,
Human.xlsx,h,Sychronize.jpg,Number6.jpg,6,Human,,,,,0,3,3,0,0,7,7,1,,,,,,,,,,,,,,,,,,,,,,,,,,,,,866.3655165135293,None,866.3655165135293,None,866.7809664160587,None,866.7809664160587,None,v,4.347106663890827,866.7809664160587,None,t,4.610304960650865,866.7809664160587,None,4.347106663890827,4.610304960650865,6.0228164768439925,True,False,False,871.4963627795761,None,871.4963627795761,None,871.4963627795761,None,871.4963627795761,None,871.4963627795761,None,871.4963627795761,None,871.4963627795761,None,871.4963627795761,None,872.465100679968,None,872.465100679968,None,873.4624173136632,None,873.4624173136632,None,h,,,,,,,,,,,,,,,,,,,,,,,,,,,,,,,,,,,,,,,,,,,,,,,29_30Exp,001,2021_May_06_1245,ComputerHuman,2020.1.3,59.97850869177095,
Human.xlsx,h,Sychronize.jpg,Number9.jpg,9,Human,,,,,0,3,3,0,0,8,8,7,,,,,,,,,,,,,,,,,,,,,,,,,,,,,874.5293869510448,None,874.5293869510448,None,874.9623661484599,None,874.9623661484599,None,v,7.1851391228390185,874.9623661484599,None,t,6.728201778881157,874.9623661484599,None,7.1851391228390185,6.728201778881157,8.682864417634036,False,False,False,882.2439001935296,None,882.2439001935296,None,882.2439001935296,None,882.2439001935296,None,882.2439001935296,None,882.2439001935296,None,882.2439001935296,None,882.2439001935296,None,883.2125380090096,None,883.2125380090096,None,884.2101186487383,None,884.2101186487383,None,h,,,,,,,,,,,,,,,,,,,,,,,,,,,,,,,,,,,,,,,,,,,,,,,29_30Exp,001,2021_May_06_1245,ComputerHuman,2020.1.3,59.97850869177095,
Human.xlsx,h,Sychronize.jpg,Number10.jpg,10,Human,,,,,0,3,3,0,0,9,9,8,,,,,,,,,,,,,,,,,,,,,,,,,,,,,885.2597556324228,None,885.2597556324228,None,885.7101945143844,None,885.7101945143844,None,v,7.6007186224978796,885.7101945143844,None,t,8.072107008734747,885.7101945143844,None,7.6007186224978796,8.072107008734747,10.749080431636456,False,False,False,893.8745903976868,None,893.8745903976868,None,893.8745903976868,None,893.8745903976868,None,893.8745903976868,None,893.8745903976868,None,893.8745903976868,None,893.8745903976868,None,894.8594984270309,None,894.8594984270309,None,895.857535864562,None,895.857535864562,None,h,,,,,,,,,,,,,,,,,,,,,,,,,,,,,,,,,,,,,,,,,,,,,,,29_30Exp,001,2021_May_06_1245,ComputerHuman,2020.1.3,59.97850869177095,
Human.xlsx,h,,,,,,,,,0,3,3,0,,,,,,,,,,,,,,,,,,,,,,,,,,,,,,,,,,,,,,,,,,,,,,,,,,,,,,,,,,,,,,,,,,,,,,,,,,,,,,,h,896.8581238634187,None,896.8581238634187,None,q,1,4.964377149459779,896.8581238634187,None,l,0,1.6514882979245158,896.8581238634187,None,h,c,901.9064029643099,None,901.9064029643099,None,903.8891039930351,None,None,None,None,None,None,None,None,,,,,,,,,,,,,,,,,,29_30Exp,001,2021_May_06_1245,ComputerHuman,2020.1.3,59.97850869177095,
Computer.xlsx,c,Sychronize.jpg,Number8.jpg,8,Computer,,,,,0,4,4,9,0,0,0,5,,,,,,,,,,,,,,,,,,,,,,,,,908.9077730369323,None,908.9077730369323,None,911.9881903011945,None,911.9881903011945,None,912.4209321177294,None,912.4209321177294,None,v,6.500593612593775,912.4209321177294,None,t,6.208189447906761,912.4209321177294,None,6.500593612593775,6.208189447906761,8.216078057358986,False,False,False,919.0042202471135,None,919.0042202471135,None,919.0042202471135,None,919.0042202471135,None,919.0042202471135,None,919.0042202471135,None,919.0042202471135,None,919.0042202471135,None,920.018806660651,None,920.018806660651,None,921.0018874987851,None,921.0018874987851,None,c,,,,,,,,,,,,,,,,,,,,,,,,,,,,,,,,,,,,,,,,,,,,,,,29_30Exp,001,2021_May_06_1245,ComputerHuman,2020.1.3,59.97850869177095,
Computer.xlsx,c,Sychronize.jpg,Number8.jpg,8,Computer,,,,,0,4,4,9,0,1,1,4,,,,,,,,,,,,,,,,,,,,,,,,,,,,,922.0687349170915,None,922.0687349170915,None,922.5184167465153,None,922.5184167465153,None,v,6.974594150870871,922.5184167465153,None,t,6.322494436786656,922.5184167465153,None,6.974594150870871,6.322494436786656,8.473724989816093,False,False,False,929.5682141226868,None,929.5682141226868,None,929.5682141226868,None,929.5682141226868,None,929.5682141226868,None,929.5682141226868,None,929.5682141226868,None,929.5682141226868,None,930.5831764962132,None,930.5831764962132,None,931.5496602405952,None,931.5496602405952,None,c,,,,,,,,,,,,,,,,,,,,,,,,,,,,,,,,,,,,,,,,,,,,,,,29_30Exp,001,2021_May_06_1245,ComputerHuman,2020.1.3,59.97850869177095,
Computer.xlsx,c,Sychronize.jpg,Number9.jpg,9,Computer,,,,,0,4,4,9,0,2,2,7,,,,,,,,,,,,,,,,,,,,,,,,,,,,,932.6001168298875,None,932.6001168298875,None,933.0497758835783,None,933.0497758835783,None,v,8.266578087242578,933.0497758835783,None,t,7.758128450643881,933.0497758835783,None,8.266578087242578,7.758128450643881,9.00631405669661,False,False,False,941.4140650737983,None,941.4140650737983,None,941.4140650737983,None,941.4140650737983,None,941.4140650737983,None,941.4140650737983,None,941.4140650737983,None,941.4140650737983,None,942.413824485068,None,942.413824485068,None,943.397029146202,None,943.397029146202,None,c,,,,,,,,,,,,,,,,,,,,,,,,,,,,,,,,,,,,,,,,,,,,,,,29_30Exp,001,2021_May_06_1245,ComputerHuman,2020.1.3,59.97850869177095,
Computer.xlsx,c,Sychronize.jpg,Number7.jpg,7,Computer,,,,,0,4,4,9,0,3,3,2,,,,,,,,,,,,,,,,,,,,,,,,,,,,,944.4310544875733,None,944.4310544875733,None,944.8970617058768,None,944.8970617058768,None,v,6.414799992172902,944.8970617058768,None,t,5.810221043301681,944.8970617058768,None,6.414799992172902,5.810221043301681,7.331231994049994,False,False,False,951.3952208813054,None,951.3952208813054,None,951.3952208813054,None,951.3952208813054,None,951.3952208813054,None,951.3952208813054,None,951.3952208813054,None,951.3952208813054,None,952.3782048423776,None,952.3782048423776,None,953.3614050125219,None,953.3614050125219,None,c,,,,,,,,,,,,,,,,,,,,,,,,,,,,,,,,,,,,,,,,,,,,,,,29_30Exp,001,2021_May_06_1245,ComputerHuman,2020.1.3,59.97850869177095,
Computer.xlsx,c,Sychronize.jpg,Number6.jpg,6,Computer,,,,,0,4,4,9,0,4,4,1,,,,,,,,,,,,,,,,,,,,,,,,,,,,,954.4117512517831,None,954.4117512517831,None,954.8615382986785,None,954.8615382986785,None,v,5.629781420326935,954.8615382986785,None,t,4.805499088489341,954.8615382986785,None,5.629781420326935,4.805499088489341,6.208395836712706,False,False,False,960.5765394551082,None,960.5765394551082,None,960.5765394551082,None,960.5765394551082,None,960.5765394551082,None,960.5765394551082,None,960.5765394551082,None,960.5765394551082,None,961.5763315864452,None,961.5763315864452,None,962.5594345587427,None,962.5594345587427,None,c,,,,,,,,,,,,,,,,,,,,,,,,,,,,,,,,,,,,,,,,,,,,,,,29_30Exp,001,2021_May_06_1245,ComputerHuman,2020.1.3,59.97850869177095,
Computer.xlsx,c,Sychronize.jpg,Number9.jpg,9,Computer,,,,,0,4,4,9,0,5,5,6,,,,,,,,,,,,,,,,,,,,,,,,,,,,,963.5929578716301,None,963.5929578716301,None,964.0427144439528,None,964.0427144439528,None,v,8.576025557580351,964.0427144439528,None,t,8.051238021488189,964.0427144439528,None,8.576025557580351,8.051238021488189,9.135337487237223,False,False,False,972.7071406414353,None,972.7071406414353,None,972.7071406414353,None,972.7071406414353,None,972.7071406414353,None,972.7071406414353,None,972.7071406414353,None,972.7071406414353,None,973.7069064684046,None,973.7069064684046,None,974.6900652572873,None,974.6900652572873,None,c,,,,,,,,,,,,,,,,,,,,,,,,,,,,,,,,,,,,,,,,,,,,,,,29_30Exp,001,2021_May_06_1245,ComputerHuman,2020.1.3,59.97850869177095,
Computer.xlsx,c,Sychronize.jpg,Number7.jpg,7,Computer,,,,,0,4,4,9,0,6,6,3,,,,,,,,,,,,,,,,,,,,,,,,,,,,,975.7408535382423,None,975.7408535382423,None,976.189988429286,None,976.189988429286,None,v,6.968099859079075,976.189988429286,None,t,6.435158931311207,976.189988429286,None,6.968099859079075,6.435158931311207,7.523935499874623,False,False,False,983.2548132983335,None,983.2548132983335,None,983.2548132983335,None,983.2548132983335,None,983.2548132983335,None,983.2548132983335,None,983.2548132983335,None,983.2548132983335,None,984.2377905229213,None,984.2377905229213,None,985.2210516422105,None,985.2210516422105,None,c,,,,,,,,,,,,,,,,,,,,,,,,,,,,,,,,,,,,,,,,,,,,,,,29_30Exp,001,2021_May_06_1245,ComputerHuman,2020.1.3,59.97850869177095,
Computer.xlsx,c,Sychronize.jpg,Number10.jpg,10,Computer,,,,,0,4,4,9,0,7,7,8,,,,,,,,,,,,,,,,,,,,,,,,,,,,,986.2874477160591,None,986.2874477160591,None,986.7368373103719,None,986.7368373103719,None,v,10.720568379647602,986.7368373103719,None,t,9.004517935569083,986.7368373103719,None,10.720568379647602,9.004517935569083,10.665316883781095,False,True,False,997.5362995464421,None,997.5362995464421,None,997.5362995464421,None,997.5362995464421,None,997.5362995464421,None,997.5362995464421,None,997.5362995464421,None,997.5362995464421,None,998.5513700245048,None,998.5513700245048,None,999.5178460700473,None,999.5178460700473,None,c,,,,,,,,,,,,,,,,,,,,,,,,,,,,,,,,,,,,,,,,,,,,,,,29_30Exp,001,2021_May_06_1245,ComputerHuman,2020.1.3,59.97850869177095,
Computer.xlsx,c,Sychronize.jpg,Number6.jpg,6,Computer,,,,,0,4,4,9,0,8,8,0,,,,,,,,,,,,,,,,,,,,,,,,,,,,,1000.584654994157,None,1000.584654994157,None,1001.0177435792481,None,1001.0177435792481,None,v,6.615101337577244,1001.0177435792481,None,t,7.310150630999942,1001.0177435792481,None,6.615101337577244,7.310150630999942,5.835545141246745,False,False,False,1008.4158759049745,None,1008.4158759049745,None,1008.4158759049745,None,1008.4158759049745,None,1008.4158759049745,None,1008.4158759049745,None,1008.4158759049745,None,1008.4158759049745,None,1009.4156459021484,None,1009.4156459021484,None,1010.3987851231478,None,1010.3987851231478,None,c,,,,,,,,,,,,,,,,,,,,,,,,,,,,,,,,,,,,,,,,,,,,,,,29_30Exp,001,2021_May_06_1245,ComputerHuman,2020.1.3,59.97850869177095,
Computer.xlsx,c,Sychronize.jpg,Number10.jpg,10,Computer,,,,,0,4,4,9,0,9,9,9,,,,,,,,,,,,,,,,,,,,,,,,,,,,,1011.448950118899,None,1011.448950118899,None,1011.899008870667,None,1011.899008870667,None,v,8.977097877590268,1011.899008870667,None,t,9.12408668508192,1011.899008870667,None,8.977097877590268,9.12408668508192,10.135650163008055,False,False,False,1021.0966303784011,None,1021.0966303784011,None,1021.0966303784011,None,1021.0966303784011,None,1021.0966303784011,None,1021.0966303784011,None,1021.0966303784011,None,1021.0966303784011,None,1022.1128001865685,None,1022.1128001865685,None,1023.095974052345,None,1023.095974052345,None,c,,,,,,,,,,,,,,,,,,,,,,,,,,,,,,,,,,,,,,,,,,,,,,,29_30Exp,001,2021_May_06_1245,ComputerHuman,2020.1.3,59.97850869177095,
Computer.xlsx,c,,,,,,,,,0,4,4,9,,,,,,,,,,,,,,,,,,,,,,,,,,,,,,,,,,,,,,,,,,,,,,,,,,,,,,,,,,,,,,,,,,,,,,,,,,,,,,,c,1024.096586110075,None,1024.096586110075,None,q,0,4.471109303309504,1024.096586110075,None,o,0,2.718411100699768,1024.096586110075,None,h,h,1028.6615638331623,None,1028.6615638331623,None,None,None,1030.6609681354662,None,1030.6609681354662,None,"['space', 'space']",1031.644042878686,None,"[1.0514407575913083, 1.4713999344955937]",,,,,,,,,,,,,,,,,29_30Exp,001,2021_May_06_1245,ComputerHuman,2020.1.3,59.97850869177095,
Computer.xlsx,c,Sychronize.jpg,Number9.jpg,9,Computer,,,,,0,5,5,7,0,0,0,7,,,,,,,,,,,,,,,,,,,,,,,,,1033.1802279048925,None,1033.1802279048925,None,1036.2435585575327,None,1036.2435585575327,None,1036.6769932696106,None,1036.6769932696106,None,v,7.805904560696263,1036.6769932696106,None,t,7.713266992862145,1036.6769932696106,None,7.805904560696263,7.713266992862145,8.926767198866443,False,False,False,1044.5745268501837,None,1044.5745268501837,None,1044.5745268501837,None,1044.5745268501837,None,1044.5745268501837,None,1044.5745268501837,None,1044.5745268501837,None,1044.5745268501837,None,1045.5910206511744,None,1045.5910206511744,None,1046.574096998319,None,1046.574096998319,None,c,,,,,,,,,,,,,,,,,,,,,,,,,,,,,,,,,,,,,,,,,,,,,,,29_30Exp,001,2021_May_06_1245,ComputerHuman,2020.1.3,59.97850869177095,
Computer.xlsx,c,Sychronize.jpg,Number9.jpg,9,Computer,,,,,0,5,5,7,0,1,1,6,,,,,,,,,,,,,,,,,,,,,,,,,,,,,1047.6071070552484,None,1047.6071070552484,None,1048.0573640521302,None,1048.0573640521302,None,v,8.95286161047511,1048.0573640521302,None,t,7.400168989524218,1048.0573640521302,None,8.95286161047511,7.400168989524218,9.467804685156631,False,False,False,1057.1051167448795,None,1057.1051167448795,None,1057.1051167448795,None,1057.1051167448795,None,1057.1051167448795,None,1057.1051167448795,None,1057.1051167448795,None,1057.1051167448795,None,1058.1049226699702,None,1058.1049226699702,None,1059.0879926014154,None,1059.0879926014154,None,c,,,,,,,,,,,,,,,,,,,,,,,,,,,,,,,,,,,,,,,,,,,,,,,29_30Exp,001,2021_May_06_1245,ComputerHuman,2020.1.3,59.97850869177095,
Computer.xlsx,c,Sychronize.jpg,Number8.jpg,8,Computer,,,,,0,5,5,7,0,2,2,4,,,,,,,,,,,,,,,,,,,,,,,,,,,,,1060.1382467753892,None,1060.1382467753892,None,1060.588221802279,None,1060.588221802279,None,v,8.977301896833524,1060.588221802279,None,t,5.909265007844851,1060.588221802279,None,8.977301896833524,5.909265007844851,7.858139960707507,False,False,False,1069.6523200933611,None,1069.6523200933611,None,1069.6523200933611,None,1069.6523200933611,None,1069.6523200933611,None,1069.6523200933611,None,1069.6523200933611,None,1069.6523200933611,None,1070.635395157366,None,1070.635395157366,None,1071.6352091020813,None,1071.6352091020813,None,c,,,,,,,,,,,,,,,,,,,,,,,,,,,,,,,,,,,,,,,,,,,,,,,29_30Exp,001,2021_May_06_1245,ComputerHuman,2020.1.3,59.97850869177095,
Computer.xlsx,c,Sychronize.jpg,Number7.jpg,7,Computer,,,,,0,5,5,7,0,3,3,3,,,,,,,,,,,,,,,,,,,,,,,,,,,,,1072.6850805795816,None,1072.6850805795816,None,1073.1350806276992,None,1073.1350806276992,None,v,7.385962385395487,1073.1350806276992,None,t,6.749202929536523,1073.1350806276992,None,7.385962385395487,6.749202929536523,6.919498877143219,False,False,True,1080.6012020454532,None,1080.6012020454532,None,1080.6012020454532,None,1080.6012020454532,None,1080.6012020454532,None,1080.6012020454532,None,1080.6012020454532,None,1080.6012020454532,None,1081.5990287272566,None,1081.5990287272566,None,1082.5828085558487,None,1082.5828085558487,None,c,,,,,,,,,,,,,,,,,,,,,,,,,,,,,,,,,,,,,,,,,,,,,,,29_30Exp,001,2021_May_06_1245,ComputerHuman,2020.1.3,59.97850869177095,
Computer.xlsx,c,Sychronize.jpg,Number6.jpg,6,Computer,,,,,0,5,5,7,0,4,4,0,,,,,,,,,,,,,,,,,,,,,,,,,,,,,1083.6334771840084,None,1083.6334771840084,None,1084.0829941299558,None,1084.0829941299558,None,v,6.229419639033495,1084.0829941299558,None,t,5.476272979030682,1084.0829941299558,None,6.229419639033495,5.476272979030682,5.8032029415422075,False,False,False,1090.3977400057038,None,1090.3977400057038,None,1090.3977400057038,None,1090.3977400057038,None,1090.3977400057038,None,1090.3977400057038,None,1090.3977400057038,None,1090.3977400057038,None,1091.397467338476,None,1091.397467338476,None,1092.3806229195088,None,1092.3806229195088,None,c,,,,,,,,,,,,,,,,,,,,,,,,,,,,,,,,,,,,,,,,,,,,,,,29_30Exp,001,2021_May_06_1245,ComputerHuman,2020.1.3,59.97850869177095,
Computer.xlsx,c,Sychronize.jpg,Number10.jpg,10,Computer,,,,,0,5,5,7,0,5,5,8,,,,,,,,,,,,,,,,,,,,,,,,,,,,,1093.4309560065863,None,1093.4309560065863,None,1093.8808158716706,None,1093.8808158716706,None,v,9.85090459758635,1093.8808158716706,None,t,9.262073303857505,1093.8808158716706,None,9.85090459758635,9.262073303857505,10.724879044652457,False,False,False,1103.828123731897,None,1103.828123731897,None,1103.828123731897,None,1103.828123731897,None,1103.828123731897,None,1103.828123731897,None,1103.828123731897,None,1103.828123731897,None,1104.8278263642264,None,1104.8278263642264,None,1105.8110005507879,None,1105.8110005507879,None,c,,,,,,,,,,,,,,,,,,,,,,,,,,,,,,,,,,,,,,,,,,,,,,,29_30Exp,001,2021_May_06_1245,ComputerHuman,2020.1.3,59.97850869177095,
Computer.xlsx,c,Sychronize.jpg,Number7.jpg,7,Computer,,,,,0,5,5,7,0,6,6,2,,,,,,,,,,,,,,,,,,,,,,,,,,,,,1106.8613291468755,None,1106.8613291468755,None,1107.3110244492682,None,1107.3110244492682,None,v,6.5121640058087,1107.3110244492682,None,t,7.343144648681118,1107.3110244492682,None,6.5121640058087,7.343144648681118,6.555394426929457,False,True,False,1114.7274193843305,None,1114.7274193843305,None,1114.7274193843305,None,1114.7274193843305,None,1114.7274193843305,None,1114.7274193843305,None,1114.7274193843305,None,1114.7274193843305,None,1115.7248710684994,None,1115.7248710684994,None,1116.70860310013,None,1116.70860310013,None,c,,,,,,,,,,,,,,,,,,,,,,,,,,,,,,,,,,,,,,,,,,,,,,,29_30Exp,001,2021_May_06_1245,ComputerHuman,2020.1.3,59.97850869177095,
Computer.xlsx,c,Sychronize.jpg,Number6.jpg,6,Computer,,,,,0,5,5,7,0,7,7,1,,,,,,,,,,,,,,,,,,,,,,,,,,,,,1117.7584235728195,None,1117.7584235728195,None,1118.2085561051317,None,1118.2085561051317,None,v,5.23012761147038,1118.2085561051317,None,t,5.597443087131751,1118.2085561051317,None,5.23012761147038,5.597443087131751,6.409080773934105,False,False,False,1123.8902052478497,None,1123.8902052478497,None,1123.8902052478497,None,1123.8902052478497,None,1123.8902052478497,None,1123.8902052478497,None,1123.8902052478497,None,1123.8902052478497,None,1124.8900634608913,None,1124.8900634608913,None,1125.8731754151681,None,1125.8731754151681,None,c,,,,,,,,,,,,,,,,,,,,,,,,,,,,,,,,,,,,,,,,,,,,,,,29_30Exp,001,2021_May_06_1245,ComputerHuman,2020.1.3,59.97850869177095,
Computer.xlsx,c,Sychronize.jpg,Number10.jpg,10,Computer,,,,,0,5,5,7,0,8,8,9,,,,,,,,,,,,,,,,,,,,,,,,,,,,,1126.9229105590543,None,1126.9229105590543,None,1127.373131307234,None,1127.373131307234,None,v,9.18085054852645,1127.373131307234,None,t,9.292075360089257,1127.373131307234,None,9.18085054852645,9.292075360089257,9.558012313715693,False,False,True,1136.7543364514704,None,1136.7543364514704,None,1136.7543364514704,None,1136.7543364514704,None,1136.7543364514704,None,1136.7543364514704,None,1136.7543364514704,None,1136.7543364514704,None,1137.737249519063,None,1137.737249519063,None,1138.7369925702992,None,1138.7369925702992,None,c,,,,,,,,,,,,,,,,,,,,,,,,,,,,,,,,,,,,,,,,,,,,,,,29_30Exp,001,2021_May_06_1245,ComputerHuman,2020.1.3,59.97850869177095,
Computer.xlsx,c,Sychronize.jpg,Number8.jpg,8,Computer,,,,,0,5,5,7,0,9,9,5,,,,,,,,,,,,,,,,,,,,,,,,,,,,,1139.787103674175,None,1139.787103674175,None,1140.2373372537536,None,1140.2373372537536,None,v,6.456099774391987,1140.2373372537536,None,t,7.175159502308588,1140.2373372537536,None,6.456099774391987,7.175159502308588,7.95281087098654,False,False,False,1147.4865865367187,None,1147.4865865367187,None,1147.4865865367187,None,1147.4865865367187,None,1147.4865865367187,None,1147.4865865367187,None,1147.4865865367187,None,1147.4865865367187,None,1148.5015386451264,None,1148.5015386451264,None,1149.4679078692725,None,1149.4679078692725,None,c,,,,,,,,,,,,,,,,,,,,,,,,,,,,,,,,,,,,,,,,,,,,,,,29_30Exp,001,2021_May_06_1245,ComputerHuman,2020.1.3,59.97850869177095,
Computer.xlsx,c,,,,,,,,,0,5,5,7,,,,,,,,,,,,,,,,,,,,,,,,,,,,,,,,,,,,,,,,,,,,,,,,,,,,,,,,,,,,,,,,,,,,,,,,,,,,,,,c,1150.468679998704,None,1150.468679998704,None,a,1,11.81995205547787,1150.468679998704,None,o,0,4.159332292493218,1150.468679998704,None,c,h,1162.3823250045793,None,1162.3823250045793,None,1164.3812994550185,None,None,None,None,None,None,None,None,,,,,,,,,,,,,,,,,,29_30Exp,001,2021_May_06_1245,ComputerHuman,2020.1.3,59.97850869177095,
Computer.xlsx,c,Sychronize.jpg,Number6.jpg,6,Computer,,,,,0,6,6,3,0,0,0,1,,,,,,,,,,,,,,,,,,,,,,,,,1169.3670566021879,None,1169.3670566021879,None,1172.447757119582,None,1172.447757119582,None,1172.8965166922067,None,1172.8965166922067,None,v,5.135249681380174,1172.8965166922067,None,t,6.474248505061723,1172.8965166922067,None,5.135249681380174,6.474248505061723,5.879860610085729,False,False,False,1179.4612573551985,None,1179.4612573551985,None,1179.4612573551985,None,1179.4612573551985,None,1179.4612573551985,None,1179.4612573551985,None,1179.4612573551985,None,1179.4612573551985,None,1180.4610879807324,None,1180.4610879807324,None,1181.460871450875,None,1181.460871450875,None,c,,,,,,,,,,,,,,,,,,,,,,,,,,,,,,,,,,,,,,,,,,,,,,,29_30Exp,001,2021_May_06_1245,ComputerHuman,2020.1.3,59.97850869177095,
Computer.xlsx,c,Sychronize.jpg,Number8.jpg,8,Computer,,,,,0,6,6,3,0,1,1,4,,,,,,,,,,,,,,,,,,,,,,,,,,,,,1182.5111381354632,None,1182.5111381354632,None,1182.9441073885441,None,1182.9441073885441,None,v,6.939264497796557,1182.9441073885441,None,t,7.146151558710017,1182.9441073885441,None,6.939264497796557,7.146151558710017,8.079188386951026,False,False,False,1190.1603642577534,None,1190.1603642577534,None,1190.1603642577534,None,1190.1603642577534,None,1190.1603642577534,None,1190.1603642577534,None,1190.1603642577534,None,1190.1603642577534,None,1191.1754385852355,None,1191.1754385852355,None,1192.1585056296158,None,1192.1585056296158,None,c,,,,,,,,,,,,,,,,,,,,,,,,,,,,,,,,,,,,,,,,,,,,,,,29_30Exp,001,2021_May_06_1245,ComputerHuman,2020.1.3,59.97850869177095,
Computer.xlsx,c,Sychronize.jpg,Number8.jpg,8,Computer,,,,,0,6,6,3,0,2,2,5,,,,,,,,,,,,,,,,,,,,,,,,,,,,,1193.2083568976627,None,1193.2083568976627,None,1193.6585356230107,None,1193.6585356230107,None,v,7.740032970279572,1193.6585356230107,None,t,8.282888720013489,1193.6585356230107,None,7.740032970279572,8.282888720013489,8.201905956005362,False,False,True,1202.007112123651,None,1202.007112123651,None,1202.007112123651,None,1202.007112123651,None,1202.007112123651,None,1202.007112123651,None,1202.007112123651,None,1202.007112123651,None,1203.0227064435758,None,1203.0227064435758,None,1204.0058504763497,None,1204.0058504763497,None,c,,,,,,,,,,,,,,,,,,,,,,,,,,,,,,,,,,,,,,,,,,,,,,,29_30Exp,001,2021_May_06_1245,ComputerHuman,2020.1.3,59.97850869177095,
Computer.xlsx,c,Sychronize.jpg,Number7.jpg,7,Computer,,,,,0,6,6,3,0,3,3,2,,,,,,,,,,,,,,,,,,,,,,,,,,,,,1205.0730478710625,None,1205.0730478710625,None,1205.522406670018,None,1205.522406670018,None,v,6.979570488167383,1205.522406670018,None,t,6.163167918423142,1205.522406670018,None,6.979570488167383,6.163167918423142,6.754839657671198,False,True,False,1212.587335152612,None,1212.587335152612,None,1212.587335152612,None,1212.587335152612,None,1212.587335152612,None,1212.587335152612,None,1212.587335152612,None,1212.587335152612,None,1213.587062164599,None,1213.587062164599,None,1214.5535484752609,None,1214.5535484752609,None,c,,,,,,,,,,,,,,,,,,,,,,,,,,,,,,,,,,,,,,,,,,,,,,,29_30Exp,001,2021_May_06_1245,ComputerHuman,2020.1.3,59.97850869177095,
Computer.xlsx,c,Sychronize.jpg,Number9.jpg,9,Computer,,,,,0,6,6,3,0,4,4,6,,,,,,,,,,,,,,,,,,,,,,,,,,,,,1215.6202861851066,None,1215.6202861851066,None,1216.0530517397292,None,1216.0530517397292,None,v,8.044318048036303,1216.0530517397292,None,t,7.719178418356705,1216.0530517397292,None,8.044318048036303,7.719178418356705,8.33856024302977,False,True,False,1224.1847314051374,None,1224.1847314051374,None,1224.1847314051374,None,1224.1847314051374,None,1224.1847314051374,None,1224.1847314051374,None,1224.1847314051374,None,1224.1847314051374,None,1225.1845023646665,None,1225.1845023646665,None,1226.1676374154613,None,1226.1676374154613,None,c,,,,,,,,,,,,,,,,,,,,,,,,,,,,,,,,,,,,,,,,,,,,,,,29_30Exp,001,2021_May_06_1245,ComputerHuman,2020.1.3,59.97850869177095,
Computer.xlsx,c,Sychronize.jpg,Number7.jpg,7,Computer,,,,,0,6,6,3,0,5,5,3,,,,,,,,,,,,,,,,,,,,,,,,,,,,,1227.218086626699,None,1227.218086626699,None,1227.6677225838716,None,1227.6677225838716,None,v,6.361067225944453,1227.6677225838716,None,t,6.004226342028005,1227.6677225838716,None,6.361067225944453,6.004226342028005,7.096312532500242,False,False,False,1234.1158739481862,None,1234.1158739481862,None,1234.1158739481862,None,1234.1158739481862,None,1234.1158739481862,None,1234.1158739481862,None,1234.1158739481862,None,1234.1158739481862,None,1235.0989823738282,None,1235.0989823738282,None,1236.0821466160555,None,1236.0821466160555,None,c,,,,,,,,,,,,,,,,,,,,,,,,,,,,,,,,,,,,,,,,,,,,,,,29_30Exp,001,2021_May_06_1245,ComputerHuman,2020.1.3,59.97850869177095,
Computer.xlsx,c,Sychronize.jpg,Number10.jpg,10,Computer,,,,,0,6,6,3,0,6,6,8,,,,,,,,,,,,,,,,,,,,,,,,,,,,,1237.1489542570253,None,1237.1489542570253,None,1237.582158003922,None,1237.582158003922,None,v,9.546009707594976,1237.582158003922,None,t,10.292995050608624,1237.582158003922,None,9.546009707594976,10.292995050608624,10.627337267121998,False,False,False,1247.9628001705291,None,1247.9628001705291,None,1247.9628001705291,None,1247.9628001705291,None,1247.9628001705291,None,1247.9628001705291,None,1247.9628001705291,None,1247.9628001705291,None,1248.945775149622,None,1248.945775149622,None,1249.929052628945,None,1249.929052628945,None,c,,,,,,,,,,,,,,,,,,,,,,,,,,,,,,,,,,,,,,,,,,,,,,,29_30Exp,001,2021_May_06_1245,ComputerHuman,2020.1.3,59.97850869177095,
Computer.xlsx,c,Sychronize.jpg,Number6.jpg,6,Computer,,,,,0,6,6,3,0,7,7,0,,,,,,,,,,,,,,,,,,,,,,,,,,,,,1250.9954717993119,None,1250.9954717993119,None,1251.4292378822674,None,1251.4292378822674,None,v,6.306297361896441,1251.4292378822674,None,t,6.477109586241795,1251.4292378822674,None,6.306297361896441,6.477109586241795,6.185292821270222,False,True,True,1257.9939082933502,None,1257.9939082933502,None,1257.9939082933502,None,1257.9939082933502,None,1257.9939082933502,None,1257.9939082933502,None,1257.9939082933502,None,1257.9939082933502,None,1258.9936404378973,None,1258.9936404378973,None,1259.976834833912,None,1259.976834833912,None,c,,,,,,,,,,,,,,,,,,,,,,,,,,,,,,,,,,,,,,,,,,,,,,,29_30Exp,001,2021_May_06_1245,ComputerHuman,2020.1.3,59.97850869177095,
Computer.xlsx,c,Sychronize.jpg,Number9.jpg,9,Computer,,,,,0,6,6,3,0,8,8,7,,,,,,,,,,,,,,,,,,,,,,,,,,,,,1261.0267348612751,None,1261.0267348612751,None,1261.4768555245428,None,1261.4768555245428,None,v,9.821998984394895,1261.4768555245428,None,t,7.465143665154528,1261.4768555245428,None,9.821998984394895,7.465143665154528,9.639523355949166,False,True,False,1271.3909980679123,None,1271.3909980679123,None,1271.3909980679123,None,1271.3909980679123,None,1271.3909980679123,None,1271.3909980679123,None,1271.3909980679123,None,1271.3909980679123,None,1272.3906878688426,None,1272.3906878688426,None,1273.373822278067,None,1273.373822278067,None,c,,,,,,,,,,,,,,,,,,,,,,,,,,,,,,,,,,,,,,,,,,,,,,,29_30Exp,001,2021_May_06_1245,ComputerHuman,2020.1.3,59.97850869177095,
Computer.xlsx,c,Sychronize.jpg,Number10.jpg,10,Computer,,,,,0,6,6,3,0,9,9,9,,,,,,,,,,,,,,,,,,,,,,,,,,,,,1274.4239025865854,None,1274.4239025865854,None,1274.8740421761668,None,1274.8740421761668,None,v,11.012042588696204,1274.8740421761668,None,t,9.758999381847161,1274.8740421761668,None,11.012042588696204,9.758999381847161,9.670212838161216,False,False,True,1285.9708797816606,None,1285.9708797816606,None,1285.9708797816606,None,1285.9708797816606,None,1285.9708797816606,None,1285.9708797816606,None,1285.9708797816606,None,1285.9708797816606,None,1286.9541383346705,None,1286.9541383346705,None,1287.9372798011646,None,1287.9372798011646,None,c,,,,,,,,,,,,,,,,,,,,,,,,,,,,,,,,,,,,,,,,,,,,,,,29_30Exp,001,2021_May_06_1245,ComputerHuman,2020.1.3,59.97850869177095,
Computer.xlsx,c,,,,,,,,,0,6,6,3,,,,,,,,,,,,,,,,,,,,,,,,,,,,,,,,,,,,,,,,,,,,,,,,,,,,,,,,,,,,,,,,,,,,,,,,,,,,,,,c,1288.95450852053,None,1288.95450852053,None,a,1,4.8031329785239905,1288.95450852053,None,l,0,4.654341038695293,1288.95450852053,None,c,c,1293.8529951532596,None,1293.8529951532596,None,1295.8521296754006,None,None,None,None,None,None,None,None,,,,,,,,,,,,,,,,,,29_30Exp,001,2021_May_06_1245,ComputerHuman,2020.1.3,59.97850869177095,
Computer.xlsx,c,Sychronize.jpg,Number8.jpg,8,Computer,,,,,0,7,7,1,0,0,0,4,,,,,,,,,,,,,,,,,,,,,,,,,1300.8378236279304,None,1300.8378236279304,None,1303.9178479306001,None,1303.9178479306001,None,1304.3506205424924,None,1304.3506205424924,None,v,8.410005860741421,1304.3506205424924,None,t,7.505142022735072,1304.3506205424924,None,8.410005860741421,7.505142022735072,8.28744993460783,False,True,False,1312.8483575648957,None,1312.8483575648957,None,1312.8483575648957,None,1312.8483575648957,None,1312.8483575648957,None,1312.8483575648957,None,1312.8483575648957,None,1312.8483575648957,None,1313.8648494411764,None,1313.8648494411764,None,1314.8313059188354,None,1314.8313059188354,None,c,,,,,,,,,,,,,,,,,,,,,,,,,,,,,,,,,,,,,,,,,,,,,,,29_30Exp,001,2021_May_06_1245,ComputerHuman,2020.1.3,59.97850869177095,
Computer.xlsx,c,Sychronize.jpg,Number9.jpg,9,Computer,,,,,0,7,7,1,0,1,1,7,,,,,,,,,,,,,,,,,,,,,,,,,,,,,1315.8978700840103,None,1315.8978700840103,None,1316.331246092438,None,1316.331246092438,None,v,8.536732285371727,1316.331246092438,None,t,8.608059786620288,1316.331246092438,None,8.536732285371727,8.608059786620288,9.261441043319385,False,False,False,1325.0289688078315,None,1325.0289688078315,None,1325.0289688078315,None,1325.0289688078315,None,1325.0289688078315,None,1325.0289688078315,None,1325.0289688078315,None,1325.0289688078315,None,1326.0288363236373,None,1326.0288363236373,None,1327.0119816395513,None,1327.0119816395513,None,c,,,,,,,,,,,,,,,,,,,,,,,,,,,,,,,,,,,,,,,,,,,,,,,29_30Exp,001,2021_May_06_1245,ComputerHuman,2020.1.3,59.97850869177095,
Computer.xlsx,c,Sychronize.jpg,Number6.jpg,6,Computer,,,,,0,7,7,1,0,2,2,1,,,,,,,,,,,,,,,,,,,,,,,,,,,,,1328.0455206709025,None,1328.0455206709025,None,1328.5121293610314,None,1328.5121293610314,None,v,6.559320359292087,1328.5121293610314,None,t,5.978260723120002,1328.5121293610314,None,6.559320359292087,5.978260723120002,5.750101315697177,False,False,True,1335.1601220650982,None,1335.1601220650982,None,1335.1601220650982,None,1335.1601220650982,None,1335.1601220650982,None,1335.1601220650982,None,1335.1601220650982,None,1335.1601220650982,None,1336.1430691358983,None,1336.1430691358983,None,1337.1263591258353,None,1337.1263591258353,None,c,,,,,,,,,,,,,,,,,,,,,,,,,,,,,,,,,,,,,,,,,,,,,,,29_30Exp,001,2021_May_06_1245,ComputerHuman,2020.1.3,59.97850869177095,
Computer.xlsx,c,Sychronize.jpg,Number6.jpg,6,Computer,,,,,0,7,7,1,0,3,3,0,,,,,,,,,,,,,,,,,,,,,,,,,,,,,1338.1933810511673,None,1338.1933810511673,None,1338.6429214144177,None,1338.6429214144177,None,v,5.0520646843651775,1338.6429214144177,None,t,5.523255467058334,1338.6429214144177,None,5.0520646843651775,5.523255467058334,6.17923039688175,False,False,False,1344.257994202132,None,1344.257994202132,None,1344.257994202132,None,1344.257994202132,None,1344.257994202132,None,1344.257994202132,None,1344.257994202132,None,1344.257994202132,None,1345.257921383943,None,1345.257921383943,None,1346.2410076754218,None,1346.2410076754218,None,c,,,,,,,,,,,,,,,,,,,,,,,,,,,,,,,,,,,,,,,,,,,,,,,29_30Exp,001,2021_May_06_1245,ComputerHuman,2020.1.3,59.97850869177095,
Computer.xlsx,c,Sychronize.jpg,Number8.jpg,8,Computer,,,,,0,7,7,1,0,4,4,5,,,,,,,,,,,,,,,,,,,,,,,,,,,,,1347.291159839774,None,1347.291159839774,None,1347.7242965426117,None,1347.7242965426117,None,v,7.438074866721763,1347.7242965426117,None,t,8.437141061663624,1347.7242965426117,None,7.438074866721763,8.437141061663624,8.463365019297486,False,False,True,1356.2554484525813,None,1356.2554484525813,None,1356.2554484525813,None,1356.2554484525813,None,1356.2554484525813,None,1356.2554484525813,None,1356.2554484525813,None,1356.2554484525813,None,1357.2551783516333,None,1357.2551783516333,None,1358.238339706796,None,1358.238339706796,None,c,,,,,,,,,,,,,,,,,,,,,,,,,,,,,,,,,,,,,,,,,,,,,,,29_30Exp,001,2021_May_06_1245,ComputerHuman,2020.1.3,59.97850869177095,
Computer.xlsx,c,Sychronize.jpg,Number7.jpg,7,Computer,,,,,0,7,7,1,0,5,5,2,,,,,,,,,,,,,,,,,,,,,,,,,,,,,1359.3050443757893,None,1359.3050443757893,None,1359.7384935231908,None,1359.7384935231908,None,v,7.195253152273835,1359.7384935231908,None,t,5.798234912760563,1359.7384935231908,None,7.195253152273835,5.798234912760563,6.645773267361924,False,False,False,1367.0196763087142,None,1367.0196763087142,None,1367.0196763087142,None,1367.0196763087142,None,1367.0196763087142,None,1367.0196763087142,None,1367.0196763087142,None,1367.0196763087142,None,1368.002741428385,None,1368.002741428385,None,1368.9859938864797,None,1368.9859938864797,None,c,,,,,,,,,,,,,,,,,,,,,,,,,,,,,,,,,,,,,,,,,,,,,,,29_30Exp,001,2021_May_06_1245,ComputerHuman,2020.1.3,59.97850869177095,
Computer.xlsx,c,Sychronize.jpg,Number9.jpg,9,Computer,,,,,0,7,7,1,0,6,6,6,,,,,,,,,,,,,,,,,,,,,,,,,,,,,1370.053147654436,None,1370.053147654436,None,1370.4857701389606,None,1370.4857701389606,None,v,8.751304071114191,1370.4857701389606,None,t,8.311086360768059,1370.4857701389606,None,8.751304071114191,8.311086360768059,8.365508573135132,False,False,True,1379.3181680098469,None,1379.3181680098469,None,1379.3181680098469,None,1379.3181680098469,None,1379.3181680098469,None,1379.3181680098469,None,1379.3181680098469,None,1379.3181680098469,None,1380.3332564518678,None,1380.3332564518678,None,1381.2998999471665,None,1381.2998999471665,None,c,,,,,,,,,,,,,,,,,,,,,,,,,,,,,,,,,,,,,,,,,,,,,,,29_30Exp,001,2021_May_06_1245,ComputerHuman,2020.1.3,59.97850869177095,
Computer.xlsx,c,Sychronize.jpg,Number7.jpg,7,Computer,,,,,0,7,7,1,0,7,7,3,,,,,,,,,,,,,,,,,,,,,,,,,,,,,1382.3508239201656,None,1382.3508239201656,None,1382.799050668949,None,1382.799050668949,None,v,6.8655051256623665,1382.799050668949,None,t,6.50941584093971,1382.799050668949,None,6.8655051256623665,6.50941584093971,6.641353724878418,False,True,True,1389.7328351970405,None,1389.7328351970405,None,1389.7328351970405,None,1389.7328351970405,None,1389.7328351970405,None,1389.7328351970405,None,1389.7328351970405,None,1389.7328351970405,None,1390.747738546132,None,1390.747738546132,None,1391.73089059853,None,1391.73089059853,None,c,,,,,,,,,,,,,,,,,,,,,,,,,,,,,,,,,,,,,,,,,,,,,,,29_30Exp,001,2021_May_06_1245,ComputerHuman,2020.1.3,59.97850869177095,
Computer.xlsx,c,Sychronize.jpg,Number10.jpg,10,Computer,,,,,0,7,7,1,0,8,8,8,,,,,,,,,,,,,,,,,,,,,,,,,,,,,1392.780838743639,None,1392.780838743639,None,1393.2308910797074,None,1393.2308910797074,None,v,9.93292995692218,1393.2308910797074,None,t,8.696124885439986,1393.2308910797074,None,9.93292995692218,8.696124885439986,9.79820841779799,False,True,False,1403.261600146021,None,1403.261600146021,None,1403.261600146021,None,1403.261600146021,None,1403.261600146021,None,1403.261600146021,None,1403.261600146021,None,1403.261600146021,None,1404.2447647090335,None,1404.2447647090335,None,1405.2445398387667,None,1405.2445398387667,None,c,,,,,,,,,,,,,,,,,,,,,,,,,,,,,,,,,,,,,,,,,,,,,,,29_30Exp,001,2021_May_06_1245,ComputerHuman,2020.1.3,59.97850869177095,
Computer.xlsx,c,Sychronize.jpg,Number10.jpg,10,Computer,,,,,0,7,7,1,0,9,9,9,,,,,,,,,,,,,,,,,,,,,,,,,,,,,1406.2950859270668,None,1406.2950859270668,None,1406.74471546854,None,1406.74471546854,None,v,10.41833343865801,1406.74471546854,None,t,10.149944841023625,1406.74471546854,None,10.41833343865801,10.149944841023625,9.452746891838459,False,False,False,1417.2434504529965,None,1417.2434504529965,None,1417.2434504529965,None,1417.2434504529965,None,1417.2434504529965,None,1417.2434504529965,None,1417.2434504529965,None,1417.2434504529965,None,1418.2415607087164,None,1418.2415607087164,None,1419.2248051471875,None,1419.2248051471875,None,c,,,,,,,,,,,,,,,,,,,,,,,,,,,,,,,,,,,,,,,,,,,,,,,29_30Exp,001,2021_May_06_1245,ComputerHuman,2020.1.3,59.97850869177095,
Computer.xlsx,c,,,,,,,,,0,7,7,1,,,,,,,,,,,,,,,,,,,,,,,,,,,,,,,,,,,,,,,,,,,,,,,,,,,,,,,,,,,,,,,,,,,,,,,,,,,,,,,c,1420.2251551235936,None,1420.2251551235936,None,q,0,5.525464713171914,1420.2251551235936,None,o,0,3.8603536397704374,1420.2251551235936,None,h,h,1425.8402445921265,None,1425.8402445921265,None,1427.8396145704382,None,None,None,None,None,None,None,None,,,,,,,,,,,,,,,,,,29_30Exp,001,2021_May_06_1245,ComputerHuman,2020.1.3,59.97850869177095,
Human.xlsx,h,Sychronize.jpg,Number6.jpg,6,Human,,,,,0,8,8,6,0,0,0,1,,,,,,,,,,,,,,,,,,,,,,,,,1432.8245793787228,None,1432.8245793787228,None,1435.9057841700956,None,1435.9057841700956,None,1436.338269679436,None,1436.338269679436,None,v,5.871485519926864,1436.338269679436,None,t,4.695237594202808,1436.338269679436,None,5.871485519926864,4.695237594202808,5.912762785976852,False,False,False,1442.2876552639368,None,1442.2876552639368,None,1442.2876552639368,None,1442.2876552639368,None,1442.2876552639368,None,1442.2876552639368,None,1442.2876552639368,None,1442.2876552639368,None,1443.3049314594787,None,1443.3049314594787,None,1444.3025938993756,None,1444.3025938993756,None,h,,,,,,,,,,,,,,,,,,,,,,,,,,,,,,,,,,,,,,,,,,,,,,,29_30Exp,001,2021_May_06_1245,ComputerHuman,2020.1.3,59.97850869177095,
Human.xlsx,h,Sychronize.jpg,Number10.jpg,10,Human,,,,,0,8,8,6,0,1,1,9,,,,,,,,,,,,,,,,,,,,,,,,,,,,,1445.3521413840522,None,1445.3521413840522,None,1445.8028532540266,None,1445.8028532540266,None,v,9.026239890060424,1445.8028532540266,None,t,8.797094842964725,1445.8028532540266,None,9.026239890060424,8.797094842964725,10.281307322663219,True,False,False,1454.9168191731897,None,1454.9168191731897,None,1454.9168191731897,None,1454.9168191731897,None,1454.9168191731897,None,1454.9168191731897,None,1454.9168191731897,None,1454.9168191731897,None,1455.902123371976,None,1455.902123371976,None,1456.8997428266866,None,1456.8997428266866,None,h,,,,,,,,,,,,,,,,,,,,,,,,,,,,,,,,,,,,,,,,,,,,,,,29_30Exp,001,2021_May_06_1245,ComputerHuman,2020.1.3,59.97850869177095,
Human.xlsx,h,Sychronize.jpg,Number7.jpg,7,Human,,,,,0,8,8,6,0,2,2,3,,,,,,,,,,,,,,,,,,,,,,,,,,,,,1457.9500890659479,None,1457.9500890659479,None,1458.4002052382261,None,1458.4002052382261,None,v,6.700308242281153,1458.4002052382261,None,t,6.003248268643347,1458.4002052382261,None,6.700308242281153,6.003248268643347,6.560661742560002,False,False,False,1465.197999713218,None,1465.197999713218,None,1465.197999713218,None,1465.197999713218,None,1465.197999713218,None,1465.197999713218,None,1465.197999713218,None,1465.197999713218,None,1466.1658477560932,None,1466.1658477560932,None,1467.1641392553233,None,1467.1641392553233,None,h,,,,,,,,,,,,,,,,,,,,,,,,,,,,,,,,,,,,,,,,,,,,,,,29_30Exp,001,2021_May_06_1245,ComputerHuman,2020.1.3,59.97850869177095,
Human.xlsx,h,Sychronize.jpg,Number7.jpg,7,Human,,,,,0,8,8,6,0,3,3,2,,,,,,,,,,,,,,,,,,,,,,,,,,,,,1468.2144367352685,None,1468.2144367352685,None,1468.6640601818272,None,1468.6640601818272,None,v,6.575945682121983,1468.6640601818272,None,t,7.8431595651823045,1468.6640601818272,None,6.575945682121983,7.8431595651823045,6.625900735426436,False,False,False,1476.5801296805334,None,1476.5801296805334,None,1476.5801296805334,None,1476.5801296805334,None,1476.5801296805334,None,1476.5801296805334,None,1476.5801296805334,None,1476.5801296805334,None,1477.580229765445,None,1477.580229765445,None,1478.578305376388,None,1478.578305376388,None,h,,,,,,,,,,,,,,,,,,,,,,,,,,,,,,,,,,,,,,,,,,,,,,,29_30Exp,001,2021_May_06_1245,ComputerHuman,2020.1.3,59.97850869177095,
Human.xlsx,h,Sychronize.jpg,Number6.jpg,6,Human,,,,,0,8,8,6,0,4,4,0,,,,,,,,,,,,,,,,,,,,,,,,,,,,,1479.628059767373,None,1479.628059767373,None,1480.0783202928892,None,1480.0783202928892,None,v,5.701125923179006,1480.0783202928892,None,t,5.160291760349537,1480.0783202928892,None,5.701125923179006,5.160291760349537,6.059022872372695,False,False,False,1485.8616951625304,None,1485.8616951625304,None,1485.8616951625304,None,1485.8616951625304,None,1485.8616951625304,None,1485.8616951625304,None,1485.8616951625304,None,1485.8616951625304,None,1486.8455308077077,None,1486.8455308077077,None,1487.8428192123251,None,1487.8428192123251,None,h,,,,,,,,,,,,,,,,,,,,,,,,,,,,,,,,,,,,,,,,,,,,,,,29_30Exp,001,2021_May_06_1245,ComputerHuman,2020.1.3,59.97850869177095,
Human.xlsx,h,Sychronize.jpg,Number10.jpg,10,Human,,,,,0,8,8,6,0,5,5,8,,,,,,,,,,,,,,,,,,,,,,,,,,,,,1488.9265357500417,None,1488.9265357500417,None,1489.3596949078274,None,1489.3596949078274,None,v,6.115236227658443,1489.3596949078274,None,t,8.838095332803277,1489.3596949078274,None,6.115236227658443,8.838095332803277,10.702992907023031,False,False,False,1498.2741563114605,None,1498.2741563114605,None,1498.2741563114605,None,1498.2741563114605,None,1498.2741563114605,None,1498.2741563114605,None,1498.2741563114605,None,1498.2741563114605,None,1499.259896136241,None,1499.259896136241,None,1500.2568396970119,None,1500.2568396970119,None,h,,,,,,,,,,,,,,,,,,,,,,,,,,,,,,,,,,,,,,,,,,,,,,,29_30Exp,001,2021_May_06_1245,ComputerHuman,2020.1.3,59.97850869177095,
Human.xlsx,h,Sychronize.jpg,Number9.jpg,9,Human,,,,,0,8,8,6,0,6,6,6,,,,,,,,,,,,,,,,,,,,,,,,,,,,,1501.3237884833702,None,1501.3237884833702,None,1501.7570871826192,None,1501.7570871826192,None,v,9.621194006581845,1501.7570871826192,None,t,8.228123988525113,1501.7570871826192,None,9.621194006581845,8.228123988525113,8.365702214783983,False,False,False,1511.4710647141983,None,1511.4710647141983,None,1511.4710647141983,None,1511.4710647141983,None,1511.4710647141983,None,1511.4710647141983,None,1511.4710647141983,None,1511.4710647141983,None,1512.4571112094136,None,1512.4571112094136,None,1513.4539338342497,None,1513.4539338342497,None,h,,,,,,,,,,,,,,,,,,,,,,,,,,,,,,,,,,,,,,,,,,,,,,,29_30Exp,001,2021_May_06_1245,ComputerHuman,2020.1.3,59.97850869177095,
Human.xlsx,h,Sychronize.jpg,Number8.jpg,8,Human,,,,,0,8,8,6,0,7,7,5,,,,,,,,,,,,,,,,,,,,,,,,,,,,,1514.5035932728824,None,1514.5035932728824,None,1514.937406832014,None,1514.937406832014,None,v,8.960043344465248,1514.937406832014,None,t,8.051144031490821,1514.937406832014,None,8.960043344465248,8.051144031490821,7.912398923785054,False,False,False,1523.984884932826,None,1523.984884932826,None,1523.984884932826,None,1523.984884932826,None,1523.984884932826,None,1523.984884932826,None,1523.984884932826,None,1523.984884932826,None,1524.9704470427314,None,1524.9704470427314,None,1525.9678259087113,None,1525.9678259087113,None,h,,,,,,,,,,,,,,,,,,,,,,,,,,,,,,,,,,,,,,,,,,,,,,,29_30Exp,001,2021_May_06_1245,ComputerHuman,2020.1.3,59.97850869177095,
Human.xlsx,h,Sychronize.jpg,Number8.jpg,8,Human,,,,,0,8,8,6,0,8,8,4,,,,,,,,,,,,,,,,,,,,,,,,,,,,,1527.017928351393,None,1527.017928351393,None,1527.4675909337184,None,1527.4675909337184,None,v,6.909277518459021,1527.4675909337184,None,t,7.044150598279884,1527.4675909337184,None,6.909277518459021,7.044150598279884,7.657820742124303,True,False,False,1534.5840628250953,None,1534.5840628250953,None,1534.5840628250953,None,1534.5840628250953,None,1534.5840628250953,None,1534.5840628250953,None,1534.5840628250953,None,1534.5840628250953,None,1535.5676059143766,None,1535.5676059143766,None,1536.5654399742343,None,1536.5654399742343,None,h,,,,,,,,,,,,,,,,,,,,,,,,,,,,,,,,,,,,,,,,,,,,,,,29_30Exp,001,2021_May_06_1245,ComputerHuman,2020.1.3,59.97850869177095,
Human.xlsx,h,Sychronize.jpg,Number9.jpg,9,Human,,,,,0,8,8,6,0,9,9,7,,,,,,,,,,,,,,,,,,,,,,,,,,,,,1537.632346737761,None,1537.632346737761,None,1538.06533844579,None,1538.06533844579,None,v,8.258902985962777,1538.06533844579,None,t,8.418122682930061,1538.06533844579,None,8.258902985962777,8.418122682930061,9.171099990581755,True,False,False,1546.5797739299974,None,1546.5797739299974,None,1546.5797739299974,None,1546.5797739299974,None,1546.5797739299974,None,1546.5797739299974,None,1546.5797739299974,None,1546.5797739299974,None,1547.5648606365721,None,1547.5648606365721,None,1548.5461591933927,None,1548.5461591933927,None,h,,,,,,,,,,,,,,,,,,,,,,,,,,,,,,,,,,,,,,,,,,,,,,,29_30Exp,001,2021_May_06_1245,ComputerHuman,2020.1.3,59.97850869177095,
Human.xlsx,h,,,,,,,,,0,8,8,6,,,,,,,,,,,,,,,,,,,,,,,,,,,,,,,,,,,,,,,,,,,,,,,,,,,,,,,,,,,,,,,,,,,,,,,,,,,,,,,h,1549.546252862605,None,1549.546252862605,None,a,0,2.5016769034496065,1549.546252862605,None,o,1,3.7852723127602985,1549.546252862605,None,c,h,1553.4122147860699,None,1553.4122147860699,None,1555.4279797636004,None,None,None,None,None,None,None,None,,,,,,,,,,,,,,,,,,29_30Exp,001,2021_May_06_1245,ComputerHuman,2020.1.3,59.97850869177095,
Computer.xlsx,c,Sychronize.jpg,Number8.jpg,8,Computer,,,,,0,9,9,5,0,0,0,4,,,,,,,,,,,,,,,,,,,,,,,,,1560.4299291738857,None,1560.4299291738857,None,1563.4935042646757,None,1563.4935042646757,None,1563.9430263431827,None,1563.9430263431827,None,v,7.139909403907495,1563.9430263431827,None,t,6.4714759605344625,1563.9430263431827,None,7.139909403907495,6.4714759605344625,8.071931747785495,False,False,False,1571.1743928262213,None,1571.1743928262213,None,1571.1743928262213,None,1571.1743928262213,None,1571.1743928262213,None,1571.1743928262213,None,1571.1743928262213,None,1571.1743928262213,None,1572.1908940052667,None,1572.1908940052667,None,1573.1740059595431,None,1573.1740059595431,None,c,,,,,,,,,,,,,,,,,,,,,,,,,,,,,,,,,,,,,,,,,,,,,,,29_30Exp,001,2021_May_06_1245,ComputerHuman,2020.1.3,59.97850869177095,
Computer.xlsx,c,Sychronize.jpg,Number6.jpg,6,Computer,,,,,0,9,9,5,0,1,1,0,,,,,,,,,,,,,,,,,,,,,,,,,,,,,1574.2409201011242,None,1574.2409201011242,None,1574.6741732489068,None,1574.6741732489068,None,v,5.080304347951369,1574.6741732489068,None,t,7.063204904930444,1574.6741732489068,None,5.080304347951369,7.063204904930444,5.903629542709291,False,False,False,1581.8220862379076,None,1581.8220862379076,None,1581.8220862379076,None,1581.8220862379076,None,1581.8220862379076,None,1581.8220862379076,None,1581.8220862379076,None,1581.8220862379076,None,1582.8052325161761,None,1582.8052325161761,None,1583.7883232986446,None,1583.7883232986446,None,c,,,,,,,,,,,,,,,,,,,,,,,,,,,,,,,,,,,,,,,,,,,,,,,29_30Exp,001,2021_May_06_1245,ComputerHuman,2020.1.3,59.97850869177095,
Computer.xlsx,c,Sychronize.jpg,Number8.jpg,8,Computer,,,,,0,9,9,5,0,2,2,5,,,,,,,,,,,,,,,,,,,,,,,,,,,,,1584.855087312858,None,1584.855087312858,None,1585.2885855403606,None,1585.2885855403606,None,v,7.5171711384628,1585.2885855403606,None,t,6.796213005071877,1585.2885855403606,None,7.5171711384628,6.796213005071877,7.74162830994905,False,True,False,1592.9029801886409,None,1592.9029801886409,None,1592.9029801886409,None,1592.9029801886409,None,1592.9029801886409,None,1592.9029801886409,None,1592.9029801886409,None,1592.9029801886409,None,1593.9027030304233,None,1593.9027030304233,None,1594.885861498521,None,1594.885861498521,None,c,,,,,,,,,,,,,,,,,,,,,,,,,,,,,,,,,,,,,,,,,,,,,,,29_30Exp,001,2021_May_06_1245,ComputerHuman,2020.1.3,59.97850869177095,
Computer.xlsx,c,Sychronize.jpg,Number10.jpg,10,Computer,,,,,0,9,9,5,0,3,3,9,,,,,,,,,,,,,,,,,,,,,,,,,,,,,1595.936032589187,None,1595.936032589187,None,1596.3861282312268,None,1596.3861282312268,None,v,9.247056717670148,1596.3861282312268,None,t,9.326075038662566,1596.3861282312268,None,9.247056717670148,9.326075038662566,10.11486740116047,False,False,False,1605.800108617792,None,1605.800108617792,None,1605.800108617792,None,1605.800108617792,None,1605.800108617792,None,1605.800108617792,None,1605.800108617792,None,1605.800108617792,None,1606.7998032304972,None,1606.7998032304972,None,1607.7830159112555,None,1607.7830159112555,None,c,,,,,,,,,,,,,,,,,,,,,,,,,,,,,,,,,,,,,,,,,,,,,,,29_30Exp,001,2021_May_06_1245,ComputerHuman,2020.1.3,59.97850869177095,
Computer.xlsx,c,Sychronize.jpg,Number9.jpg,9,Computer,,,,,0,9,9,5,0,4,4,7,,,,,,,,,,,,,,,,,,,,,,,,,,,,,1608.8332813127035,None,1608.8332813127035,None,1609.2832313183653,None,1609.2832313183653,None,v,8.681148397374272,1609.2832313183653,None,t,7.500134569296279,1609.2832313183653,None,8.681148397374272,7.500134569296279,9.497339269593324,False,False,False,1618.0473504283923,None,1618.0473504283923,None,1618.0473504283923,None,1618.0473504283923,None,1618.0473504283923,None,1618.0473504283923,None,1618.0473504283923,None,1618.0473504283923,None,1619.0304550046144,None,1619.0304550046144,None,1620.0136205299814,None,1620.0136205299814,None,c,,,,,,,,,,,,,,,,,,,,,,,,,,,,,,,,,,,,,,,,,,,,,,,29_30Exp,001,2021_May_06_1245,ComputerHuman,2020.1.3,59.97850869177095,
Computer.xlsx,c,Sychronize.jpg,Number7.jpg,7,Computer,,,,,0,9,9,5,0,5,5,2,,,,,,,,,,,,,,,,,,,,,,,,,,,,,1621.0974179055115,None,1621.0974179055115,None,1621.5305831582114,None,1621.5305831582114,None,v,7.321274491531767,1621.5305831582114,None,t,5.840267047074576,1621.5305831582114,None,7.321274491531767,5.840267047074576,6.640070999874609,False,False,False,1628.9301436186406,None,1628.9301436186406,None,1628.9301436186406,None,1628.9301436186406,None,1628.9301436186406,None,1628.9301436186406,None,1628.9301436186406,None,1628.9301436186406,None,1629.944729711393,None,1629.944729711393,None,1630.9112147389146,None,1630.9112147389146,None,c,,,,,,,,,,,,,,,,,,,,,,,,,,,,,,,,,,,,,,,,,,,,,,,29_30Exp,001,2021_May_06_1245,ComputerHuman,2020.1.3,59.97850869177095,
Computer.xlsx,c,Sychronize.jpg,Number10.jpg,10,Computer,,,,,0,9,9,5,0,6,6,8,,,,,,,,,,,,,,,,,,,,,,,,,,,,,1631.9610153229355,None,1631.9610153229355,None,1632.4112238812863,None,1632.4112238812863,None,v,8.892003889196985,1632.4112238812863,None,t,8.79507806783522,1632.4112238812863,None,8.892003889196985,8.79507806783522,10.310498932830239,False,False,False,1641.3921791981852,None,1641.3921791981852,None,1641.3921791981852,None,1641.3921791981852,None,1641.3921791981852,None,1641.3921791981852,None,1641.3921791981852,None,1641.3921791981852,None,1642.39193315611,None,1642.39193315611,None,1643.3752192966276,None,1643.3752192966276,None,c,,,,,,,,,,,,,,,,,,,,,,,,,,,,,,,,,,,,,,,,,,,,,,,29_30Exp,001,2021_May_06_1245,ComputerHuman,2020.1.3,59.97850869177095,
Computer.xlsx,c,Sychronize.jpg,Number6.jpg,6,Computer,,,,,0,9,9,5,0,7,7,1,,,,,,,,,,,,,,,,,,,,,,,,,,,,,1644.4252787541222,None,1644.4252787541222,None,1644.8754029460251,None,1644.8754029460251,None,v,5.723310128817502,1644.8754029460251,None,t,5.094316556386275,1644.8754029460251,None,5.723310128817502,5.094316556386275,6.29069710662313,False,False,False,1650.690126206432,None,1650.690126206432,None,1650.690126206432,None,1650.690126206432,None,1650.690126206432,None,1650.690126206432,None,1650.690126206432,None,1650.690126206432,None,1651.6731672672295,None,1651.6731672672295,None,1652.656391175462,None,1652.656391175462,None,c,,,,,,,,,,,,,,,,,,,,,,,,,,,,,,,,,,,,,,,,,,,,,,,29_30Exp,001,2021_May_06_1245,ComputerHuman,2020.1.3,59.97850869177095,
Computer.xlsx,c,Sychronize.jpg,Number9.jpg,9,Computer,,,,,0,9,9,5,0,8,8,6,,,,,,,,,,,,,,,,,,,,,,,,,,,,,1653.7234804656387,None,1653.7234804656387,None,1654.1562687959945,None,1654.1562687959945,None,v,8.533755400816062,1654.1562687959945,None,t,8.017104896365709,1654.1562687959945,None,8.533755400816062,8.017104896365709,9.212621505012525,False,False,False,1662.787491503208,None,1662.787491503208,None,1662.787491503208,None,1662.787491503208,None,1662.787491503208,None,1662.787491503208,None,1662.787491503208,None,1662.787491503208,None,1663.7872759357056,None,1663.7872759357056,None,1664.7536685771547,None,1664.7536685771547,None,c,,,,,,,,,,,,,,,,,,,,,,,,,,,,,,,,,,,,,,,,,,,,,,,29_30Exp,001,2021_May_06_1245,ComputerHuman,2020.1.3,59.97850869177095,
Computer.xlsx,c,Sychronize.jpg,Number7.jpg,7,Computer,,,,,0,9,9,5,0,9,9,3,,,,,,,,,,,,,,,,,,,,,,,,,,,,,1665.8046066646925,None,1665.8046066646925,None,1666.2535218180296,None,1666.2535218180296,None,v,6.848054423095618,1666.2535218180296,None,t,6.8632208158655885,1666.2535218180296,None,6.848054423095618,6.8632208158655885,6.5589029848716,False,True,False,1673.1863263480268,None,1673.1863263480268,None,1673.1863263480268,None,1673.1863263480268,None,1673.1863263480268,None,1673.1863263480268,None,1673.1863263480268,None,1673.1863263480268,None,1674.201570691545,None,1674.201570691545,None,1675.184734612987,None,1675.184734612987,None,c,,,,,,,,,,,,,,,,,,,,,,,,,,,,,,,,,,,,,,,,,,,,,,,29_30Exp,001,2021_May_06_1245,ComputerHuman,2020.1.3,59.97850869177095,
Computer.xlsx,c,,,,,,,,,0,9,9,5,,,,,,,,,,,,,,,,,,,,,,,,,,,,,,,,,,,,,,,,,,,,,,,,,,,,,,,,,,,,,,,,,,,,,,,,,,,,,,,c,1676.1858557564701,None,1676.1858557564701,None,a,1,7.379087963409802,1676.1858557564701,None,o,0,2.9823719033424823,1676.1858557564701,None,c,h,1683.649751247292,None,1683.649751247292,None,None,None,1685.6324121778957,None,1685.6324121778957,None,"['space', 'space']",1686.6155125839132,None,"[87.86460243674674, 152.98115131651775]",,,,,,,,,,,,,,,,,29_30Exp,001,2021_May_06_1245,ComputerHuman,2020.1.3,59.97850869177095,
Human.xlsx,h,Sychronize.jpg,Number6.jpg,6,Human,,,,,1,0,10,8,0,0,0,1,,,,,,,,,,,,,,,,,,,,,,,,,1839.6512897320258,None,1839.6512897320258,None,1842.7147172617279,None,1842.7147172617279,None,1843.1643487279111,None,1843.1643487279111,None,v,5.263814203909533,1843.1643487279111,None,t,4.999214397599644,1843.1643487279111,None,5.263814203909533,4.999214397599644,5.797577610620093,True,False,False,1848.512915605002,None,1848.512915605002,None,1848.512915605002,None,1848.512915605002,None,1848.512915605002,None,1848.512915605002,None,1848.512915605002,None,1848.512915605002,None,1849.4982194830036,None,1849.4982194830036,None,1850.4792177850886,None,1850.4792177850886,None,h,,,,,,,,,,,,,,,,,,,,,,,,,,,,,,,,,,,,,,,,,,,,,,,29_30Exp,001,2021_May_06_1245,ComputerHuman,2020.1.3,59.97850869177095,
Human.xlsx,h,Sychronize.jpg,Number10.jpg,10,Human,,,,,1,0,10,8,0,1,1,9,,,,,,,,,,,,,,,,,,,,,,,,,,,,,1851.5629266239657,None,1851.5629266239657,None,1851.9957563355833,None,1851.9957563355833,None,v,7.97987619624746,1851.9957563355833,None,t,7.959165355992809,1851.9957563355833,None,7.97987619624746,7.959165355992809,10.663462114041803,True,False,False,1860.0602386062792,None,1860.0602386062792,None,1860.0602386062792,None,1860.0602386062792,None,1860.0602386062792,None,1860.0602386062792,None,1860.0602386062792,None,1860.0602386062792,None,1861.0455626937342,None,1861.0455626937342,None,1862.0432815917861,None,1862.0432815917861,None,h,,,,,,,,,,,,,,,,,,,,,,,,,,,,,,,,,,,,,,,,,,,,,,,29_30Exp,001,2021_May_06_1245,ComputerHuman,2020.1.3,59.97850869177095,
Human.xlsx,h,Sychronize.jpg,Number10.jpg,10,Human,,,,,1,0,10,8,0,2,2,8,,,,,,,,,,,,,,,,,,,,,,,,,,,,,1863.0936284726176,None,1863.0936284726176,None,1863.5433507209482,None,1863.5433507209482,None,v,8.123636944549162,1863.5433507209482,None,t,7.875038534295072,1863.5433507209482,None,8.123636944549162,7.875038534295072,9.457981988667505,True,False,False,1871.7577152795975,None,1871.7577152795975,None,1871.7577152795975,None,1871.7577152795975,None,1871.7577152795975,None,1871.7577152795975,None,1871.7577152795975,None,1871.7577152795975,None,1872.7434849373813,None,1872.7434849373813,None,1873.7406703700221,None,1873.7406703700221,None,h,,,,,,,,,,,,,,,,,,,,,,,,,,,,,,,,,,,,,,,,,,,,,,,29_30Exp,001,2021_May_06_1245,ComputerHuman,2020.1.3,59.97850869177095,
Human.xlsx,h,Sychronize.jpg,Number7.jpg,7,Human,,,,,1,0,10,8,0,3,3,3,,,,,,,,,,,,,,,,,,,,,,,,,,,,,1874.7908940694238,None,1874.7908940694238,None,1875.2408787198624,None,1875.2408787198624,None,v,6.169548973119163,1875.2408787198624,None,t,5.7772350452451064,1875.2408787198624,None,6.169548973119163,5.7772350452451064,7.218221371923944,False,False,False,1881.4905918578997,None,1881.4905918578997,None,1881.4905918578997,None,1881.4905918578997,None,1881.4905918578997,None,1881.4905918578997,None,1881.4905918578997,None,1881.4905918578997,None,1882.4741420044506,None,1882.4741420044506,None,1883.4717832725391,None,1883.4717832725391,None,h,,,,,,,,,,,,,,,,,,,,,,,,,,,,,,,,,,,,,,,,,,,,,,,29_30Exp,001,2021_May_06_1245,ComputerHuman,2020.1.3,59.97850869177095,
Human.xlsx,h,Sychronize.jpg,Number9.jpg,9,Human,,,,,1,0,10,8,0,4,4,6,,,,,,,,,,,,,,,,,,,,,,,,,,,,,1884.5217862718787,None,1884.5217862718787,None,1884.9718177569239,None,1884.9718177569239,None,v,7.218070587450256,1884.9718177569239,None,t,6.77710993910523,1884.9718177569239,None,7.218070587450256,6.77710993910523,9.077817529563587,False,False,False,1892.2866207323968,None,1892.2866207323968,None,1892.2866207323968,None,1892.2866207323968,None,1892.2866207323968,None,1892.2866207323968,None,1892.2866207323968,None,1892.2866207323968,None,1893.271846980435,None,1893.271846980435,None,1894.2694831159638,None,1894.2694831159638,None,h,,,,,,,,,,,,,,,,,,,,,,,,,,,,,,,,,,,,,,,,,,,,,,,29_30Exp,001,2021_May_06_1245,ComputerHuman,2020.1.3,59.97850869177095,
Human.xlsx,h,Sychronize.jpg,Number9.jpg,9,Human,,,,,1,0,10,8,0,5,5,7,,,,,,,,,,,,,,,,,,,,,,,,,,,,,1895.3191634056202,None,1895.3191634056202,None,1895.7693129395357,None,1895.7693129395357,None,v,7.236007920822431,1895.7693129395357,None,t,6.69518306075679,1895.7693129395357,None,7.236007920822431,6.69518306075679,9.151587288708882,False,False,False,1903.0856492671828,None,1903.0856492671828,None,1903.0856492671828,None,1903.0856492671828,None,1903.0856492671828,None,1903.0856492671828,None,1903.0856492671828,None,1903.0856492671828,None,1904.0689421441843,None,1904.0689421441843,None,1905.08373097304,None,1905.08373097304,None,h,,,,,,,,,,,,,,,,,,,,,,,,,,,,,,,,,,,,,,,,,,,,,,,29_30Exp,001,2021_May_06_1245,ComputerHuman,2020.1.3,59.97850869177095,
Human.xlsx,h,Sychronize.jpg,Number8.jpg,8,Human,,,,,1,0,10,8,0,6,6,4,,,,,,,,,,,,,,,,,,,,,,,,,,,,,1906.133933179848,None,1906.133933179848,None,1906.5835373793084,None,1906.5835373793084,None,v,6.257282059490535,1906.5835373793084,None,t,6.440222522120621,1906.5835373793084,None,6.257282059490535,6.440222522120621,7.434536086401976,True,False,False,1913.1152092817206,None,1913.1152092817206,None,1913.1152092817206,None,1913.1152092817206,None,1913.1152092817206,None,1913.1152092817206,None,1913.1152092817206,None,1913.1152092817206,None,1914.1007903179393,None,1914.1007903179393,None,1915.0815002343334,None,1915.0815002343334,None,h,,,,,,,,,,,,,,,,,,,,,,,,,,,,,,,,,,,,,,,,,,,,,,,29_30Exp,001,2021_May_06_1245,ComputerHuman,2020.1.3,59.97850869177095,
Human.xlsx,h,Sychronize.jpg,Number8.jpg,8,Human,,,,,1,0,10,8,0,7,7,5,,,,,,,,,,,,,,,,,,,,,,,,,,,,,1916.1319382180973,None,1916.1319382180973,None,1916.5816129902514,None,1916.5816129902514,None,v,6.286645432840032,1916.5816129902514,None,t,5.958238287418681,1916.5816129902514,None,6.286645432840032,5.958238287418681,8.492374950582226,False,False,False,1922.9629804516844,None,1922.9629804516844,None,1922.9629804516844,None,1922.9629804516844,None,1922.9629804516844,None,1922.9629804516844,None,1922.9629804516844,None,1922.9629804516844,None,1923.9482073412923,None,1923.9482073412923,None,1924.9459817351449,None,1924.9459817351449,None,h,,,,,,,,,,,,,,,,,,,,,,,,,,,,,,,,,,,,,,,,,,,,,,,29_30Exp,001,2021_May_06_1245,ComputerHuman,2020.1.3,59.97850869177095,
Human.xlsx,h,Sychronize.jpg,Number7.jpg,7,Human,,,,,1,0,10,8,0,8,8,2,,,,,,,,,,,,,,,,,,,,,,,,,,,,,1925.9957422210446,None,1925.9957422210446,None,1926.4460290509287,None,1926.4460290509287,None,v,5.49374902361069,1926.4460290509287,None,t,5.369232807448952,1926.4460290509287,None,5.49374902361069,5.369232807448952,6.810720405049323,True,False,False,1932.0277867152035,None,1932.0277867152035,None,1932.0277867152035,None,1932.0277867152035,None,1932.0277867152035,None,1932.0277867152035,None,1932.0277867152035,None,1932.0277867152035,None,1933.0138097931163,None,1933.0138097931163,None,1933.9940308332102,None,1933.9940308332102,None,h,,,,,,,,,,,,,,,,,,,,,,,,,,,,,,,,,,,,,,,,,,,,,,,29_30Exp,001,2021_May_06_1245,ComputerHuman,2020.1.3,59.97850869177095,
Human.xlsx,h,Sychronize.jpg,Number6.jpg,6,Human,,,,,1,0,10,8,0,9,9,0,,,,,,,,,,,,,,,,,,,,,,,,,,,,,1935.0613895827646,None,1935.0613895827646,None,1935.4941403812786,None,1935.4941403812786,None,v,4.553168986637047,1935.4941403812786,None,t,5.664492920756857,1935.4941403812786,None,4.553168986637047,5.664492920756857,5.868315746256068,False,False,False,1941.2423270640188,None,1941.2423270640188,None,1941.2423270640188,None,1941.2423270640188,None,1941.2423270640188,None,1941.2423270640188,None,1941.2423270640188,None,1941.2423270640188,None,1942.2278821166547,None,1942.2278821166547,None,1943.2253350839637,None,1943.2253350839637,None,h,,,,,,,,,,,,,,,,,,,,,,,,,,,,,,,,,,,,,,,,,,,,,,,29_30Exp,001,2021_May_06_1245,ComputerHuman,2020.1.3,59.97850869177095,
Human.xlsx,h,,,,,,,,,1,0,10,8,,,,,,,,,,,,,,,,,,,,,,,,,,,,,,,,,,,,,,,,,,,,,,,,,,,,,,,,,,,,,,,,,,,,,,,,,,,,,,,h,1944.225733819686,None,1944.225733819686,None,a,0,2.5412287283475052,1944.225733819686,None,l,0,3.2964017870285716,1944.225733819686,None,c,c,1947.607760815025,None,1947.607760815025,None,1949.5905221513249,None,None,None,None,None,None,None,None,,,,,,,,,,,,,,,,,,29_30Exp,001,2021_May_06_1245,ComputerHuman,2020.1.3,59.97850869177095,
Human.xlsx,h,Sychronize.jpg,Number6.jpg,6,Human,,,,,1,1,11,2,0,0,0,1,,,,,,,,,,,,,,,,,,,,,,,,,1954.5929979697517,None,1954.5929979697517,None,1957.6722430857203,None,1957.6722430857203,None,1958.1223169143823,None,1958.1223169143823,None,v,5.123687628574771,1958.1223169143823,None,t,4.995265213788571,1958.1223169143823,None,5.123687628574771,4.995265213788571,5.879867196206433,True,False,False,1963.3044894177847,None,1963.3044894177847,None,1963.3044894177847,None,1963.3044894177847,None,1963.3044894177847,None,1963.3044894177847,None,1963.3044894177847,None,1963.3044894177847,None,1964.3226596410477,None,1964.3226596410477,None,1965.3037358938818,None,1965.3037358938818,None,h,,,,,,,,,,,,,,,,,,,,,,,,,,,,,,,,,,,,,,,,,,,,,,,29_30Exp,001,2021_May_06_1245,ComputerHuman,2020.1.3,59.97850869177095,
Human.xlsx,h,Sychronize.jpg,Number10.jpg,10,Human,,,,,1,1,11,2,0,1,1,9,,,,,,,,,,,,,,,,,,,,,,,,,,,,,1966.370185859606,None,1966.370185859606,None,1966.8039378280228,None,1966.8039378280228,None,v,8.59756498542174,1966.8039378280228,None,t,10.180994260194439,1966.8039378280228,None,8.59756498542174,10.180994260194439,9.486533219794085,False,False,False,1977.0525718454087,None,1977.0525718454087,None,1977.0525718454087,None,1977.0525718454087,None,1977.0525718454087,None,1977.0525718454087,None,1977.0525718454087,None,1977.0525718454087,None,1978.0533462203348,None,1978.0533462203348,None,1979.0507026313671,None,1979.0507026313671,None,h,,,,,,,,,,,,,,,,,,,,,,,,,,,,,,,,,,,,,,,,,,,,,,,29_30Exp,001,2021_May_06_1245,ComputerHuman,2020.1.3,59.97850869177095,
Human.xlsx,h,Sychronize.jpg,Number7.jpg,7,Human,,,,,1,1,11,2,0,2,2,2,,,,,,,,,,,,,,,,,,,,,,,,,,,,,1980.100479798085,None,1980.100479798085,None,1980.5340726571549,None,1980.5340726571549,None,v,6.302753971077436,1980.5340726571549,None,t,5.954230399957851,1980.5340726571549,None,6.302753971077436,5.954230399957851,7.132903543946806,False,False,False,1986.932266894381,None,1986.932266894381,None,1986.932266894381,None,1986.932266894381,None,1986.932266894381,None,1986.932266894381,None,1986.932266894381,None,1986.932266894381,None,1987.9018949730748,None,1987.9018949730748,None,1988.9151773956942,None,1988.9151773956942,None,h,,,,,,,,,,,,,,,,,,,,,,,,,,,,,,,,,,,,,,,,,,,,,,,29_30Exp,001,2021_May_06_1245,ComputerHuman,2020.1.3,59.97850869177095,
Human.xlsx,h,Sychronize.jpg,Number8.jpg,8,Human,,,,,1,1,11,2,0,3,3,5,,,,,,,,,,,,,,,,,,,,,,,,,,,,,1989.9648807818685,None,1989.9648807818685,None,1990.4152006526047,None,1990.4152006526047,None,v,7.089161862644687,1990.4152006526047,None,t,4.9643383344782706,1990.4152006526047,None,7.089161862644687,4.9643383344782706,7.4956460768169615,False,False,False,1997.581312093946,None,1997.581312093946,None,1997.581312093946,None,1997.581312093946,None,1997.581312093946,None,1997.581312093946,None,1997.581312093946,None,1997.581312093946,None,1998.5820412381913,None,1998.5820412381913,None,1999.5627681561887,None,1999.5627681561887,None,h,,,,,,,,,,,,,,,,,,,,,,,,,,,,,,,,,,,,,,,,,,,,,,,29_30Exp,001,2021_May_06_1245,ComputerHuman,2020.1.3,59.97850869177095,
Human.xlsx,h,Sychronize.jpg,Number6.jpg,6,Human,,,,,1,1,11,2,0,4,4,0,,,,,,,,,,,,,,,,,,,,,,,,,,,,,2000.6295527006405,None,2000.6295527006405,None,2001.0626505884961,None,2001.0626505884961,None,v,5.365231977257736,2001.0626505884961,None,t,5.784256386748439,2001.0626505884961,None,5.365231977257736,5.784256386748439,6.25768949867863,False,False,False,2006.944325843111,None,2006.944325843111,None,2006.944325843111,None,2006.944325843111,None,2006.944325843111,None,2006.944325843111,None,2006.944325843111,None,2006.944325843111,None,2007.9298366274206,None,2007.9298366274206,None,2008.927421116569,None,2008.927421116569,None,h,,,,,,,,,,,,,,,,,,,,,,,,,,,,,,,,,,,,,,,,,,,,,,,29_30Exp,001,2021_May_06_1245,ComputerHuman,2020.1.3,59.97850869177095,
Human.xlsx,h,Sychronize.jpg,Number9.jpg,9,Human,,,,,1,1,11,2,0,5,5,6,,,,,,,,,,,,,,,,,,,,,,,,,,,,,2009.977077668137,None,2009.977077668137,None,2010.4272089173087,None,2010.4272089173087,None,v,8.063974788867199,2010.4272089173087,None,t,7.663159096835898,2010.4272089173087,None,8.063974788867199,7.663159096835898,8.947407198912838,False,False,False,2018.5435310021035,None,2018.5435310021035,None,2018.5435310021035,None,2018.5435310021035,None,2018.5435310021035,None,2018.5435310021035,None,2018.5435310021035,None,2018.5435310021035,None,2019.5441805916748,None,2019.5441805916748,None,2020.5414895265308,None,2020.5414895265308,None,h,,,,,,,,,,,,,,,,,,,,,,,,,,,,,,,,,,,,,,,,,,,,,,,29_30Exp,001,2021_May_06_1245,ComputerHuman,2020.1.3,59.97850869177095,
Human.xlsx,h,Sychronize.jpg,Number8.jpg,8,Human,,,,,1,1,11,2,0,6,6,4,,,,,,,,,,,,,,,,,,,,,,,,,,,,,2021.6082939596508,None,2021.6082939596508,None,2022.0584104527143,None,2022.0584104527143,None,v,7.228190711799471,2022.0584104527143,None,t,7.327190408016122,2022.0584104527143,None,7.228190711799471,7.327190408016122,7.71804395107086,True,False,False,2029.4728460331567,None,2029.4728460331567,None,2029.4728460331567,None,2029.4728460331567,None,2029.4728460331567,None,2029.4728460331567,None,2029.4728460331567,None,2029.4728460331567,None,2030.4582519207802,None,2030.4582519207802,None,2031.4391527042335,None,2031.4391527042335,None,h,,,,,,,,,,,,,,,,,,,,,,,,,,,,,,,,,,,,,,,,,,,,,,,29_30Exp,001,2021_May_06_1245,ComputerHuman,2020.1.3,59.97850869177095,
Human.xlsx,h,Sychronize.jpg,Number9.jpg,9,Human,,,,,1,1,11,2,0,7,7,7,,,,,,,,,,,,,,,,,,,,,,,,,,,,,2032.5058775826797,None,2032.5058775826797,None,2032.9388452318358,None,2032.9388452318358,None,v,7.943144392053,2032.9388452318358,None,t,7.466132966012992,2032.9388452318358,None,7.943144392053,7.466132966012992,9.434924657687844,False,False,False,2040.97034246683,None,2040.97034246683,None,2040.97034246683,None,2040.97034246683,None,2040.97034246683,None,2040.97034246683,None,2040.97034246683,None,2040.97034246683,None,2041.9559616764604,None,2041.9559616764604,None,2042.9532109453116,None,2042.9532109453116,None,h,,,,,,,,,,,,,,,,,,,,,,,,,,,,,,,,,,,,,,,,,,,,,,,29_30Exp,001,2021_May_06_1245,ComputerHuman,2020.1.3,59.97850869177095,
Human.xlsx,h,Sychronize.jpg,Number10.jpg,10,Human,,,,,1,1,11,2,0,8,8,8,,,,,,,,,,,,,,,,,,,,,,,,,,,,,2044.020084988771,None,2044.020084988771,None,2044.453234843792,None,2044.453234843792,None,v,8.76414509360984,2044.453234843792,None,t,9.59499068600826,2044.453234843792,None,8.76414509360984,9.59499068600826,9.66507398472817,False,False,False,2054.1006963279424,None,2054.1006963279424,None,2054.1006963279424,None,2054.1006963279424,None,2054.1006963279424,None,2054.1006963279424,None,2054.1006963279424,None,2054.1006963279424,None,2055.1192947991453,None,2055.1192947991453,None,2056.1169023848115,None,2056.1169023848115,None,h,,,,,,,,,,,,,,,,,,,,,,,,,,,,,,,,,,,,,,,,,,,,,,,29_30Exp,001,2021_May_06_1245,ComputerHuman,2020.1.3,59.97850869177095,
Human.xlsx,h,Sychronize.jpg,Number7.jpg,7,Human,,,,,1,1,11,2,0,9,9,3,,,,,,,,,,,,,,,,,,,,,,,,,,,,,2057.167725952114,None,2057.167725952114,None,2057.616787383399,None,2057.616787383399,None,v,6.112027415567354,2057.616787383399,None,t,5.531275732969789,2057.616787383399,None,6.112027415567354,5.531275732969789,7.15298987077736,False,False,False,2063.7999392433258,None,2063.7999392433258,None,2063.7999392433258,None,2063.7999392433258,None,2063.7999392433258,None,2063.7999392433258,None,2063.7999392433258,None,2063.7999392433258,None,2064.8004823322863,None,2064.8004823322863,None,2065.781460745703,None,2065.781460745703,None,h,,,,,,,,,,,,,,,,,,,,,,,,,,,,,,,,,,,,,,,,,,,,,,,29_30Exp,001,2021_May_06_1245,ComputerHuman,2020.1.3,59.97850869177095,
Human.xlsx,h,,,,,,,,,1,1,11,2,,,,,,,,,,,,,,,,,,,,,,,,,,,,,,,,,,,,,,,,,,,,,,,,,,,,,,,,,,,,,,,,,,,,,,,,,,,,,,,h,2066.781839592757,None,2066.781839592757,None,a,0,1.8707230140439606,2066.781839592757,None,l,0,3.0054860646196175,2066.781839592757,None,c,c,2069.8810850102636,None,2069.8810850102636,None,2071.8800835195757,None,None,None,None,None,None,None,None,,,,,,,,,,,,,,,,,,29_30Exp,001,2021_May_06_1245,ComputerHuman,2020.1.3,59.97850869177095,
