Condition,CorrectTuringReply,Sychronize,NumberImage,Number,Partner,trials.thisRepN,trials.thisTrialN,trials.thisN,trials.thisIndex,Block.thisRepN,Block.thisTrialN,Block.thisN,Block.thisIndex,trials_loop.thisRepN,trials_loop.thisTrialN,trials_loop.thisN,trials_loop.thisIndex,key_resp_Istr.keys,key_resp_Istr.rt,key_resp_Istr.started,key_resp_Istr.stopped,key_respPrLeft.keys,key_respPrLeft.rt,key_respPrRight.keys,RTPrLeft,RTPrRight,CompPr,SychronizedRTsPr,SychronizedRTsLeftCPr,SychronizedRTsRightCPr,CreditLeftPr.started,CreditLeftPr.stopped,CreditRightPr.started,CreditRightPr.stopped,key_respPrRight.rt,text_StartExp.started,text_StartExp.stopped,key_startExp.keys,key_startExp.rt,key_startExp.started,key_startExp.stopped,SychroLeft.started,SychroLeft.stopped,SychroRight.started,SychroRight.stopped,NumberLeft.started,NumberLeft.stopped,NumberRight.started,NumberRight.stopped,CrossLeft.started,CrossLeft.stopped,CrossRight.started,CrossRight.stopped,key_respLeft.keys,key_respLeft.rt,key_respLeft.started,key_respLeft.stopped,key_respRight.keys,key_respRight.rt,key_respRight.started,key_respRight.stopped,RTLeft,RTRight,Comp,SychronizedRTs,SychronizedRTsLeftC,SychronizedRTsRightC,FeedbackLeftLeft.started,FeedbackLeftLeft.stopped,FeedbackLeftRight.started,FeedbackLeftRight.stopped,FeedbackRightLeft.started,FeedbackRightLeft.stopped,FeedbackRightRight.started,FeedbackRightRight.stopped,textLeftLeft.started,textLeftLeft.stopped,textLeftRight.started,textLeftRight.stopped,textRightLeft.started,textRightLeft.stopped,textRightRight.started,textRightRight.stopped,CreditLeft.started,CreditLeft.stopped,CreditRight.started,CreditRight.stopped,BlankLeft.started,BlankLeft.stopped,BlankRight.started,BlankRight.stopped,CorrectTuringReply,TuringtextLeft.started,TuringtextLeft.stopped,TuringtextRight.started,TuringtextRight.stopped,keyTuringLeft.keys,keyTuringLeft.corr,keyTuringLeft.rt,keyTuringLeft.started,keyTuringLeft.stopped,keyTuringRight.keys,keyTuringRight.corr,keyTuringRight.rt,keyTuringRight.started,keyTuringRight.stopped,RespTuringLeft,RespTuringRight,ScoreLeft.started,ScoreLeft.stopped,ScoreRight.started,ScoreRight.stopped,BlockText.started,BlockText.stopped,text_Pause.started,text_Pause.stopped,text_LongPause.started,text_LongPause.stopped,key_respPause.keys,key_respPause.started,key_respPause.stopped,key_respPause.rt,QuestImageLeft.started,QuestImageLeft.stopped,QuestImageRight.started,QuestImageRight.stopped,respQuestLeft.keys,respQuestLeft.rt,respQuestLeft.started,respQuestLeft.stopped,respQuestRight.keys,respQuestRight.rt,respQuestRight.started,respQuestRight.stopped,RespInclusionLeft,RespInclusionRight,EndText.started,EndText.stopped,participant,session,date,expName,psychopyVersion,frameRate,
,,,,,,,,,,,,,,,,,,"['v', 'v', 'v', 'v', 'v', 't']","[56.90039594489281, 106.3577548003068, 246.55832400116378, 261.88172497628693, 262.6735079408718, 263.13743583097676]",16.081661589176292,None,,,,,,,,,,,,,,,,,,,,,,,,,,,,,,,,,,,,,,,,,,,,,,,,,,,,,,,,,,,,,,,,,,,,,,,,,,,,,,,,,,,,,,,,,,,,,,,,,,,,,,,,,,,,,,,,,,,,,,31_32Exp,001,2021_May_06_1635,ComputerHuman,2020.1.3,60.01649929905279,
,,,,,,,,,,,,,,,,,,,,,,v,4.531811443875995,t,4.531811443875995,6.05500339550963,6,False,False,False,359.72161349709313,None,359.72161349709313,None,6.05500339550963,360.72146561521913,None,"['space', 'space']","[28.560557626935406, 32.868434534042535]",361.70451950741517,None,,,,,,,,,,,,,,,,,,,,,,,,,,,,,,,,,,,,,,,,,,,,,,,,,,,,,,,,,,,,,,,,,,,,,,,,,,,,,,,,,,,,,,,,,,,,,,,,,,31_32Exp,001,2021_May_06_1635,ComputerHuman,2020.1.3,60.01649929905279,
Computer.xlsx,c,Sychronize.jpg,Number7.jpg,7,Computer,,,,,0,0,0,3,0,0,0,2,,,,,,,,,,,,,,,,,,,,,,,,,394.6352354064493,None,394.6352354064493,None,397.66407878735663,None,397.66407878735663,None,398.1306207542111,None,398.1306207542111,None,v,4.693815233629721,398.1306207542111,None,t,2.6972874101847992,398.1306207542111,None,4.693815233629721,2.6972874101847992,6.553789760233082,False,False,False,402.89593703375976,None,402.89593703375976,None,402.89593703375976,None,402.89593703375976,None,402.89593703375976,None,402.89593703375976,None,402.89593703375976,None,402.89593703375976,None,403.9118960861997,None,403.9118960861997,None,404.8949958506473,None,404.8949958506473,None,c,,,,,,,,,,,,,,,,,,,,,,,,,,,,,,,,,,,,,,,,,,,,,,,31_32Exp,001,2021_May_06_1635,ComputerHuman,2020.1.3,60.01649929905279,
Computer.xlsx,c,Sychronize.jpg,Number10.jpg,10,Computer,,,,,0,0,0,3,0,1,1,9,,,,,,,,,,,,,,,,,,,,,,,,,,,,,405.92886657366034,None,405.92886657366034,None,406.3782901711802,None,406.3782901711802,None,v,5.5337271717380645,406.3782901711802,None,t,5.021706236027967,406.3782901711802,None,5.5337271717380645,5.021706236027967,10.414480513706389,False,False,False,411.977652835596,None,411.977652835596,None,411.977652835596,None,411.977652835596,None,411.977652835596,None,411.977652835596,None,411.977652835596,None,411.977652835596,None,412.9932240590024,None,412.9932240590024,None,413.97629014102677,None,413.97629014102677,None,c,,,,,,,,,,,,,,,,,,,,,,,,,,,,,,,,,,,,,,,,,,,,,,,31_32Exp,001,2021_May_06_1635,ComputerHuman,2020.1.3,60.01649929905279,
Computer.xlsx,c,Sychronize.jpg,Number7.jpg,7,Computer,,,,,0,0,0,3,0,2,2,3,,,,,,,,,,,,,,,,,,,,,,,,,,,,,415.0105188600719,None,415.0105188600719,None,415.4765735545516,None,415.4765735545516,None,v,3.4871530429827544,415.4765735545516,None,t,3.8422530268471746,415.4765735545516,None,3.4871530429827544,3.8422530268471746,6.526495520750083,False,False,False,419.3923713483855,None,419.3923713483855,None,419.3923713483855,None,419.3923713483855,None,419.3923713483855,None,419.3923713483855,None,419.3923713483855,None,419.3923713483855,None,420.40821684294315,None,420.40821684294315,None,421.3912931900886,None,421.3912931900886,None,c,,,,,,,,,,,,,,,,,,,,,,,,,,,,,,,,,,,,,,,,,,,,,,,31_32Exp,001,2021_May_06_1635,ComputerHuman,2020.1.3,60.01649929905279,
Computer.xlsx,c,Sychronize.jpg,Number6.jpg,6,Computer,,,,,0,0,0,3,0,3,3,1,,,,,,,,,,,,,,,,,,,,,,,,,,,,,422.4086729991759,None,422.4086729991759,None,422.8743976059177,None,422.8743976059177,None,v,3.700835933563212,422.8743976059177,None,t,2.7602895790114417,422.8743976059177,None,3.700835933563212,2.7602895790114417,6.087118359773088,False,False,False,426.64072307499373,None,426.64072307499373,None,426.64072307499373,None,426.64072307499373,None,426.64072307499373,None,426.64072307499373,None,426.64072307499373,None,426.64072307499373,None,427.656717734566,None,427.656717734566,None,428.63972222587654,None,428.63972222587654,None,c,,,,,,,,,,,,,,,,,,,,,,,,,,,,,,,,,,,,,,,,,,,,,,,31_32Exp,001,2021_May_06_1635,ComputerHuman,2020.1.3,60.01649929905279,
Computer.xlsx,c,Sychronize.jpg,Number9.jpg,9,Computer,,,,,0,0,0,3,0,4,4,7,,,,,,,,,,,,,,,,,,,,,,,,,,,,,429.6741604175095,None,429.6741604175095,None,430.1397958460275,None,430.1397958460275,None,v,5.203011978432187,430.1397958460275,None,t,6.914028023133142,430.1397958460275,None,5.203011978432187,6.914028023133142,8.855518185535626,False,False,False,437.1053865250433,None,437.1053865250433,None,437.1053865250433,None,437.1053865250433,None,437.1053865250433,None,437.1053865250433,None,437.1053865250433,None,437.1053865250433,None,438.1375827504944,None,438.1375827504944,None,439.1040366618745,None,439.1040366618745,None,c,,,,,,,,,,,,,,,,,,,,,,,,,,,,,,,,,,,,,,,,,,,,,,,31_32Exp,001,2021_May_06_1635,ComputerHuman,2020.1.3,60.01649929905279,
Computer.xlsx,c,Sychronize.jpg,Number9.jpg,9,Computer,,,,,0,0,0,3,0,5,5,6,,,,,,,,,,,,,,,,,,,,,,,,,,,,,440.1379442751604,None,440.1379442751604,None,440.6038818831239,None,440.6038818831239,None,v,4.798267953612594,440.6038818831239,None,t,6.545995593056432,440.6038818831239,None,4.798267953612594,6.545995593056432,9.375320673204865,False,False,False,447.2030344333798,None,447.2030344333798,None,447.2030344333798,None,447.2030344333798,None,447.2030344333798,None,447.2030344333798,None,447.2030344333798,None,447.2030344333798,None,448.2187230640866,None,448.2187230640866,None,449.20179235396245,None,449.20179235396245,None,c,,,,,,,,,,,,,,,,,,,,,,,,,,,,,,,,,,,,,,,,,,,,,,,31_32Exp,001,2021_May_06_1635,ComputerHuman,2020.1.3,60.01649929905279,
Computer.xlsx,c,Sychronize.jpg,Number8.jpg,8,Computer,,,,,0,0,0,3,0,6,6,5,,,,,,,,,,,,,,,,,,,,,,,,,,,,,450.23593221556985,None,450.23593221556985,None,450.718288881626,None,450.718288881626,None,v,4.2033779940866225,450.718288881626,None,t,5.419107492798503,450.718288881626,None,4.2033779940866225,5.419107492798503,8.571350622460624,False,False,False,456.20142056417717,None,456.20142056417717,None,456.20142056417717,None,456.20142056417717,None,456.20142056417717,None,456.20142056417717,None,456.20142056417717,None,456.20142056417717,None,457.216687683429,None,457.216687683429,None,458.19981375224415,None,458.19981375224415,None,c,,,,,,,,,,,,,,,,,,,,,,,,,,,,,,,,,,,,,,,,,,,,,,,31_32Exp,001,2021_May_06_1635,ComputerHuman,2020.1.3,60.01649929905279,
Computer.xlsx,c,Sychronize.jpg,Number6.jpg,6,Computer,,,,,0,0,0,3,0,7,7,0,,,,,,,,,,,,,,,,,,,,,,,,,,,,,459.23394527344317,None,459.23394527344317,None,459.69946329466075,None,459.69946329466075,None,v,3.937865875310308,459.69946329466075,None,t,5.941129541633927,459.69946329466075,None,3.937865875310308,5.941129541633927,5.894523538377561,False,False,True,465.69902349846234,None,465.69902349846234,None,465.69902349846234,None,465.69902349846234,None,465.69902349846234,None,465.69902349846234,None,465.69902349846234,None,465.69902349846234,None,466.731230630603,None,466.731230630603,None,467.7144356125227,None,467.7144356125227,None,c,,,,,,,,,,,,,,,,,,,,,,,,,,,,,,,,,,,,,,,,,,,,,,,31_32Exp,001,2021_May_06_1635,ComputerHuman,2020.1.3,60.01649929905279,
Computer.xlsx,c,Sychronize.jpg,Number8.jpg,8,Computer,,,,,0,0,0,3,0,8,8,4,,,,,,,,,,,,,,,,,,,,,,,,,,,,,468.7319296210608,None,468.7319296210608,None,469.21406751176437,None,469.21406751176437,None,v,4.246632960721399,469.21406751176437,None,t,7.025981016588048,469.21406751176437,None,4.246632960721399,7.025981016588048,8.351067060206674,False,False,False,476.2964534334096,None,476.2964534334096,None,476.2964534334096,None,476.2964534334096,None,476.2964534334096,None,476.2964534334096,None,476.2964534334096,None,476.2964534334096,None,477.31223027998567,None,477.31223027998567,None,478.2953441589707,None,478.2953441589707,None,c,,,,,,,,,,,,,,,,,,,,,,,,,,,,,,,,,,,,,,,,,,,,,,,31_32Exp,001,2021_May_06_1635,ComputerHuman,2020.1.3,60.01649929905279,
Computer.xlsx,c,Sychronize.jpg,Number10.jpg,10,Computer,,,,,0,0,0,3,0,9,9,8,,,,,,,,,,,,,,,,,,,,,,,,,,,,,479.32925562167657,None,479.32925562167657,None,479.7951390169801,None,479.7951390169801,None,v,5.612961381017158,479.7951390169801,None,t,9.283939611588721,479.7951390169801,None,5.612961381017158,9.283939611588721,10.477224832400161,False,False,False,489.14339922363615,None,489.14339922363615,None,489.14339922363615,None,489.14339922363615,None,489.14339922363615,None,489.14339922363615,None,489.14339922363615,None,489.14339922363615,None,490.1594628519779,None,490.1594628519779,None,491.14254689796144,None,491.14254689796144,None,c,,,,,,,,,,,,,,,,,,,,,,,,,,,,,,,,,,,,,,,,,,,,,,,31_32Exp,001,2021_May_06_1635,ComputerHuman,2020.1.3,60.01649929905279,
Computer.xlsx,c,,,,,,,,,0,0,0,3,,,,,,,,,,,,,,,,,,,,,,,,,,,,,,,,,,,,,,,,,,,,,,,,,,,,,,,,,,,,,,,,,,,,,,,,,,,,,,,c,492.14313521760414,None,492.14313521760414,None,q,0,13.899859913200999,492.14313521760414,None,o,0,8.539849994531323,492.14313521760414,None,h,h,506.1398070735013,None,506.1398070735013,None,508.1221080833657,None,None,None,None,None,None,None,None,,,,,,,,,,,,,,,,,,31_32Exp,001,2021_May_06_1635,ComputerHuman,2020.1.3,60.01649929905279,
Computer.xlsx,c,Sychronize.jpg,Number9.jpg,9,Computer,,,,,0,1,1,7,0,0,0,7,,,,,,,,,,,,,,,,,,,,,,,,,513.1249101401099,None,513.1249101401099,None,516.1879007606785,None,516.1879007606785,None,516.6535852692978,None,516.6535852692978,None,v,5.752544867393226,516.6535852692978,None,t,7.459973573733805,516.6535852692978,None,5.752544867393226,7.459973573733805,9.335897781899558,False,False,False,524.1694052614512,None,524.1694052614512,None,524.1694052614512,None,524.1694052614512,None,524.1694052614512,None,524.1694052614512,None,524.1694052614512,None,524.1694052614512,None,525.1849514636306,None,525.1849514636306,None,526.1680374343232,None,526.1680374343232,None,c,,,,,,,,,,,,,,,,,,,,,,,,,,,,,,,,,,,,,,,,,,,,,,,31_32Exp,001,2021_May_06_1635,ComputerHuman,2020.1.3,60.01649929905279,
Computer.xlsx,c,Sychronize.jpg,Number8.jpg,8,Computer,,,,,0,1,1,7,0,1,1,4,,,,,,,,,,,,,,,,,,,,,,,,,,,,,527.2022029587279,None,527.2022029587279,None,527.6677684561237,None,527.6677684561237,None,v,4.461811030061654,527.6677684561237,None,t,6.860992001867999,527.6677684561237,None,4.461811030061654,6.860992001867999,7.414661345872794,False,False,False,534.6002906953436,None,534.6002906953436,None,534.6002906953436,None,534.6002906953436,None,534.6002906953436,None,534.6002906953436,None,534.6002906953436,None,534.6002906953436,None,535.6161551162168,None,535.6161551162168,None,536.5990954505323,None,536.5990954505323,None,c,,,,,,,,,,,,,,,,,,,,,,,,,,,,,,,,,,,,,,,,,,,,,,,31_32Exp,001,2021_May_06_1635,ComputerHuman,2020.1.3,60.01649929905279,
Computer.xlsx,c,Sychronize.jpg,Number6.jpg,6,Computer,,,,,0,1,1,7,0,2,2,1,,,,,,,,,,,,,,,,,,,,,,,,,,,,,537.6331583237443,None,537.6331583237443,None,538.099073476762,None,538.099073476762,None,v,3.4820984341531585,538.099073476762,None,t,4.6172140274138656,538.099073476762,None,3.4820984341531585,4.6172140274138656,6.037190003084929,False,False,False,542.781849216306,None,542.781849216306,None,542.781849216306,None,542.781849216306,None,542.781849216306,None,542.781849216306,None,542.781849216306,None,542.781849216306,None,543.7975718502203,None,543.7975718502203,None,544.7806802758623,None,544.7806802758623,None,c,,,,,,,,,,,,,,,,,,,,,,,,,,,,,,,,,,,,,,,,,,,,,,,31_32Exp,001,2021_May_06_1635,ComputerHuman,2020.1.3,60.01649929905279,
Computer.xlsx,c,Sychronize.jpg,Number7.jpg,7,Computer,,,,,0,1,1,7,0,3,3,2,,,,,,,,,,,,,,,,,,,,,,,,,,,,,545.8145304686386,None,545.8145304686386,None,546.2813945036069,None,546.2813945036069,None,v,4.1792488691535254,546.2813945036069,None,t,6.4140926613054035,546.2813945036069,None,4.1792488691535254,6.4140926613054035,6.916583713868643,False,False,False,552.7635971928757,None,552.7635971928757,None,552.7635971928757,None,552.7635971928757,None,552.7635971928757,None,552.7635971928757,None,552.7635971928757,None,552.7635971928757,None,553.7786272520316,None,553.7786272520316,None,554.7617879656245,None,554.7617879656245,None,c,,,,,,,,,,,,,,,,,,,,,,,,,,,,,,,,,,,,,,,,,,,,,,,31_32Exp,001,2021_May_06_1635,ComputerHuman,2020.1.3,60.01649929905279,
Computer.xlsx,c,Sychronize.jpg,Number10.jpg,10,Computer,,,,,0,1,1,7,0,4,4,8,,,,,,,,,,,,,,,,,,,,,,,,,,,,,555.7795495088303,None,555.7795495088303,None,556.2452391500101,None,556.2452391500101,None,v,6.114833000947328,556.2452391500101,None,t,8.170587033293486,556.2452391500101,None,6.114833000947328,8.170587033293486,10.58330080761302,False,False,False,564.47714166474,None,564.47714166474,None,564.47714166474,None,564.47714166474,None,564.47714166474,None,564.47714166474,None,564.47714166474,None,564.47714166474,None,565.4926503350762,None,565.4926503350762,None,566.4757831403767,None,566.4757831403767,None,c,,,,,,,,,,,,,,,,,,,,,,,,,,,,,,,,,,,,,,,,,,,,,,,31_32Exp,001,2021_May_06_1635,ComputerHuman,2020.1.3,60.01649929905279,
Computer.xlsx,c,Sychronize.jpg,Number10.jpg,10,Computer,,,,,0,1,1,7,0,5,5,9,,,,,,,,,,,,,,,,,,,,,,,,,,,,,567.5095502498443,None,567.5095502498443,None,567.9924878574875,None,567.9924878574875,None,v,10.218743273539076,567.9924878574875,None,t,9.561853277444243,567.9924878574875,None,10.218743273539076,9.561853277444243,9.833900224688827,False,False,True,578.274083493272,None,578.274083493272,None,578.274083493272,None,578.274083493272,None,578.274083493272,None,578.274083493272,None,578.274083493272,None,578.274083493272,None,579.2897294595768,None,579.2897294595768,None,580.2727669917404,None,580.2727669917404,None,c,,,,,,,,,,,,,,,,,,,,,,,,,,,,,,,,,,,,,,,,,,,,,,,31_32Exp,001,2021_May_06_1635,ComputerHuman,2020.1.3,60.01649929905279,
Computer.xlsx,c,Sychronize.jpg,Number7.jpg,7,Computer,,,,,0,1,1,7,0,6,6,3,,,,,,,,,,,,,,,,,,,,,,,,,,,,,581.3067878421225,None,581.3067878421225,None,581.7725589626843,None,581.7725589626843,None,v,7.558027595849126,581.7725589626843,None,t,6.640994459081412,581.7725589626843,None,7.558027595849126,6.640994459081412,6.6385734301417205,False,False,True,589.3882005021569,None,589.3882005021569,None,589.3882005021569,None,589.3882005021569,None,589.3882005021569,None,589.3882005021569,None,589.3882005021569,None,589.3882005021569,None,590.4038246550845,None,590.4038246550845,None,591.3868573754735,None,591.3868573754735,None,c,,,,,,,,,,,,,,,,,,,,,,,,,,,,,,,,,,,,,,,,,,,,,,,31_32Exp,001,2021_May_06_1635,ComputerHuman,2020.1.3,60.01649929905279,
Computer.xlsx,c,Sychronize.jpg,Number8.jpg,8,Computer,,,,,0,1,1,7,0,7,7,5,,,,,,,,,,,,,,,,,,,,,,,,,,,,,592.420221899798,None,592.420221899798,None,592.8871465631255,None,592.8871465631255,None,v,7.510851995266421,592.8871465631255,None,t,7.634046898121596,592.8871465631255,None,7.510851995266421,7.634046898121596,7.798378336749011,False,True,True,600.6025692310122,None,600.6025692310122,None,600.6025692310122,None,600.6025692310122,None,600.6025692310122,None,600.6025692310122,None,600.6025692310122,None,600.6025692310122,None,601.6180015545251,None,601.6180015545251,None,602.6011487951491,None,602.6011487951491,None,c,,,,,,,,,,,,,,,,,,,,,,,,,,,,,,,,,,,,,,,,,,,,,,,31_32Exp,001,2021_May_06_1635,ComputerHuman,2020.1.3,60.01649929905279,
Computer.xlsx,c,Sychronize.jpg,Number9.jpg,9,Computer,,,,,0,1,1,7,0,8,8,6,,,,,,,,,,,,,,,,,,,,,,,,,,,,,603.6184487287774,None,603.6184487287774,None,604.1009981866027,None,604.1009981866027,None,v,9.492229465189666,604.1009981866027,None,t,8.112009451608174,604.1009981866027,None,9.492229465189666,8.112009451608174,8.830185195793225,False,False,False,613.6499963270126,None,613.6499963270126,None,613.6499963270126,None,613.6499963270126,None,613.6499963270126,None,613.6499963270126,None,613.6499963270126,None,613.6499963270126,None,614.665138340124,None,614.665138340124,None,615.6482345759377,None,615.6482345759377,None,c,,,,,,,,,,,,,,,,,,,,,,,,,,,,,,,,,,,,,,,,,,,,,,,31_32Exp,001,2021_May_06_1635,ComputerHuman,2020.1.3,60.01649929905279,
Computer.xlsx,c,Sychronize.jpg,Number6.jpg,6,Computer,,,,,0,1,1,7,0,9,9,0,,,,,,,,,,,,,,,,,,,,,,,,,,,,,616.6984739938016,None,616.6984739938016,None,617.1650300751953,None,617.1650300751953,None,v,5.691790438875614,617.1650300751953,None,t,5.911121711271335,617.1650300751953,None,5.691790438875614,5.911121711271335,6.294961257760746,False,False,False,623.1304231506674,None,623.1304231506674,None,623.1304231506674,None,623.1304231506674,None,623.1304231506674,None,623.1304231506674,None,623.1304231506674,None,623.1304231506674,None,624.1463241410274,None,624.1463241410274,None,625.1294649659503,None,625.1294649659503,None,c,,,,,,,,,,,,,,,,,,,,,,,,,,,,,,,,,,,,,,,,,,,,,,,31_32Exp,001,2021_May_06_1635,ComputerHuman,2020.1.3,60.01649929905279,
Computer.xlsx,c,,,,,,,,,0,1,1,7,,,,,,,,,,,,,,,,,,,,,,,,,,,,,,,,,,,,,,,,,,,,,,,,,,,,,,,,,,,,,,,,,,,,,,,,,,,,,,,c,626.1299259339576,None,626.1299259339576,None,q,0,7.55460642410435,626.1299259339576,None,o,0,8.125942426153415,626.1299259339576,None,h,h,634.3442850392639,None,634.3442850392639,None,636.3435818786002,None,None,None,None,None,None,None,None,,,,,,,,,,,,,,,,,,31_32Exp,001,2021_May_06_1635,ComputerHuman,2020.1.3,60.01649929905279,
Human.xlsx,h,Sychronize.jpg,Number6.jpg,6,Human,,,,,0,2,2,2,0,0,0,1,,,,,,,,,,,,,,,,,,,,,,,,,641.328465849072,None,641.328465849072,None,644.376325684003,None,644.376325684003,None,644.8417779443007,None,644.8417779443007,None,v,5.461519436523304,644.8417779443007,None,t,6.496986064779776,644.8417779443007,None,5.461519436523304,6.496986064779776,5.86589617822608,False,False,False,651.4080057664305,None,651.4080057664305,None,651.4080057664305,None,651.4080057664305,None,651.4080057664305,None,651.4080057664305,None,651.4080057664305,None,651.4080057664305,None,652.4090800753074,None,652.4090800753074,None,653.4065388167473,None,653.4065388167473,None,h,,,,,,,,,,,,,,,,,,,,,,,,,,,,,,,,,,,,,,,,,,,,,,,31_32Exp,001,2021_May_06_1635,ComputerHuman,2020.1.3,60.01649929905279,
Human.xlsx,h,Sychronize.jpg,Number8.jpg,8,Human,,,,,0,2,2,2,0,1,1,4,,,,,,,,,,,,,,,,,,,,,,,,,,,,,654.4237325705508,None,654.4237325705508,None,654.9062332690592,None,654.9062332690592,None,v,7.8725303165865625,654.9062332690592,None,t,7.036090234245421,654.9062332690592,None,7.8725303165865625,7.036090234245421,8.31537992163679,False,False,False,662.8383044846069,None,662.8383044846069,None,662.8383044846069,None,662.8383044846069,None,662.8383044846069,None,662.8383044846069,None,662.8383044846069,None,662.8383044846069,None,663.8395651695537,None,663.8395651695537,None,664.8373642638489,None,664.8373642638489,None,h,,,,,,,,,,,,,,,,,,,,,,,,,,,,,,,,,,,,,,,,,,,,,,,31_32Exp,001,2021_May_06_1635,ComputerHuman,2020.1.3,60.01649929905279,
Human.xlsx,h,Sychronize.jpg,Number9.jpg,9,Human,,,,,0,2,2,2,0,2,2,7,,,,,,,,,,,,,,,,,,,,,,,,,,,,,665.8723750566587,None,665.8723750566587,None,666.3370388274925,None,666.3370388274925,None,v,5.785139186997185,666.3370388274925,None,t,7.264033620831469,666.3370388274925,None,5.785139186997185,7.264033620831469,9.093976089329482,False,False,False,673.6529279808874,None,673.6529279808874,None,673.6529279808874,None,673.6529279808874,None,673.6529279808874,None,673.6529279808874,None,673.6529279808874,None,673.6529279808874,None,674.6539483978886,None,674.6539483978886,None,675.651481561441,None,675.651481561441,None,h,,,,,,,,,,,,,,,,,,,,,,,,,,,,,,,,,,,,,,,,,,,,,,,31_32Exp,001,2021_May_06_1635,ComputerHuman,2020.1.3,60.01649929905279,
Human.xlsx,h,Sychronize.jpg,Number7.jpg,7,Human,,,,,0,2,2,2,0,3,3,2,,,,,,,,,,,,,,,,,,,,,,,,,,,,,676.6854664839047,None,676.6854664839047,None,677.1517566345556,None,677.1517566345556,None,v,7.429762686484537,677.1517566345556,None,t,5.041174676078299,677.1517566345556,None,7.429762686484537,5.041174676078299,6.645326024100511,False,False,False,684.6500207066711,None,684.6500207066711,None,684.6500207066711,None,684.6500207066711,None,684.6500207066711,None,684.6500207066711,None,684.6500207066711,None,684.6500207066711,None,685.6511787404252,None,685.6511787404252,None,686.6491654939309,None,686.6491654939309,None,h,,,,,,,,,,,,,,,,,,,,,,,,,,,,,,,,,,,,,,,,,,,,,,,31_32Exp,001,2021_May_06_1635,ComputerHuman,2020.1.3,60.01649929905279,
Human.xlsx,h,Sychronize.jpg,Number10.jpg,10,Human,,,,,0,2,2,2,0,4,4,8,,,,,,,,,,,,,,,,,,,,,,,,,,,,,687.6670470107183,None,687.6670470107183,None,688.149200619886,None,688.149200619886,None,v,7.051812547375448,688.149200619886,None,t,8.982867836912192,688.149200619886,None,7.051812547375448,8.982867836912192,9.928402359176596,False,False,False,697.1973263855598,None,697.1973263855598,None,697.1973263855598,None,697.1973263855598,None,697.1973263855598,None,697.1973263855598,None,697.1973263855598,None,697.1973263855598,None,698.1990140353064,None,698.1990140353064,None,699.1962710029966,None,699.1962710029966,None,h,,,,,,,,,,,,,,,,,,,,,,,,,,,,,,,,,,,,,,,,,,,,,,,31_32Exp,001,2021_May_06_1635,ComputerHuman,2020.1.3,60.01649929905279,
Human.xlsx,h,Sychronize.jpg,Number6.jpg,6,Human,,,,,0,2,2,2,0,5,5,0,,,,,,,,,,,,,,,,,,,,,,,,,,,,,700.2461982970817,None,700.2461982970817,None,700.7127546992597,None,700.7127546992597,None,v,6.871805021761247,700.7127546992597,None,t,5.663117715575936,700.7127546992597,None,6.871805021761247,5.663117715575936,6.091185037450988,False,False,False,707.6452977895042,None,707.6452977895042,None,707.6452977895042,None,707.6452977895042,None,707.6452977895042,None,707.6452977895042,None,707.6452977895042,None,707.6452977895042,None,708.6467163006564,None,708.6467163006564,None,709.6439893075967,None,709.6439893075967,None,h,,,,,,,,,,,,,,,,,,,,,,,,,,,,,,,,,,,,,,,,,,,,,,,31_32Exp,001,2021_May_06_1635,ComputerHuman,2020.1.3,60.01649929905279,
Human.xlsx,h,Sychronize.jpg,Number8.jpg,8,Human,,,,,0,2,2,2,0,6,6,5,,,,,,,,,,,,,,,,,,,,,,,,,,,,,710.6778378964464,None,710.6778378964464,None,711.1440982140939,None,711.1440982140939,None,v,6.899644666484164,711.1440982140939,None,t,6.9550291545438085,711.1440982140939,None,6.899644666484164,6.9550291545438085,7.954528384019197,True,False,False,718.1765080823388,None,718.1765080823388,None,718.1765080823388,None,718.1765080823388,None,718.1765080823388,None,718.1765080823388,None,718.1765080823388,None,718.1765080823388,None,719.177691458106,None,719.177691458106,None,720.1750770605704,None,720.1750770605704,None,h,,,,,,,,,,,,,,,,,,,,,,,,,,,,,,,,,,,,,,,,,,,,,,,31_32Exp,001,2021_May_06_1635,ComputerHuman,2020.1.3,60.01649929905279,
Human.xlsx,h,Sychronize.jpg,Number7.jpg,7,Human,,,,,0,2,2,2,0,7,7,3,,,,,,,,,,,,,,,,,,,,,,,,,,,,,721.1928719654152,None,721.1928719654152,None,721.6746942037043,None,721.6746942037043,None,v,5.612489185536106,721.6746942037043,None,t,5.624115395336048,721.6746942037043,None,5.612489185536106,5.624115395336048,7.313383020296798,True,False,False,727.3578914547052,None,727.3578914547052,None,727.3578914547052,None,727.3578914547052,None,727.3578914547052,None,727.3578914547052,None,727.3578914547052,None,727.3578914547052,None,728.3593215141191,None,728.3593215141191,None,729.3564222595269,None,729.3564222595269,None,h,,,,,,,,,,,,,,,,,,,,,,,,,,,,,,,,,,,,,,,,,,,,,,,31_32Exp,001,2021_May_06_1635,ComputerHuman,2020.1.3,60.01649929905279,
Human.xlsx,h,Sychronize.jpg,Number9.jpg,9,Human,,,,,0,2,2,2,0,8,8,6,,,,,,,,,,,,,,,,,,,,,,,,,,,,,730.3906445628709,None,730.3906445628709,None,730.856066990169,None,730.856066990169,None,v,6.030721897712283,730.856066990169,None,t,7.478026710481572,730.856066990169,None,6.030721897712283,7.478026710481572,8.601641778302378,False,False,False,738.3879207776608,None,738.3879207776608,None,738.3879207776608,None,738.3879207776608,None,738.3879207776608,None,738.3879207776608,None,738.3879207776608,None,738.3879207776608,None,739.3896488463142,None,739.3896488463142,None,740.3872756790788,None,740.3872756790788,None,h,,,,,,,,,,,,,,,,,,,,,,,,,,,,,,,,,,,,,,,,,,,,,,,31_32Exp,001,2021_May_06_1635,ComputerHuman,2020.1.3,60.01649929905279,
Human.xlsx,h,Sychronize.jpg,Number10.jpg,10,Human,,,,,0,2,2,2,0,9,9,9,,,,,,,,,,,,,,,,,,,,,,,,,,,,,741.4209016431578,None,741.4209016431578,None,741.8873297313457,None,741.8873297313457,None,v,7.762736526790832,741.8873297313457,None,t,8.825942394076264,741.8873297313457,None,7.762736526790832,8.825942394076264,9.994868874987368,False,False,False,750.7855568490322,None,750.7855568490322,None,750.7855568490322,None,750.7855568490322,None,750.7855568490322,None,750.7855568490322,None,750.7855568490322,None,750.7855568490322,None,751.7875627174726,None,751.7875627174726,None,752.7845165433628,None,752.7845165433628,None,h,,,,,,,,,,,,,,,,,,,,,,,,,,,,,,,,,,,,,,,,,,,,,,,31_32Exp,001,2021_May_06_1635,ComputerHuman,2020.1.3,60.01649929905279,
Human.xlsx,h,,,,,,,,,0,2,2,2,,,,,,,,,,,,,,,,,,,,,,,,,,,,,,,,,,,,,,,,,,,,,,,,,,,,,,,,,,,,,,,,,,,,,,,,,,,,,,,h,753.7850233836216,None,753.7850233836216,None,a,0,3.736682371229108,753.7850233836216,None,l,0,6.428085943427504,753.7850233836216,None,c,c,760.2836111277738,None,760.2836111277738,None,762.282383804466,None,None,None,None,None,None,None,None,,,,,,,,,,,,,,,,,,31_32Exp,001,2021_May_06_1635,ComputerHuman,2020.1.3,60.01649929905279,
Human.xlsx,h,Sychronize.jpg,Number9.jpg,9,Human,,,,,0,3,3,0,0,0,0,6,,,,,,,,,,,,,,,,,,,,,,,,,767.301235695797,None,767.301235695797,None,770.3474569610826,None,770.3474569610826,None,770.8139007677346,None,770.8139007677346,None,v,7.818711259200427,770.8139007677346,None,t,6.066041285668689,770.8139007677346,None,7.818711259200427,6.066041285668689,9.650283483419068,False,False,False,778.6961431701839,None,778.6961431701839,None,778.6961431701839,None,778.6961431701839,None,778.6961431701839,None,778.6961431701839,None,778.6961431701839,None,778.6961431701839,None,779.6974134786797,None,779.6974134786797,None,780.6950537844132,None,780.6950537844132,None,h,,,,,,,,,,,,,,,,,,,,,,,,,,,,,,,,,,,,,,,,,,,,,,,31_32Exp,001,2021_May_06_1635,ComputerHuman,2020.1.3,60.01649929905279,
Human.xlsx,h,Sychronize.jpg,Number8.jpg,8,Human,,,,,0,3,3,0,0,1,1,5,,,,,,,,,,,,,,,,,,,,,,,,,,,,,781.7288411033333,None,781.7288411033333,None,782.1949801642622,None,782.1949801642622,None,v,5.380960706084807,782.1949801642622,None,t,6.616075882328005,782.1949801642622,None,5.380960706084807,6.616075882328005,8.480302345101306,False,False,False,788.8773937375718,None,788.8773937375718,None,788.8773937375718,None,788.8773937375718,None,788.8773937375718,None,788.8773937375718,None,788.8773937375718,None,788.8773937375718,None,789.8789344678007,None,789.8789344678007,None,790.8760297598637,None,790.8760297598637,None,h,,,,,,,,,,,,,,,,,,,,,,,,,,,,,,,,,,,,,,,,,,,,,,,31_32Exp,001,2021_May_06_1635,ComputerHuman,2020.1.3,60.01649929905279,
Human.xlsx,h,Sychronize.jpg,Number7.jpg,7,Human,,,,,0,3,3,0,0,2,2,2,,,,,,,,,,,,,,,,,,,,,,,,,,,,,791.909203737916,None,791.909203737916,None,792.3757216458962,None,792.3757216458962,None,v,4.875850120277391,792.3757216458962,None,t,5.81110416433512,792.3757216458962,None,4.875850120277391,5.81110416433512,6.861759486030732,False,False,False,798.2417101945157,None,798.2417101945157,None,798.2417101945157,None,798.2417101945157,None,798.2417101945157,None,798.2417101945157,None,798.2417101945157,None,798.2417101945157,None,799.2436984197811,None,799.2436984197811,None,800.2572467731443,None,800.2572467731443,None,h,,,,,,,,,,,,,,,,,,,,,,,,,,,,,,,,,,,,,,,,,,,,,,,31_32Exp,001,2021_May_06_1635,ComputerHuman,2020.1.3,60.01649929905279,
Human.xlsx,h,Sychronize.jpg,Number10.jpg,10,Human,,,,,0,3,3,0,0,3,3,9,,,,,,,,,,,,,,,,,,,,,,,,,,,,,801.2752835498577,None,801.2752835498577,None,801.7570310452502,None,801.7570310452502,None,v,9.301764349434961,801.7570310452502,None,t,8.408962668007007,801.7570310452502,None,9.301764349434961,8.408962668007007,10.177684148262927,False,False,False,811.1221754482085,None,811.1221754482085,None,811.1221754482085,None,811.1221754482085,None,811.1221754482085,None,811.1221754482085,None,811.1221754482085,None,811.1221754482085,None,812.1231846377359,None,812.1231846377359,None,813.1211450868741,None,813.1211450868741,None,h,,,,,,,,,,,,,,,,,,,,,,,,,,,,,,,,,,,,,,,,,,,,,,,31_32Exp,001,2021_May_06_1635,ComputerHuman,2020.1.3,60.01649929905279,
Human.xlsx,h,Sychronize.jpg,Number9.jpg,9,Human,,,,,0,3,3,0,0,4,4,7,,,,,,,,,,,,,,,,,,,,,,,,,,,,,814.155126480704,None,814.155126480704,None,814.6213383598206,None,814.6213383598206,None,v,7.7448726531783905,814.6213383598206,None,t,8.196009884026353,814.6213383598206,None,7.7448726531783905,8.196009884026353,8.54075489717964,False,False,False,822.8696650652018,None,822.8696650652018,None,822.8696650652018,None,822.8696650652018,None,822.8696650652018,None,822.8696650652018,None,822.8696650652018,None,822.8696650652018,None,823.8711939263867,None,823.8711939263867,None,824.8684473654412,None,824.8684473654412,None,h,,,,,,,,,,,,,,,,,,,,,,,,,,,,,,,,,,,,,,,,,,,,,,,31_32Exp,001,2021_May_06_1635,ComputerHuman,2020.1.3,60.01649929905279,
Human.xlsx,h,Sychronize.jpg,Number6.jpg,6,Human,,,,,0,3,3,0,0,5,5,0,,,,,,,,,,,,,,,,,,,,,,,,,,,,,825.9024370996813,None,825.9024370996813,None,826.3689909355799,None,826.3689909355799,None,v,5.464743325506788,826.3689909355799,None,t,4.688256671604904,826.3689909355799,None,5.464743325506788,4.688256671604904,5.634469459129256,False,False,False,831.8842617438586,None,831.8842617438586,None,831.8842617438586,None,831.8842617438586,None,831.8842617438586,None,831.8842617438586,None,831.8842617438586,None,831.8842617438586,None,832.8862406663611,None,832.8862406663611,None,833.8999198999918,None,833.8999198999918,None,h,,,,,,,,,,,,,,,,,,,,,,,,,,,,,,,,,,,,,,,,,,,,,,,31_32Exp,001,2021_May_06_1635,ComputerHuman,2020.1.3,60.01649929905279,
Human.xlsx,h,Sychronize.jpg,Number10.jpg,10,Human,,,,,0,3,3,0,0,6,6,8,,,,,,,,,,,,,,,,,,,,,,,,,,,,,834.9172945765204,None,834.9172945765204,None,835.3994975865753,None,835.3994975865753,None,v,8.17761190343117,835.3994975865753,None,t,9.156895289048407,835.3994975865753,None,8.17761190343117,9.156895289048407,10.717068066609562,False,False,False,844.6148729386769,None,844.6148729386769,None,844.6148729386769,None,844.6148729386769,None,844.6148729386769,None,844.6148729386769,None,844.6148729386769,None,844.6148729386769,None,845.615788138206,None,845.615788138206,None,846.6136837887789,None,846.6136837887789,None,h,,,,,,,,,,,,,,,,,,,,,,,,,,,,,,,,,,,,,,,,,,,,,,,31_32Exp,001,2021_May_06_1635,ComputerHuman,2020.1.3,60.01649929905279,
Human.xlsx,h,Sychronize.jpg,Number7.jpg,7,Human,,,,,0,3,3,0,0,7,7,3,,,,,,,,,,,,,,,,,,,,,,,,,,,,,847.6472247448401,None,847.6472247448401,None,848.1138244529902,None,848.1138244529902,None,v,7.842609739736872,848.1138244529902,None,t,7.90999928464953,848.1138244529902,None,7.842609739736872,7.90999928464953,7.487473856033253,True,False,False,856.0789362000396,None,856.0789362000396,None,856.0789362000396,None,856.0789362000396,None,856.0789362000396,None,856.0789362000396,None,856.0789362000396,None,856.0789362000396,None,857.0803367472345,None,857.0803367472345,None,858.0779809023879,None,858.0779809023879,None,h,,,,,,,,,,,,,,,,,,,,,,,,,,,,,,,,,,,,,,,,,,,,,,,31_32Exp,001,2021_May_06_1635,ComputerHuman,2020.1.3,60.01649929905279,
Human.xlsx,h,Sychronize.jpg,Number6.jpg,6,Human,,,,,0,3,3,0,0,8,8,1,,,,,,,,,,,,,,,,,,,,,,,,,,,,,859.1121056871016,None,859.1121056871016,None,859.5780041592989,None,859.5780041592989,None,v,4.678031971356177,859.5780041592989,None,t,5.097111235078046,859.5780041592989,None,4.678031971356177,5.097111235078046,5.701865565540768,False,False,False,864.727694617839,None,864.727694617839,None,864.727694617839,None,864.727694617839,None,864.727694617839,None,864.727694617839,None,864.727694617839,None,864.727694617839,None,865.7288818430261,None,865.7288818430261,None,866.7426178555979,None,866.7426178555979,None,h,,,,,,,,,,,,,,,,,,,,,,,,,,,,,,,,,,,,,,,,,,,,,,,31_32Exp,001,2021_May_06_1635,ComputerHuman,2020.1.3,60.01649929905279,
Human.xlsx,h,Sychronize.jpg,Number8.jpg,8,Human,,,,,0,3,3,0,0,9,9,4,,,,,,,,,,,,,,,,,,,,,,,,,,,,,867.7764449518563,None,867.7764449518563,None,868.2596404706183,None,868.2596404706183,None,v,6.155794034233622,868.2596404706183,None,t,6.211073946389661,868.2596404706183,None,6.155794034233622,6.211073946389661,7.615911032728722,True,False,False,874.525176327481,None,874.525176327481,None,874.525176327481,None,874.525176327481,None,874.525176327481,None,874.525176327481,None,874.525176327481,None,874.525176327481,None,875.5264196900389,None,875.5264196900389,None,876.5237706477255,None,876.5237706477255,None,h,,,,,,,,,,,,,,,,,,,,,,,,,,,,,,,,,,,,,,,,,,,,,,,31_32Exp,001,2021_May_06_1635,ComputerHuman,2020.1.3,60.01649929905279,
Human.xlsx,h,,,,,,,,,0,3,3,0,,,,,,,,,,,,,,,,,,,,,,,,,,,,,,,,,,,,,,,,,,,,,,,,,,,,,,,,,,,,,,,,,,,,,,,,,,,,,,,h,877.5238569388839,None,877.5238569388839,None,q,0,4.6471272262078855,877.5238569388839,None,l,0,4.938718521771079,877.5238569388839,None,h,c,882.5228933008239,None,882.5228933008239,None,884.5552919415932,None,None,None,None,None,None,None,None,,,,,,,,,,,,,,,,,,31_32Exp,001,2021_May_06_1635,ComputerHuman,2020.1.3,60.01649929905279,
Human.xlsx,h,Sychronize.jpg,Number7.jpg,7,Human,,,,,0,4,4,4,0,0,0,2,,,,,,,,,,,,,,,,,,,,,,,,,889.5579406631205,None,889.5579406631205,None,892.5883552488285,None,892.5883552488285,None,893.0534985931972,None,893.0534985931972,None,v,5.388686491391127,893.0534985931972,None,t,5.756040140466212,893.0534985931972,None,5.388686491391127,5.756040140466212,7.035850012502037,False,False,False,898.869628174929,None,898.869628174929,None,898.869628174929,None,898.869628174929,None,898.869628174929,None,898.869628174929,None,898.869628174929,None,898.869628174929,None,899.8873922844159,None,899.8873922844159,None,900.8850197587508,None,900.8850197587508,None,h,,,,,,,,,,,,,,,,,,,,,,,,,,,,,,,,,,,,,,,,,,,,,,,31_32Exp,001,2021_May_06_1635,ComputerHuman,2020.1.3,60.01649929905279,
Human.xlsx,h,Sychronize.jpg,Number10.jpg,10,Human,,,,,0,4,4,4,0,1,1,8,,,,,,,,,,,,,,,,,,,,,,,,,,,,,901.9187958501971,None,901.9187958501971,None,902.384691756115,None,902.384691756115,None,v,9.188983089179601,902.384691756115,None,t,8.883954111068306,902.384691756115,None,9.188983089179601,8.883954111068306,9.876220257988702,False,False,False,911.6335955536633,None,911.6335955536633,None,911.6335955536633,None,911.6335955536633,None,911.6335955536633,None,911.6335955536633,None,911.6335955536633,None,911.6335955536633,None,912.6345694568445,None,912.6345694568445,None,913.6321545875617,None,913.6321545875617,None,h,,,,,,,,,,,,,,,,,,,,,,,,,,,,,,,,,,,,,,,,,,,,,,,31_32Exp,001,2021_May_06_1635,ComputerHuman,2020.1.3,60.01649929905279,
Human.xlsx,h,Sychronize.jpg,Number6.jpg,6,Human,,,,,0,4,4,4,0,2,2,0,,,,,,,,,,,,,,,,,,,,,,,,,,,,,914.665975909691,None,914.665975909691,None,915.1320877038961,None,915.1320877038961,None,v,3.8449543571096,915.1320877038961,None,t,5.780133337480947,915.1320877038961,None,3.8449543571096,5.780133337480947,6.051155951759531,False,False,False,920.9643867730101,None,920.9643867730101,None,920.9643867730101,None,920.9643867730101,None,920.9643867730101,None,920.9643867730101,None,920.9643867730101,None,920.9643867730101,None,921.9817165396416,None,921.9817165396416,None,922.9634799138894,None,922.9634799138894,None,h,,,,,,,,,,,,,,,,,,,,,,,,,,,,,,,,,,,,,,,,,,,,,,,31_32Exp,001,2021_May_06_1635,ComputerHuman,2020.1.3,60.01649929905279,
Human.xlsx,h,Sychronize.jpg,Number10.jpg,10,Human,,,,,0,4,4,4,0,3,3,9,,,,,,,,,,,,,,,,,,,,,,,,,,,,,923.9972040381708,None,923.9972040381708,None,924.4630999440869,None,924.4630999440869,None,v,7.83736586777195,924.4630999440869,None,t,8.72162889477113,924.4630999440869,None,7.83736586777195,8.72162889477113,10.067930076530676,False,False,False,933.2617711244129,None,933.2617711244129,None,933.2617711244129,None,933.2617711244129,None,933.2617711244129,None,933.2617711244129,None,933.2617711244129,None,933.2617711244129,None,934.2632201101387,None,934.2632201101387,None,935.260677568438,None,935.260677568438,None,h,,,,,,,,,,,,,,,,,,,,,,,,,,,,,,,,,,,,,,,,,,,,,,,31_32Exp,001,2021_May_06_1635,ComputerHuman,2020.1.3,60.01649929905279,
Human.xlsx,h,Sychronize.jpg,Number8.jpg,8,Human,,,,,0,4,4,4,0,4,4,4,,,,,,,,,,,,,,,,,,,,,,,,,,,,,936.2781690106967,None,936.2781690106967,None,936.7604557456289,None,936.7604557456289,None,v,6.023390357138851,936.7604557456289,None,t,6.531122076967222,936.7604557456289,None,6.023390357138851,6.531122076967222,7.770830586769712,False,False,False,943.3432389594636,None,943.3432389594636,None,943.3432389594636,None,943.3432389594636,None,943.3432389594636,None,943.3432389594636,None,943.3432389594636,None,943.3432389594636,None,944.343424373179,None,944.343424373179,None,945.3418461111087,None,945.3418461111087,None,h,,,,,,,,,,,,,,,,,,,,,,,,,,,,,,,,,,,,,,,,,,,,,,,31_32Exp,001,2021_May_06_1635,ComputerHuman,2020.1.3,60.01649929905279,
Human.xlsx,h,Sychronize.jpg,Number6.jpg,6,Human,,,,,0,4,4,4,0,5,5,1,,,,,,,,,,,,,,,,,,,,,,,,,,,,,946.3753607628023,None,946.3753607628023,None,946.8416159478893,None,946.8416159478893,None,v,4.317769274124657,946.8416159478893,None,t,4.317155612470742,946.8416159478893,None,4.317769274124657,4.317155612470742,6.300888716299228,True,False,False,951.2408504907853,None,951.2408504907853,None,951.2408504907853,None,951.2408504907853,None,951.2408504907853,None,951.2408504907853,None,951.2408504907853,None,951.2408504907853,None,952.2594425462885,None,952.2594425462885,None,953.2566161098857,None,953.2566161098857,None,h,,,,,,,,,,,,,,,,,,,,,,,,,,,,,,,,,,,,,,,,,,,,,,,31_32Exp,001,2021_May_06_1635,ComputerHuman,2020.1.3,60.01649929905279,
Human.xlsx,h,Sychronize.jpg,Number8.jpg,8,Human,,,,,0,4,4,4,0,6,6,5,,,,,,,,,,,,,,,,,,,,,,,,,,,,,954.2739324035501,None,954.2739324035501,None,954.7563760023331,None,954.7563760023331,None,v,6.194480060486967,954.7563760023331,None,t,6.86601998554579,954.7563760023331,None,6.194480060486967,6.86601998554579,8.16895292975183,False,False,False,961.6722565586897,None,961.6722565586897,None,961.6722565586897,None,961.6722565586897,None,961.6722565586897,None,961.6722565586897,None,961.6722565586897,None,961.6722565586897,None,962.6740070822907,None,962.6740070822907,None,963.6711142433978,None,963.6711142433978,None,h,,,,,,,,,,,,,,,,,,,,,,,,,,,,,,,,,,,,,,,,,,,,,,,31_32Exp,001,2021_May_06_1635,ComputerHuman,2020.1.3,60.01649929905279,
Human.xlsx,h,Sychronize.jpg,Number9.jpg,9,Human,,,,,0,4,4,4,0,7,7,7,,,,,,,,,,,,,,,,,,,,,,,,,,,,,964.7055296592989,None,964.7055296592989,None,965.1712430385651,None,965.1712430385651,None,v,7.887439439806258,965.1712430385651,None,t,7.622046332257014,965.1712430385651,None,7.887439439806258,7.622046332257014,8.567772759056462,True,False,False,973.1192319252914,None,973.1192319252914,None,973.1192319252914,None,973.1192319252914,None,973.1192319252914,None,973.1192319252914,None,973.1192319252914,None,973.1192319252914,None,974.1209301609415,None,974.1209301609415,None,975.1185563521358,None,975.1185563521358,None,h,,,,,,,,,,,,,,,,,,,,,,,,,,,,,,,,,,,,,,,,,,,,,,,31_32Exp,001,2021_May_06_1635,ComputerHuman,2020.1.3,60.01649929905279,
Human.xlsx,h,Sychronize.jpg,Number7.jpg,7,Human,,,,,0,4,4,4,0,8,8,3,,,,,,,,,,,,,,,,,,,,,,,,,,,,,976.1523783158354,None,976.1523783158354,None,976.6181106214153,None,976.6181106214153,None,v,4.867617494714068,976.6181106214153,None,t,6.195114252379426,976.6181106214153,None,4.867617494714068,6.195114252379426,7.437855894207641,False,False,False,982.8676887089787,None,982.8676887089787,None,982.8676887089787,None,982.8676887089787,None,982.8676887089787,None,982.8676887089787,None,982.8676887089787,None,982.8676887089787,None,983.8858082482166,None,983.8858082482166,None,984.8829513372402,None,984.8829513372402,None,h,,,,,,,,,,,,,,,,,,,,,,,,,,,,,,,,,,,,,,,,,,,,,,,31_32Exp,001,2021_May_06_1635,ComputerHuman,2020.1.3,60.01649929905279,
Human.xlsx,h,Sychronize.jpg,Number9.jpg,9,Human,,,,,0,4,4,4,0,9,9,6,,,,,,,,,,,,,,,,,,,,,,,,,,,,,985.9012312689647,None,985.9012312689647,None,986.3826743394166,None,986.3826743394166,None,v,6.750489277281304,986.3826743394166,None,t,7.1500032238891436,986.3826743394166,None,6.750489277281304,7.1500032238891436,8.348496763233971,False,False,False,993.5988096311212,None,993.5988096311212,None,993.5988096311212,None,993.5988096311212,None,993.5988096311212,None,993.5988096311212,None,993.5988096311212,None,993.5988096311212,None,994.5998018190439,None,994.5998018190439,None,995.5974215945389,None,995.5974215945389,None,h,,,,,,,,,,,,,,,,,,,,,,,,,,,,,,,,,,,,,,,,,,,,,,,31_32Exp,001,2021_May_06_1635,ComputerHuman,2020.1.3,60.01649929905279,
Human.xlsx,h,,,,,,,,,0,4,4,4,,,,,,,,,,,,,,,,,,,,,,,,,,,,,,,,,,,,,,,,,,,,,,,,,,,,,,,,,,,,,,,,,,,,,,,,,,,,,,,h,996.5979954788563,None,996.5979954788563,None,q,1,4.08269900778032,996.5979954788563,None,o,0,3.1388036581029155,996.5979954788563,None,h,h,1000.7628273089394,None,1000.7628273089394,None,None,None,1002.7790003249556,None,1002.7790003249556,None,"['space', 'space']",1003.7620638407006,None,"[2.9823080671339994, 4.166292043282738]",,,,,,,,,,,,,,,,,31_32Exp,001,2021_May_06_1635,ComputerHuman,2020.1.3,60.01649929905279,
Computer.xlsx,c,Sychronize.jpg,Number8.jpg,8,Computer,,,,,0,5,5,9,0,0,0,4,,,,,,,,,,,,,,,,,,,,,,,,,1007.9812523637847,None,1007.9812523637847,None,1011.0286175482852,None,1011.0286175482852,None,1011.4771346074704,None,1011.4771346074704,None,v,5.4867315315259475,1011.4771346074704,None,t,5.710087372202906,1011.4771346074704,None,5.4867315315259475,5.710087372202906,8.36683554792961,False,False,False,1017.2598768891439,None,1017.2598768891439,None,1017.2598768891439,None,1017.2598768891439,None,1017.2598768891439,None,1017.2598768891439,None,1017.2598768891439,None,1017.2598768891439,None,1018.2756136375956,None,1018.2756136375956,None,1019.2587153267541,None,1019.2587153267541,None,c,,,,,,,,,,,,,,,,,,,,,,,,,,,,,,,,,,,,,,,,,,,,,,,31_32Exp,001,2021_May_06_1635,ComputerHuman,2020.1.3,60.01649929905279,
Computer.xlsx,c,Sychronize.jpg,Number6.jpg,6,Computer,,,,,0,5,5,9,0,1,1,0,,,,,,,,,,,,,,,,,,,,,,,,,,,,,1020.2752819459329,None,1020.2752819459329,None,1020.758495428654,None,1020.758495428654,None,v,3.4210014072850754,1020.758495428654,None,t,5.128084948994001,1020.758495428654,None,3.4210014072850754,5.128084948994001,5.863384135190576,False,False,False,1025.9413896982478,None,1025.9413896982478,None,1025.9413896982478,None,1025.9413896982478,None,1025.9413896982478,None,1025.9413896982478,None,1025.9413896982478,None,1025.9413896982478,None,1026.9570157758844,None,1026.9570157758844,None,1027.9401184273975,None,1027.9401184273975,None,c,,,,,,,,,,,,,,,,,,,,,,,,,,,,,,,,,,,,,,,,,,,,,,,31_32Exp,001,2021_May_06_1635,ComputerHuman,2020.1.3,60.01649929905279,
Computer.xlsx,c,Sychronize.jpg,Number9.jpg,9,Computer,,,,,0,5,5,9,0,2,2,6,,,,,,,,,,,,,,,,,,,,,,,,,,,,,1028.9737225780973,None,1028.9737225780973,None,1029.4402138609275,None,1029.4402138609275,None,v,6.990587206517375,1029.4402138609275,None,t,8.433929362507115,1029.4402138609275,None,6.990587206517375,8.433929362507115,8.816825685660373,False,False,False,1037.9391528646265,None,1037.9391528646265,None,1037.9391528646265,None,1037.9391528646265,None,1037.9391528646265,None,1037.9391528646265,None,1037.9391528646265,None,1037.9391528646265,None,1038.9710786683445,None,1038.9710786683445,None,1039.937480612558,None,1039.937480612558,None,c,,,,,,,,,,,,,,,,,,,,,,,,,,,,,,,,,,,,,,,,,,,,,,,31_32Exp,001,2021_May_06_1635,ComputerHuman,2020.1.3,60.01649929905279,
Computer.xlsx,c,Sychronize.jpg,Number8.jpg,8,Computer,,,,,0,5,5,9,0,3,3,5,,,,,,,,,,,,,,,,,,,,,,,,,,,,,1040.9713798854355,None,1040.9713798854355,None,1041.4373373820672,None,1041.4373373820672,None,v,6.33696280145341,1041.4373373820672,None,t,6.972013756543674,1041.4373373820672,None,6.33696280145341,6.972013756543674,8.254953078951877,False,False,False,1048.469628239087,None,1048.469628239087,None,1048.469628239087,None,1048.469628239087,None,1048.469628239087,None,1048.469628239087,None,1048.469628239087,None,1048.469628239087,None,1049.4853633836155,None,1049.4853633836155,None,1050.4851410796273,None,1050.4851410796273,None,c,,,,,,,,,,,,,,,,,,,,,,,,,,,,,,,,,,,,,,,,,,,,,,,31_32Exp,001,2021_May_06_1635,ComputerHuman,2020.1.3,60.01649929905279,
Computer.xlsx,c,Sychronize.jpg,Number7.jpg,7,Computer,,,,,0,5,5,9,0,4,4,2,,,,,,,,,,,,,,,,,,,,,,,,,,,,,1051.5187490797489,None,1051.5187490797489,None,1051.9850132468164,None,1051.9850132468164,None,v,6.632655012121177,1051.9850132468164,None,t,5.972431097792651,1051.9850132468164,None,6.632655012121177,5.972431097792651,6.592197687490872,False,True,False,1058.6842385190266,None,1058.6842385190266,None,1058.6842385190266,None,1058.6842385190266,None,1058.6842385190266,None,1058.6842385190266,None,1058.6842385190266,None,1058.6842385190266,None,1059.6998219322613,None,1059.6998219322613,None,1060.6827757395458,None,1060.6827757395458,None,c,,,,,,,,,,,,,,,,,,,,,,,,,,,,,,,,,,,,,,,,,,,,,,,31_32Exp,001,2021_May_06_1635,ComputerHuman,2020.1.3,60.01649929905279,
Computer.xlsx,c,Sychronize.jpg,Number10.jpg,10,Computer,,,,,0,5,5,9,0,5,5,9,,,,,,,,,,,,,,,,,,,,,,,,,,,,,1061.7161299987529,None,1061.7161299987529,None,1062.1826395663247,None,1062.1826395663247,None,v,8.918387490926762,1062.1826395663247,None,t,10.105915178679425,1062.1826395663247,None,8.918387490926762,10.105915178679425,9.988269717166206,False,False,True,1072.3477309114496,None,1072.3477309114496,None,1072.3477309114496,None,1072.3477309114496,None,1072.3477309114496,None,1072.3477309114496,None,1072.3477309114496,None,1072.3477309114496,None,1073.3632748681339,None,1073.3632748681339,None,1074.3465128909047,None,1074.3465128909047,None,c,,,,,,,,,,,,,,,,,,,,,,,,,,,,,,,,,,,,,,,,,,,,,,,31_32Exp,001,2021_May_06_1635,ComputerHuman,2020.1.3,60.01649929905279,
Computer.xlsx,c,Sychronize.jpg,Number7.jpg,7,Computer,,,,,0,5,5,9,0,6,6,3,,,,,,,,,,,,,,,,,,,,,,,,,,,,,1075.3803739903706,None,1075.3803739903706,None,1075.8465316568254,None,1075.8465316568254,None,v,6.029930841968962,1075.8465316568254,None,t,6.137613225066161,1075.8465316568254,None,6.029930841968962,6.137613225066161,7.269209797331865,False,False,False,1082.0455950930173,None,1082.0455950930173,None,1082.0455950930173,None,1082.0455950930173,None,1082.0455950930173,None,1082.0455950930173,None,1082.0455950930173,None,1082.0455950930173,None,1083.0779937337866,None,1083.0779937337866,None,1084.0610412102833,None,1084.0610412102833,None,c,,,,,,,,,,,,,,,,,,,,,,,,,,,,,,,,,,,,,,,,,,,,,,,31_32Exp,001,2021_May_06_1635,ComputerHuman,2020.1.3,60.01649929905279,
Computer.xlsx,c,Sychronize.jpg,Number6.jpg,6,Computer,,,,,0,5,5,9,0,7,7,1,,,,,,,,,,,,,,,,,,,,,,,,,,,,,1085.0790026025297,None,1085.0790026025297,None,1085.5606554663536,None,1085.5606554663536,None,v,4.4233944631869235,1085.5606554663536,None,t,5.875076386922956,1085.5606554663536,None,4.4233944631869235,5.875076386922956,5.839044587272078,False,False,True,1091.4933605530077,None,1091.4933605530077,None,1091.4933605530077,None,1091.4933605530077,None,1091.4933605530077,None,1091.4933605530077,None,1091.4933605530077,None,1091.4933605530077,None,1092.5090815829972,None,1092.5090815829972,None,1093.4922487122894,None,1093.4922487122894,None,c,,,,,,,,,,,,,,,,,,,,,,,,,,,,,,,,,,,,,,,,,,,,,,,31_32Exp,001,2021_May_06_1635,ComputerHuman,2020.1.3,60.01649929905279,
Computer.xlsx,c,Sychronize.jpg,Number9.jpg,9,Computer,,,,,0,5,5,9,0,8,8,7,,,,,,,,,,,,,,,,,,,,,,,,,,,,,1094.5262775822957,None,1094.5262775822957,None,1094.9919290500638,None,1094.9919290500638,None,v,7.323480209010086,1094.9919290500638,None,t,9.418959290142084,1094.9919290500638,None,7.323480209010086,9.418959290142084,8.742160012437877,False,False,False,1104.4737487220737,None,1104.4737487220737,None,1104.4737487220737,None,1104.4737487220737,None,1104.4737487220737,None,1104.4737487220737,None,1104.4737487220737,None,1104.4737487220737,None,1105.5062188978918,None,1105.5062188978918,None,1106.472713869749,None,1106.472713869749,None,c,,,,,,,,,,,,,,,,,,,,,,,,,,,,,,,,,,,,,,,,,,,,,,,31_32Exp,001,2021_May_06_1635,ComputerHuman,2020.1.3,60.01649929905279,
Computer.xlsx,c,Sychronize.jpg,Number10.jpg,10,Computer,,,,,0,5,5,9,0,9,9,8,,,,,,,,,,,,,,,,,,,,,,,,,,,,,1107.5066012735806,None,1107.5066012735806,None,1107.9729831687346,None,1107.9729831687346,None,v,7.809604494583255,1107.9729831687346,None,t,9.936946826363055,1107.9729831687346,None,7.809604494583255,9.936946826363055,9.608790372125908,False,False,False,1117.9872619494818,None,1117.9872619494818,None,1117.9872619494818,None,1117.9872619494818,None,1117.9872619494818,None,1117.9872619494818,None,1117.9872619494818,None,1117.9872619494818,None,1119.0032258136962,None,1119.0032258136962,None,1119.986339371897,None,1119.986339371897,None,c,,,,,,,,,,,,,,,,,,,,,,,,,,,,,,,,,,,,,,,,,,,,,,,31_32Exp,001,2021_May_06_1635,ComputerHuman,2020.1.3,60.01649929905279,
Computer.xlsx,c,,,,,,,,,0,5,5,9,,,,,,,,,,,,,,,,,,,,,,,,,,,,,,,,,,,,,,,,,,,,,,,,,,,,,,,,,,,,,,,,,,,,,,,,,,,,,,,c,1120.9870146242665,None,1120.9870146242665,None,q,0,5.083063740294165,1120.9870146242665,None,l,0,4.806192625603217,1120.9870146242665,None,h,c,1126.1521630691168,None,1126.1521630691168,None,1128.151254285287,None,None,None,None,None,None,None,None,,,,,,,,,,,,,,,,,,31_32Exp,001,2021_May_06_1635,ComputerHuman,2020.1.3,60.01649929905279,
Computer.xlsx,c,Sychronize.jpg,Number6.jpg,6,Computer,,,,,0,6,6,1,0,0,0,0,,,,,,,,,,,,,,,,,,,,,,,,,1133.1535578421826,None,1133.1535578421826,None,1136.2162052228286,None,1136.2162052228286,None,1136.6826467839874,None,1136.6826467839874,None,v,3.518674978418858,1136.6826467839874,None,t,4.5462236711719015,1136.6826467839874,None,3.518674978418858,4.5462236711719015,5.698039453311882,False,False,False,1141.2984111841051,None,1141.2984111841051,None,1141.2984111841051,None,1141.2984111841051,None,1141.2984111841051,None,1141.2984111841051,None,1141.2984111841051,None,1141.2984111841051,None,1142.3147747463954,None,1142.3147747463954,None,1143.2978834928235,None,1143.2978834928235,None,c,,,,,,,,,,,,,,,,,,,,,,,,,,,,,,,,,,,,,,,,,,,,,,,31_32Exp,001,2021_May_06_1635,ComputerHuman,2020.1.3,60.01649929905279,
Computer.xlsx,c,Sychronize.jpg,Number10.jpg,10,Computer,,,,,0,6,6,1,0,1,1,8,,,,,,,,,,,,,,,,,,,,,,,,,,,,,1144.3488308831256,None,1144.3488308831256,None,1144.7983042023152,None,1144.7983042023152,None,v,8.430378914417815,1144.7983042023152,None,t,8.777962264781308,1144.7983042023152,None,8.430378914417815,8.777962264781308,9.832175875024896,False,False,False,1153.6626901092059,None,1153.6626901092059,None,1153.6626901092059,None,1153.6626901092059,None,1153.6626901092059,None,1153.6626901092059,None,1153.6626901092059,None,1153.6626901092059,None,1154.6624354059368,None,1154.6624354059368,None,1155.6456079885738,None,1155.6456079885738,None,c,,,,,,,,,,,,,,,,,,,,,,,,,,,,,,,,,,,,,,,,,,,,,,,31_32Exp,001,2021_May_06_1635,ComputerHuman,2020.1.3,60.01649929905279,
Computer.xlsx,c,Sychronize.jpg,Number8.jpg,8,Computer,,,,,0,6,6,1,0,2,2,4,,,,,,,,,,,,,,,,,,,,,,,,,,,,,1156.6951654175846,None,1156.6951654175846,None,1157.1456187348704,None,1157.1456187348704,None,v,5.602603875788191,1157.1456187348704,None,t,7.929995415983285,1157.1456187348704,None,5.602603875788191,7.929995415983285,7.977831362954036,False,False,True,1165.1271986201118,None,1165.1271986201118,None,1165.1271986201118,None,1165.1271986201118,None,1165.1271986201118,None,1165.1271986201118,None,1165.1271986201118,None,1165.1271986201118,None,1166.1598955909067,None,1166.1598955909067,None,1167.1431108379456,None,1167.1431108379456,None,c,,,,,,,,,,,,,,,,,,,,,,,,,,,,,,,,,,,,,,,,,,,,,,,31_32Exp,001,2021_May_06_1635,ComputerHuman,2020.1.3,60.01649929905279,
Computer.xlsx,c,Sychronize.jpg,Number10.jpg,10,Computer,,,,,0,6,6,1,0,3,3,9,,,,,,,,,,,,,,,,,,,,,,,,,,,,,1168.1934570772064,None,1168.1934570772064,None,1168.64338526949,None,1168.64338526949,None,v,7.5560733737893315,1168.64338526949,None,t,10.426814672577166,1168.64338526949,None,7.5560733737893315,10.426814672577166,10.592847962128864,False,False,True,1179.156974202153,None,1179.156974202153,None,1179.156974202153,None,1179.156974202153,None,1179.156974202153,None,1179.156974202153,None,1179.156974202153,None,1179.156974202153,None,1180.14014293537,None,1180.14014293537,None,1181.1233241791997,None,1181.1233241791997,None,c,,,,,,,,,,,,,,,,,,,,,,,,,,,,,,,,,,,,,,,,,,,,,,,31_32Exp,001,2021_May_06_1635,ComputerHuman,2020.1.3,60.01649929905279,
Computer.xlsx,c,Sychronize.jpg,Number6.jpg,6,Computer,,,,,0,6,6,1,0,4,4,1,,,,,,,,,,,,,,,,,,,,,,,,,,,,,1182.1734561340982,None,1182.1734561340982,None,1182.6233358878508,None,1182.6233358878508,None,v,4.579559966419765,1182.6233358878508,None,t,6.843087388562708,1182.6233358878508,None,4.579559966419765,6.843087388562708,5.695688387552874,False,False,False,1189.5382986783989,None,1189.5382986783989,None,1189.5382986783989,None,1189.5382986783989,None,1189.5382986783989,None,1189.5382986783989,None,1189.5382986783989,None,1189.5382986783989,None,1190.5543408141457,None,1190.5543408141457,None,1191.5376436354818,None,1191.5376436354818,None,c,,,,,,,,,,,,,,,,,,,,,,,,,,,,,,,,,,,,,,,,,,,,,,,31_32Exp,001,2021_May_06_1635,ComputerHuman,2020.1.3,60.01649929905279,
Computer.xlsx,c,Sychronize.jpg,Number9.jpg,9,Computer,,,,,0,6,6,1,0,5,5,7,,,,,,,,,,,,,,,,,,,,,,,,,,,,,1192.587893639251,None,1192.587893639251,None,1193.0208118875216,None,1193.0208118875216,None,v,8.529291036336872,1193.0208118875216,None,t,8.936939127521327,1193.0208118875216,None,8.529291036336872,8.936939127521327,9.26207044724171,False,False,False,1202.0519588253246,None,1202.0519588253246,None,1202.0519588253246,None,1202.0519588253246,None,1202.0519588253246,None,1202.0519588253246,None,1202.0519588253246,None,1202.0519588253246,None,1203.0516563250949,None,1203.0516563250949,None,1204.0349360499113,None,1204.0349360499113,None,c,,,,,,,,,,,,,,,,,,,,,,,,,,,,,,,,,,,,,,,,,,,,,,,31_32Exp,001,2021_May_06_1635,ComputerHuman,2020.1.3,60.01649929905279,
Computer.xlsx,c,Sychronize.jpg,Number7.jpg,7,Computer,,,,,0,6,6,1,0,6,6,3,,,,,,,,,,,,,,,,,,,,,,,,,,,,,1205.0853936015592,None,1205.0853936015592,None,1205.5347328326316,None,1205.5347328326316,None,v,5.5028182563874,1205.5347328326316,None,t,6.88597313169339,1205.5347328326316,None,5.5028182563874,6.88597313169339,6.642146498362793,False,False,True,1212.5163053398192,None,1212.5163053398192,None,1212.5163053398192,None,1212.5163053398192,None,1212.5163053398192,None,1212.5163053398192,None,1212.5163053398192,None,1212.5163053398192,None,1213.4993852155985,None,1213.4993852155985,None,1214.482475035711,None,1214.482475035711,None,c,,,,,,,,,,,,,,,,,,,,,,,,,,,,,,,,,,,,,,,,,,,,,,,31_32Exp,001,2021_May_06_1635,ComputerHuman,2020.1.3,60.01649929905279,
Computer.xlsx,c,Sychronize.jpg,Number8.jpg,8,Computer,,,,,0,6,6,1,0,7,7,5,,,,,,,,,,,,,,,,,,,,,,,,,,,,,1215.5495393046604,None,1215.5495393046604,None,1215.9825435233033,None,1215.9825435233033,None,v,7.914522031993329,1215.9825435233033,None,t,7.5858762225507235,1215.9825435233033,None,7.914522031993329,7.5858762225507235,8.476665729822702,False,False,False,1223.9652365324055,None,1223.9652365324055,None,1223.9652365324055,None,1223.9652365324055,None,1223.9652365324055,None,1223.9652365324055,None,1223.9652365324055,None,1223.9652365324055,None,1224.9802572887966,None,1224.9802572887966,None,1225.9466518549561,None,1225.9466518549561,None,c,,,,,,,,,,,,,,,,,,,,,,,,,,,,,,,,,,,,,,,,,,,,,,,31_32Exp,001,2021_May_06_1635,ComputerHuman,2020.1.3,60.01649929905279,
Computer.xlsx,c,Sychronize.jpg,Number9.jpg,9,Computer,,,,,0,6,6,1,0,8,8,6,,,,,,,,,,,,,,,,,,,,,,,,,,,,,1227.014894367112,None,1227.014894367112,None,1227.4468720738405,None,1227.4468720738405,None,v,7.773462613953598,1227.4468720738405,None,t,8.569002291367724,1227.4468720738405,None,7.773462613953598,8.569002291367724,9.411083491819658,False,False,False,1236.0948872328554,None,1236.0948872328554,None,1236.0948872328554,None,1236.0948872328554,None,1236.0948872328554,None,1236.0948872328554,None,1236.0948872328554,None,1236.0948872328554,None,1237.110928727032,None,1237.110928727032,None,1238.0938581546598,None,1238.0938581546598,None,c,,,,,,,,,,,,,,,,,,,,,,,,,,,,,,,,,,,,,,,,,,,,,,,31_32Exp,001,2021_May_06_1635,ComputerHuman,2020.1.3,60.01649929905279,
Computer.xlsx,c,Sychronize.jpg,Number7.jpg,7,Computer,,,,,0,6,6,1,0,9,9,2,,,,,,,,,,,,,,,,,,,,,,,,,,,,,1239.1447956006268,None,1239.1447956006268,None,1239.594216311083,None,1239.594216311083,None,v,5.481623351604867,1239.594216311083,None,t,7.085179958765366,1239.594216311083,None,5.481623351604867,7.085179958765366,7.172318986547998,False,False,True,1246.7600351965284,None,1246.7600351965284,None,1246.7600351965284,None,1246.7600351965284,None,1246.7600351965284,None,1246.7600351965284,None,1246.7600351965284,None,1246.7600351965284,None,1247.758406250432,None,1247.758406250432,None,1248.7416439524186,None,1248.7416439524186,None,c,,,,,,,,,,,,,,,,,,,,,,,,,,,,,,,,,,,,,,,,,,,,,,,31_32Exp,001,2021_May_06_1635,ComputerHuman,2020.1.3,60.01649929905279,
Computer.xlsx,c,,,,,,,,,0,6,6,1,,,,,,,,,,,,,,,,,,,,,,,,,,,,,,,,,,,,,,,,,,,,,,,,,,,,,,,,,,,,,,,,,,,,,,,,,,,,,,,c,1249.7592223274041,None,1249.7592223274041,None,q,0,4.7520239125951775,1249.7592223274041,None,o,0,7.031027926575916,1249.7592223274041,None,h,h,1256.8732283446898,None,1256.8732283446898,None,1258.8561003518062,None,None,None,None,None,None,None,None,,,,,,,,,,,,,,,,,,31_32Exp,001,2021_May_06_1635,ComputerHuman,2020.1.3,60.01649929905279,
Human.xlsx,h,Sychronize.jpg,Number7.jpg,7,Human,,,,,0,7,7,8,0,0,0,2,,,,,,,,,,,,,,,,,,,,,,,,,1263.8573421104393,None,1263.8573421104393,None,1266.9382655733898,None,1266.9382655733898,None,1267.387880037968,None,1267.387880037968,None,v,5.0064923670815915,1267.387880037968,None,t,6.118039888327985,1267.387880037968,None,5.0064923670815915,6.118039888327985,6.65704760817367,False,False,False,1273.587553927964,None,1273.587553927964,None,1273.587553927964,None,1273.587553927964,None,1273.587553927964,None,1273.587553927964,None,1273.587553927964,None,1273.587553927964,None,1274.588105357334,None,1274.588105357334,None,1275.5688281051262,None,1275.5688281051262,None,h,,,,,,,,,,,,,,,,,,,,,,,,,,,,,,,,,,,,,,,,,,,,,,,31_32Exp,001,2021_May_06_1635,ComputerHuman,2020.1.3,60.01649929905279,
Human.xlsx,h,Sychronize.jpg,Number8.jpg,8,Human,,,,,0,7,7,8,0,1,1,5,,,,,,,,,,,,,,,,,,,,,,,,,,,,,1276.618817310713,None,1276.618817310713,None,1277.0692430404906,None,1277.0692430404906,None,v,6.344501889903768,1277.0692430404906,None,t,7.151998506424206,1277.0692430404906,None,6.344501889903768,7.151998506424206,7.980672596034282,False,False,False,1284.3008847570363,None,1284.3008847570363,None,1284.3008847570363,None,1284.3008847570363,None,1284.3008847570363,None,1284.3008847570363,None,1284.3008847570363,None,1284.3008847570363,None,1285.3025461024154,None,1285.3025461024154,None,1286.299837073313,None,1286.299837073313,None,h,,,,,,,,,,,,,,,,,,,,,,,,,,,,,,,,,,,,,,,,,,,,,,,31_32Exp,001,2021_May_06_1635,ComputerHuman,2020.1.3,60.01649929905279,
Human.xlsx,h,Sychronize.jpg,Number6.jpg,6,Human,,,,,0,7,7,8,0,2,2,0,,,,,,,,,,,,,,,,,,,,,,,,,,,,,1287.349880812344,None,1287.349880812344,None,1287.7997528672568,None,1287.7997528672568,None,v,4.413526475826075,1287.7997528672568,None,t,5.217124913348016,1287.7997528672568,None,4.413526475826075,5.217124913348016,6.32753927761123,False,False,False,1293.0990237550905,None,1293.0990237550905,None,1293.0990237550905,None,1293.0990237550905,None,1293.0990237550905,None,1293.0990237550905,None,1293.0990237550905,None,1293.0990237550905,None,1294.084427397218,None,1294.084427397218,None,1295.0813263688779,None,1295.0813263688779,None,h,,,,,,,,,,,,,,,,,,,,,,,,,,,,,,,,,,,,,,,,,,,,,,,31_32Exp,001,2021_May_06_1635,ComputerHuman,2020.1.3,60.01649929905279,
Human.xlsx,h,Sychronize.jpg,Number8.jpg,8,Human,,,,,0,7,7,8,0,3,3,4,,,,,,,,,,,,,,,,,,,,,,,,,,,,,1296.1316819109034,None,1296.1316819109034,None,1296.5816312749957,None,1296.5816312749957,None,v,6.363089133634276,1296.5816312749957,None,t,7.5699081881321035,1296.5816312749957,None,6.363089133634276,7.5699081881321035,8.042297010254787,False,False,False,1304.2302113363494,None,1304.2302113363494,None,1304.2302113363494,None,1304.2302113363494,None,1304.2302113363494,None,1304.2302113363494,None,1304.2302113363494,None,1304.2302113363494,None,1305.2303236110893,None,1305.2303236110893,None,1306.2288880983324,None,1306.2288880983324,None,h,,,,,,,,,,,,,,,,,,,,,,,,,,,,,,,,,,,,,,,,,,,,,,,31_32Exp,001,2021_May_06_1635,ComputerHuman,2020.1.3,60.01649929905279,
Human.xlsx,h,Sychronize.jpg,Number9.jpg,9,Human,,,,,0,7,7,8,0,4,4,6,,,,,,,,,,,,,,,,,,,,,,,,,,,,,1307.2788606230988,None,1307.2788606230988,None,1307.7291076756464,None,1307.7291076756464,None,v,6.798991323728842,1307.7291076756464,None,t,6.498051391678018,1307.7291076756464,None,6.798991323728842,6.498051391678018,8.440479091876112,False,False,False,1314.5945149618929,None,1314.5945149618929,None,1314.5945149618929,None,1314.5945149618929,None,1314.5945149618929,None,1314.5945149618929,None,1314.5945149618929,None,1314.5945149618929,None,1315.5948450496307,None,1315.5948450496307,None,1316.6098462381397,None,1316.6098462381397,None,h,,,,,,,,,,,,,,,,,,,,,,,,,,,,,,,,,,,,,,,,,,,,,,,31_32Exp,001,2021_May_06_1635,ComputerHuman,2020.1.3,60.01649929905279,
Human.xlsx,h,Sychronize.jpg,Number9.jpg,9,Human,,,,,0,7,7,8,0,5,5,7,,,,,,,,,,,,,,,,,,,,,,,,,,,,,1317.6596952606906,None,1317.6596952606906,None,1318.1100555503344,None,1318.1100555503344,None,v,6.285548989799281,1318.1100555503344,None,t,7.700965209907736,1318.1100555503344,None,6.285548989799281,7.700965209907736,8.948243656692497,False,False,False,1325.8922871423292,None,1325.8922871423292,None,1325.8922871423292,None,1325.8922871423292,None,1325.8922871423292,None,1325.8922871423292,None,1325.8922871423292,None,1325.8922871423292,None,1326.876109956107,None,1326.876109956107,None,1327.874027099273,None,1327.874027099273,None,h,,,,,,,,,,,,,,,,,,,,,,,,,,,,,,,,,,,,,,,,,,,,,,,31_32Exp,001,2021_May_06_1635,ComputerHuman,2020.1.3,60.01649929905279,
Human.xlsx,h,Sychronize.jpg,Number7.jpg,7,Human,,,,,0,7,7,8,0,6,6,3,,,,,,,,,,,,,,,,,,,,,,,,,,,,,1328.9239364294008,None,1328.9239364294008,None,1329.3737404779004,None,1329.3737404779004,None,v,6.63323114193372,1329.3737404779004,None,t,5.852095351408934,1329.3737404779004,None,6.63323114193372,5.852095351408934,7.355381131579096,False,False,False,1336.089652022085,None,1336.089652022085,None,1336.089652022085,None,1336.089652022085,None,1336.089652022085,None,1336.089652022085,None,1336.089652022085,None,1336.089652022085,None,1337.0904812512417,None,1337.0904812512417,None,1338.0884975169647,None,1338.0884975169647,None,h,,,,,,,,,,,,,,,,,,,,,,,,,,,,,,,,,,,,,,,,,,,,,,,31_32Exp,001,2021_May_06_1635,ComputerHuman,2020.1.3,60.01649929905279,
Human.xlsx,h,Sychronize.jpg,Number10.jpg,10,Human,,,,,0,7,7,8,0,7,7,8,,,,,,,,,,,,,,,,,,,,,,,,,,,,,1339.122481477074,None,1339.122481477074,None,1339.5884973565717,None,1339.5884973565717,None,v,7.84187642528741,1339.5884973565717,None,t,9.828943658290882,1339.5884973565717,None,7.84187642528741,9.828943658290882,9.329590621907602,False,False,False,1349.4697360228383,None,1349.4697360228383,None,1349.4697360228383,None,1349.4697360228383,None,1349.4697360228383,None,1349.4697360228383,None,1349.4697360228383,None,1349.4697360228383,None,1350.4878347110516,None,1350.4878347110516,None,1351.4855122278423,None,1351.4855122278423,None,h,,,,,,,,,,,,,,,,,,,,,,,,,,,,,,,,,,,,,,,,,,,,,,,31_32Exp,001,2021_May_06_1635,ComputerHuman,2020.1.3,60.01649929905279,
Human.xlsx,h,Sychronize.jpg,Number6.jpg,6,Human,,,,,0,7,7,8,0,8,8,1,,,,,,,,,,,,,,,,,,,,,,,,,,,,,1352.535741701373,None,1352.535741701373,None,1352.9852634590952,None,1352.9852634590952,None,v,5.624522150683333,1352.9852634590952,None,t,5.660166493817087,1352.9852634590952,None,5.624522150683333,5.660166493817087,5.963459101708995,True,False,False,1358.733901807078,None,1358.733901807078,None,1358.733901807078,None,1358.733901807078,None,1358.733901807078,None,1358.733901807078,None,1358.733901807078,None,1358.733901807078,None,1359.718465634145,None,1359.718465634145,None,1360.7001558694192,None,1360.7001558694192,None,h,,,,,,,,,,,,,,,,,,,,,,,,,,,,,,,,,,,,,,,,,,,,,,,31_32Exp,001,2021_May_06_1635,ComputerHuman,2020.1.3,60.01649929905279,
Human.xlsx,h,Sychronize.jpg,Number10.jpg,10,Human,,,,,0,7,7,8,0,9,9,9,,,,,,,,,,,,,,,,,,,,,,,,,,,,,1361.7502910321673,None,1361.7502910321673,None,1362.2003045532547,None,1362.2003045532547,None,v,7.924863818760059,1362.2003045532547,None,t,9.015802830157554,1362.2003045532547,None,7.924863818760059,9.015802830157554,9.923706183145104,False,False,False,1371.2816289974216,None,1371.2816289974216,None,1371.2816289974216,None,1371.2816289974216,None,1371.2816289974216,None,1371.2816289974216,None,1371.2816289974216,None,1371.2816289974216,None,1372.300668227179,None,1372.300668227179,None,1373.297307363011,None,1373.297307363011,None,h,,,,,,,,,,,,,,,,,,,,,,,,,,,,,,,,,,,,,,,,,,,,,,,31_32Exp,001,2021_May_06_1635,ComputerHuman,2020.1.3,60.01649929905279,
Human.xlsx,h,,,,,,,,,0,7,7,8,,,,,,,,,,,,,,,,,,,,,,,,,,,,,,,,,,,,,,,,,,,,,,,,,,,,,,,,,,,,,,,,,,,,,,,,,,,,,,,h,1374.2982235248946,None,1374.2982235248946,None,a,0,2.8025186753002345,1374.2982235248946,None,l,0,5.222553878242252,1374.2982235248946,None,c,c,1379.6127121310947,None,1379.6127121310947,None,1381.5954741089645,None,None,None,None,None,None,None,None,,,,,,,,,,,,,,,,,,31_32Exp,001,2021_May_06_1635,ComputerHuman,2020.1.3,60.01649929905279,
Human.xlsx,h,Sychronize.jpg,Number7.jpg,7,Human,,,,,0,8,8,6,0,0,0,3,,,,,,,,,,,,,,,,,,,,,,,,,1386.613913150035,None,1386.613913150035,None,1389.6941899104786,None,1389.6941899104786,None,1390.1273009505185,None,1390.1273009505185,None,v,7.256431016954593,1390.1273009505185,None,t,5.800102522876841,1390.1273009505185,None,7.256431016954593,5.800102522876841,7.07557714913491,False,False,False,1397.4587821783425,None,1397.4587821783425,None,1397.4587821783425,None,1397.4587821783425,None,1397.4587821783425,None,1397.4587821783425,None,1397.4587821783425,None,1397.4587821783425,None,1398.4605695922146,None,1398.4605695922146,None,1399.4582038030348,None,1399.4582038030348,None,h,,,,,,,,,,,,,,,,,,,,,,,,,,,,,,,,,,,,,,,,,,,,,,,31_32Exp,001,2021_May_06_1635,ComputerHuman,2020.1.3,60.01649929905279,
Human.xlsx,h,Sychronize.jpg,Number9.jpg,9,Human,,,,,0,8,8,6,0,1,1,6,,,,,,,,,,,,,,,,,,,,,,,,,,,,,1400.525457976688,None,1400.525457976688,None,1400.975140768467,None,1400.975140768467,None,v,4.820109240115926,1400.975140768467,None,t,8.89889499200035,1400.975140768467,None,4.820109240115926,8.89889499200035,8.580057351803566,False,False,False,1409.9574424199,None,1409.9574424199,None,1409.9574424199,None,1409.9574424199,None,1409.9574424199,None,1409.9574424199,None,1409.9574424199,None,1409.9574424199,None,1410.9409883962453,None,1410.9409883962453,None,1411.9387117852875,None,1411.9387117852875,None,h,,,,,,,,,,,,,,,,,,,,,,,,,,,,,,,,,,,,,,,,,,,,,,,31_32Exp,001,2021_May_06_1635,ComputerHuman,2020.1.3,60.01649929905279,
Human.xlsx,h,Sychronize.jpg,Number10.jpg,10,Human,,,,,0,8,8,6,0,2,2,8,,,,,,,,,,,,,,,,,,,,,,,,,,,,,1413.006631266977,None,1413.006631266977,None,1413.438679546398,None,1413.438679546398,None,v,6.735986267836779,1413.438679546398,None,t,7.347056942218842,1413.438679546398,None,6.735986267836779,7.347056942218842,9.579877757228804,False,False,False,1420.8536918982227,None,1420.8536918982227,None,1420.8536918982227,None,1420.8536918982227,None,1420.8536918982227,None,1420.8536918982227,None,1420.8536918982227,None,1420.8536918982227,None,1421.8557128435568,None,1421.8557128435568,None,1422.8529842465705,None,1422.8529842465705,None,h,,,,,,,,,,,,,,,,,,,,,,,,,,,,,,,,,,,,,,,,,,,,,,,31_32Exp,001,2021_May_06_1635,ComputerHuman,2020.1.3,60.01649929905279,
Human.xlsx,h,Sychronize.jpg,Number6.jpg,6,Human,,,,,0,8,8,6,0,3,3,0,,,,,,,,,,,,,,,,,,,,,,,,,,,,,1423.8871366187923,None,1423.8871366187923,None,1424.352843261575,None,1424.352843261575,None,v,4.365242242378372,1424.352843261575,None,t,4.764262500910263,1424.352843261575,None,4.365242242378372,4.764262500910263,5.865176300904103,False,False,False,1429.186425149799,None,1429.186425149799,None,1429.186425149799,None,1429.186425149799,None,1429.186425149799,None,1429.186425149799,None,1429.186425149799,None,1429.186425149799,None,1430.169873286728,None,1430.169873286728,None,1431.1678593986635,None,1431.1678593986635,None,h,,,,,,,,,,,,,,,,,,,,,,,,,,,,,,,,,,,,,,,,,,,,,,,31_32Exp,001,2021_May_06_1635,ComputerHuman,2020.1.3,60.01649929905279,
Human.xlsx,h,Sychronize.jpg,Number8.jpg,8,Human,,,,,0,8,8,6,0,4,4,5,,,,,,,,,,,,,,,,,,,,,,,,,,,,,1432.2349275170327,None,1432.2349275170327,None,1432.6676917885143,None,1432.6676917885143,None,v,5.309876680632442,1432.6676917885143,None,t,7.248994258910898,1432.6676917885143,None,5.309876680632442,7.248994258910898,7.497856031824858,False,False,False,1439.999073572997,None,1439.999073572997,None,1439.999073572997,None,1439.999073572997,None,1439.999073572997,None,1439.999073572997,None,1439.999073572997,None,1439.999073572997,None,1440.9843395983717,None,1440.9843395983717,None,1441.9654816121256,None,1441.9654816121256,None,h,,,,,,,,,,,,,,,,,,,,,,,,,,,,,,,,,,,,,,,,,,,,,,,31_32Exp,001,2021_May_06_1635,ComputerHuman,2020.1.3,60.01649929905279,
Human.xlsx,h,Sychronize.jpg,Number7.jpg,7,Human,,,,,0,8,8,6,0,5,5,2,,,,,,,,,,,,,,,,,,,,,,,,,,,,,1443.0158336255154,None,1443.0158336255154,None,1443.4654692619024,None,1443.4654692619024,None,v,5.231574030916818,1443.4654692619024,None,t,5.631178438885399,1443.4654692619024,None,5.231574030916818,5.631178438885399,7.146978573377587,False,False,False,1449.1475623710248,None,1449.1475623710248,None,1449.1475623710248,None,1449.1475623710248,None,1449.1475623710248,None,1449.1475623710248,None,1449.1475623710248,None,1449.1475623710248,None,1450.1650143567313,None,1450.1650143567313,None,1451.163449888416,None,1451.163449888416,None,h,,,,,,,,,,,,,,,,,,,,,,,,,,,,,,,,,,,,,,,,,,,,,,,31_32Exp,001,2021_May_06_1635,ComputerHuman,2020.1.3,60.01649929905279,
Human.xlsx,h,Sychronize.jpg,Number8.jpg,8,Human,,,,,0,8,8,6,0,6,6,4,,,,,,,,,,,,,,,,,,,,,,,,,,,,,1452.2137842586326,None,1452.2137842586326,None,1452.663525754062,None,1452.663525754062,None,v,12.268588446671856,1452.663525754062,None,None,,1452.663525754062,None,12.268588446671856,13,8.150960271731787,False,False,False,1465.7103433586126,None,1465.7103433586126,None,1465.7103433586126,None,1465.7103433586126,None,1465.7103433586126,None,1465.7103433586126,None,1465.7103433586126,None,1465.7103433586126,None,1466.7289578690652,None,1466.7289578690652,None,1467.7264146857924,None,1467.7264146857924,None,h,,,,,,,,,,,,,,,,,,,,,,,,,,,,,,,,,,,,,,,,,,,,,,,31_32Exp,001,2021_May_06_1635,ComputerHuman,2020.1.3,60.01649929905279,
Human.xlsx,h,Sychronize.jpg,Number10.jpg,10,Human,,,,,0,8,8,6,0,7,7,9,,,,,,,,,,,,,,,,,,,,,,,,,,,,,1468.776351282644,None,1468.776351282644,None,1469.2266288097635,None,1469.2266288097635,None,v,7.7488555194104265,1469.2266288097635,None,t,7.955987018473024,1469.2266288097635,None,7.7488555194104265,7.955987018473024,10.045457865677884,True,False,False,1477.2579993346917,None,1477.2579993346917,None,1477.2579993346917,None,1477.2579993346917,None,1477.2579993346917,None,1477.2579993346917,None,1477.2579993346917,None,1477.2579993346917,None,1478.2435399520054,None,1478.2435399520054,None,1479.2404754931522,None,1479.2404754931522,None,h,,,,,,,,,,,,,,,,,,,,,,,,,,,,,,,,,,,,,,,,,,,,,,,31_32Exp,001,2021_May_06_1635,ComputerHuman,2020.1.3,60.01649929905279,
Human.xlsx,h,Sychronize.jpg,Number6.jpg,6,Human,,,,,0,8,8,6,0,8,8,1,,,,,,,,,,,,,,,,,,,,,,,,,,,,,1480.2907463479442,None,1480.2907463479442,None,1480.7407168838436,None,1480.7407168838436,None,v,3.946306048754195,1480.7407168838436,None,t,4.485296018770896,1480.7407168838436,None,3.946306048754195,4.485296018770896,6.063699668693819,False,False,False,1485.3074399979723,None,1485.3074399979723,None,1485.3074399979723,None,1485.3074399979723,None,1485.3074399979723,None,1485.3074399979723,None,1485.3074399979723,None,1485.3074399979723,None,1486.3076424132923,None,1486.3076424132923,None,1487.305428355403,None,1487.305428355403,None,h,,,,,,,,,,,,,,,,,,,,,,,,,,,,,,,,,,,,,,,,,,,,,,,31_32Exp,001,2021_May_06_1635,ComputerHuman,2020.1.3,60.01649929905279,
Human.xlsx,h,Sychronize.jpg,Number9.jpg,9,Human,,,,,0,8,8,6,0,9,9,7,,,,,,,,,,,,,,,,,,,,,,,,,,,,,1488.3552757740308,None,1488.3552757740308,None,1488.8051843984304,None,1488.8051843984304,None,v,7.397299567934169,1488.8051843984304,None,t,6.329085284854955,1488.8051843984304,None,7.397299567934169,6.329085284854955,9.630417890718817,False,False,False,1496.2709580852734,None,1496.2709580852734,None,1496.2709580852734,None,1496.2709580852734,None,1496.2709580852734,None,1496.2709580852734,None,1496.2709580852734,None,1496.2709580852734,None,1497.2553313660665,None,1497.2553313660665,None,1498.2529094395159,None,1498.2529094395159,None,h,,,,,,,,,,,,,,,,,,,,,,,,,,,,,,,,,,,,,,,,,,,,,,,31_32Exp,001,2021_May_06_1635,ComputerHuman,2020.1.3,60.01649929905279,
Human.xlsx,h,,,,,,,,,0,8,8,6,,,,,,,,,,,,,,,,,,,,,,,,,,,,,,,,,,,,,,,,,,,,,,,,,,,,,,,,,,,,,,,,,,,,,,,,,,,,,,,h,1499.2536193366614,None,1499.2536193366614,None,q,0,3.3484164289384353,1499.2536193366614,None,o,1,5.120145200109619,1499.2536193366614,None,h,h,1504.4519083979267,None,1504.4519083979267,None,1506.4678600723128,None,None,None,None,None,None,None,None,,,,,,,,,,,,,,,,,,31_32Exp,001,2021_May_06_1635,ComputerHuman,2020.1.3,60.01649929905279,
Computer.xlsx,c,Sychronize.jpg,Number9.jpg,9,Computer,,,,,0,9,9,5,0,0,0,7,,,,,,,,,,,,,,,,,,,,,,,,,1511.4539206820664,None,1511.4539206820664,None,1514.5332658829466,None,1514.5332658829466,None,1514.9662697808053,None,1514.9662697808053,None,v,6.539194310043968,1514.9662697808053,None,t,6.793880256742341,1514.9662697808053,None,6.539194310043968,6.793880256742341,8.531214623071692,False,False,False,1521.8313524326568,None,1521.8313524326568,None,1521.8313524326568,None,1521.8313524326568,None,1521.8313524326568,None,1521.8313524326568,None,1521.8313524326568,None,1521.8313524326568,None,1522.8641559040643,None,1522.8641559040643,None,1523.8473599236277,None,1523.8473599236277,None,c,,,,,,,,,,,,,,,,,,,,,,,,,,,,,,,,,,,,,,,,,,,,,,,31_32Exp,001,2021_May_06_1635,ComputerHuman,2020.1.3,60.01649929905279,
Computer.xlsx,c,Sychronize.jpg,Number6.jpg,6,Computer,,,,,0,9,9,5,0,1,1,0,,,,,,,,,,,,,,,,,,,,,,,,,,,,,1524.897652912583,None,1524.897652912583,None,1525.3303527062872,None,1525.3303527062872,None,v,4.190285796958051,1525.3303527062872,None,t,4.477186574635198,1525.3303527062872,None,4.190285796958051,4.477186574635198,5.6832700744355655,False,False,False,1529.8959447325997,None,1529.8959447325997,None,1529.8959447325997,None,1529.8959447325997,None,1529.8959447325997,None,1529.8959447325997,None,1529.8959447325997,None,1529.8959447325997,None,1530.8790217213136,None,1530.8790217213136,None,1531.8621413744295,None,1531.8621413744295,None,c,,,,,,,,,,,,,,,,,,,,,,,,,,,,,,,,,,,,,,,,,,,,,,,31_32Exp,001,2021_May_06_1635,ComputerHuman,2020.1.3,60.01649929905279,
Computer.xlsx,c,Sychronize.jpg,Number8.jpg,8,Computer,,,,,0,9,9,5,0,2,2,5,,,,,,,,,,,,,,,,,,,,,,,,,,,,,1532.9289316930099,None,1532.9289316930099,None,1533.3787145697006,None,1533.3787145697006,None,v,6.713415195519701,1533.3787145697006,None,t,7.0650378702703165,1533.3787145697006,None,6.713415195519701,7.0650378702703165,7.671491067309944,False,False,False,1540.5267590805415,None,1540.5267590805415,None,1540.5267590805415,None,1540.5267590805415,None,1540.5267590805415,None,1540.5267590805415,None,1540.5267590805415,None,1540.5267590805415,None,1541.5267411165823,None,1541.5267411165823,None,1542.493198235812,None,1542.493198235812,None,c,,,,,,,,,,,,,,,,,,,,,,,,,,,,,,,,,,,,,,,,,,,,,,,31_32Exp,001,2021_May_06_1635,ComputerHuman,2020.1.3,60.01649929905279,
Computer.xlsx,c,Sychronize.jpg,Number9.jpg,9,Computer,,,,,0,9,9,5,0,3,3,6,,,,,,,,,,,,,,,,,,,,,,,,,,,,,1543.560322170766,None,1543.560322170766,None,1543.9934668932274,None,1543.9934668932274,None,v,6.866097615509716,1543.9934668932274,None,t,8.237099231302636,1543.9934668932274,None,6.866097615509716,8.237099231302636,8.91979638039666,False,False,False,1552.3079121934552,None,1552.3079121934552,None,1552.3079121934552,None,1552.3079121934552,None,1552.3079121934552,None,1552.3079121934552,None,1552.3079121934552,None,1552.3079121934552,None,1553.3241326856478,None,1553.3241326856478,None,1554.3071737464452,None,1554.3071737464452,None,c,,,,,,,,,,,,,,,,,,,,,,,,,,,,,,,,,,,,,,,,,,,,,,,31_32Exp,001,2021_May_06_1635,ComputerHuman,2020.1.3,60.01649929905279,
Computer.xlsx,c,Sychronize.jpg,Number7.jpg,7,Computer,,,,,0,9,9,5,0,4,4,2,,,,,,,,,,,,,,,,,,,,,,,,,,,,,1555.3581503281803,None,1555.3581503281803,None,1555.807280407449,None,1555.807280407449,None,v,4.999757807345304,1555.807280407449,None,t,7.283000353183525,1555.807280407449,None,4.999757807345304,7.283000353183525,6.8886885066722545,False,False,False,1563.1721277635224,None,1563.1721277635224,None,1563.1721277635224,None,1563.1721277635224,None,1563.1721277635224,None,1563.1721277635224,None,1563.1721277635224,None,1563.1721277635224,None,1564.171555803914,None,1564.171555803914,None,1565.1546674374058,None,1565.1546674374058,None,c,,,,,,,,,,,,,,,,,,,,,,,,,,,,,,,,,,,,,,,,,,,,,,,31_32Exp,001,2021_May_06_1635,ComputerHuman,2020.1.3,60.01649929905279,
Computer.xlsx,c,Sychronize.jpg,Number8.jpg,8,Computer,,,,,0,9,9,5,0,5,5,4,,,,,,,,,,,,,,,,,,,,,,,,,,,,,1566.2216611336607,None,1566.2216611336607,None,1566.6714170644136,None,1566.6714170644136,None,v,6.834899352110369,1566.6714170644136,None,t,7.390029938862426,1566.6714170644136,None,6.834899352110369,7.390029938862426,8.45930217472896,False,False,False,1574.1376600596723,None,1574.1376600596723,None,1574.1376600596723,None,1574.1376600596723,None,1574.1376600596723,None,1574.1376600596723,None,1574.1376600596723,None,1574.1376600596723,None,1575.1525454448056,None,1575.1525454448056,None,1576.1190125083685,None,1576.1190125083685,None,c,,,,,,,,,,,,,,,,,,,,,,,,,,,,,,,,,,,,,,,,,,,,,,,31_32Exp,001,2021_May_06_1635,ComputerHuman,2020.1.3,60.01649929905279,
Computer.xlsx,c,Sychronize.jpg,Number10.jpg,10,Computer,,,,,0,9,9,5,0,6,6,9,,,,,,,,,,,,,,,,,,,,,,,,,,,,,1577.169888684406,None,1577.169888684406,None,1577.6190967144248,None,1577.6190967144248,None,v,8.558602442521078,1577.6190967144248,None,t,10.07374301210075,1577.6190967144248,None,8.558602442521078,10.07374301210075,10.325658826274827,False,False,True,1587.7666786533318,None,1587.7666786533318,None,1587.7666786533318,None,1587.7666786533318,None,1587.7666786533318,None,1587.7666786533318,None,1587.7666786533318,None,1587.7666786533318,None,1588.7828738035132,None,1588.7828738035132,None,1589.765991211134,None,1589.765991211134,None,c,,,,,,,,,,,,,,,,,,,,,,,,,,,,,,,,,,,,,,,,,,,,,,,31_32Exp,001,2021_May_06_1635,ComputerHuman,2020.1.3,60.01649929905279,
Computer.xlsx,c,Sychronize.jpg,Number10.jpg,10,Computer,,,,,0,9,9,5,0,7,7,8,,,,,,,,,,,,,,,,,,,,,,,,,,,,,1590.816048423134,None,1590.816048423134,None,1591.265779653444,None,1591.265779653444,None,v,7.243228790579451,1591.265779653444,None,t,8.6139721744712,1591.265779653444,None,7.243228790579451,8.6139721744712,9.782140437066504,False,False,False,1599.980376941592,None,1599.980376941592,None,1599.980376941592,None,1599.980376941592,None,1599.980376941592,None,1599.980376941592,None,1599.980376941592,None,1599.980376941592,None,1600.963362506589,None,1600.963362506589,None,1601.9466454392568,None,1601.9466454392568,None,c,,,,,,,,,,,,,,,,,,,,,,,,,,,,,,,,,,,,,,,,,,,,,,,31_32Exp,001,2021_May_06_1635,ComputerHuman,2020.1.3,60.01649929905279,
Computer.xlsx,c,Sychronize.jpg,Number7.jpg,7,Computer,,,,,0,9,9,5,0,8,8,3,,,,,,,,,,,,,,,,,,,,,,,,,,,,,1602.9964739315692,None,1602.9964739315692,None,1603.4467229088277,None,1603.4467229088277,None,v,5.889759998304726,1603.4467229088277,None,t,6.845055083591433,1603.4467229088277,None,5.889759998304726,6.845055083591433,7.346798397541898,False,False,False,1610.3620177118228,None,1610.3620177118228,None,1610.3620177118228,None,1610.3620177118228,None,1610.3620177118228,None,1610.3620177118228,None,1610.3620177118228,None,1610.3620177118228,None,1611.3612067674094,None,1611.3612067674094,None,1612.3444130324679,None,1612.3444130324679,None,c,,,,,,,,,,,,,,,,,,,,,,,,,,,,,,,,,,,,,,,,,,,,,,,31_32Exp,001,2021_May_06_1635,ComputerHuman,2020.1.3,60.01649929905279,
Computer.xlsx,c,Sychronize.jpg,Number6.jpg,6,Computer,,,,,0,9,9,5,0,9,9,1,,,,,,,,,,,,,,,,,,,,,,,,,,,,,1613.41088417,None,1613.41088417,None,1613.84441511757,None,1613.84441511757,None,v,5.827463556421208,1613.84441511757,None,t,5.7231170162649505,1613.84441511757,None,5.827463556421208,5.7231170162649505,6.33618824482375,False,False,False,1619.7431144307375,None,1619.7431144307375,None,1619.7431144307375,None,1619.7431144307375,None,1619.7431144307375,None,1619.7431144307375,None,1619.7431144307375,None,1619.7431144307375,None,1620.759136677816,None,1620.759136677816,None,1621.7422447826739,None,1621.7422447826739,None,c,,,,,,,,,,,,,,,,,,,,,,,,,,,,,,,,,,,,,,,,,,,,,,,31_32Exp,001,2021_May_06_1635,ComputerHuman,2020.1.3,60.01649929905279,
Computer.xlsx,c,,,,,,,,,0,9,9,5,,,,,,,,,,,,,,,,,,,,,,,,,,,,,,,,,,,,,,,,,,,,,,,,,,,,,,,,,,,,,,,,,,,,,,,,,,,,,,,c,1622.743364322232,None,1622.743364322232,None,a,1,11.915716956020333,1622.743364322232,None,l,0,4.1351723722018505,1622.743364322232,None,c,c,1634.756331092438,None,1634.756331092438,None,None,None,1636.755635630614,None,1636.755635630614,None,"['space', 'space']",1637.7381477169893,None,"[240.98005583583472, 245.83974288442732]",,,,,,,,,,,,,,,,,31_32Exp,001,2021_May_06_1635,ComputerHuman,2020.1.3,60.01649929905279,
Human.xlsx,h,Sychronize.jpg,Number10.jpg,10,Human,,,,,1,0,10,0,0,0,0,9,,,,,,,,,,,,,,,,,,,,,,,,,1883.6374764102748,None,1883.6374764102748,None,1886.700400628355,None,1886.700400628355,None,1887.1502646636418,None,1887.1502646636418,None,v,6.9030879723941325,1887.1502646636418,None,t,7.838150187035353,1887.1502646636418,None,6.9030879723941325,7.838150187035353,9.48030887665152,False,False,False,1895.0653727697845,None,1895.0653727697845,None,1895.0653727697845,None,1895.0653727697845,None,1895.0653727697845,None,1895.0653727697845,None,1895.0653727697845,None,1895.0653727697845,None,1896.0502390970814,None,1896.0502390970814,None,1897.0478168497448,None,1897.0478168497448,None,h,,,,,,,,,,,,,,,,,,,,,,,,,,,,,,,,,,,,,,,,,,,,,,,31_32Exp,001,2021_May_06_1635,ComputerHuman,2020.1.3,60.01649929905279,
Human.xlsx,h,Sychronize.jpg,Number9.jpg,9,Human,,,,,1,0,10,0,0,1,1,7,,,,,,,,,,,,,,,,,,,,,,,,,,,,,1898.0979510501365,None,1898.0979510501365,None,1898.5478635239579,None,1898.5478635239579,None,v,6.032902273178479,1898.5478635239579,None,t,6.304084907933429,1898.5478635239579,None,6.032902273178479,6.304084907933429,9.06937274902579,True,False,False,1904.9310549687525,None,1904.9310549687525,None,1904.9310549687525,None,1904.9310549687525,None,1904.9310549687525,None,1904.9310549687525,None,1904.9310549687525,None,1904.9310549687525,None,1905.931500859866,None,1905.931500859866,None,1906.9290465340328,None,1906.9290465340328,None,h,,,,,,,,,,,,,,,,,,,,,,,,,,,,,,,,,,,,,,,,,,,,,,,31_32Exp,001,2021_May_06_1635,ComputerHuman,2020.1.3,60.01649929905279,
Human.xlsx,h,Sychronize.jpg,Number10.jpg,10,Human,,,,,1,0,10,0,0,2,2,8,,,,,,,,,,,,,,,,,,,,,,,,,,,,,1907.9802704409794,None,1907.9802704409794,None,1908.4292035582748,None,1908.4292035582748,None,v,6.8509629804502765,1908.4292035582748,None,t,6.89810072840919,1908.4292035582748,None,6.8509629804502765,6.89810072840919,10.36409045679876,True,False,False,1915.3785708580344,None,1915.3785708580344,None,1915.3785708580344,None,1915.3785708580344,None,1915.3785708580344,None,1915.3785708580344,None,1915.3785708580344,None,1915.3785708580344,None,1916.395964781661,None,1916.395964781661,None,1917.3933853496874,None,1917.3933853496874,None,h,,,,,,,,,,,,,,,,,,,,,,,,,,,,,,,,,,,,,,,,,,,,,,,31_32Exp,001,2021_May_06_1635,ComputerHuman,2020.1.3,60.01649929905279,
Human.xlsx,h,Sychronize.jpg,Number8.jpg,8,Human,,,,,1,0,10,0,0,3,3,5,,,,,,,,,,,,,,,,,,,,,,,,,,,,,1918.4436469017146,None,1918.4436469017146,None,1918.8932655365006,None,1918.8932655365006,None,v,5.374502021426451,1918.8932655365006,None,t,5.410181971692509,1918.8932655365006,None,5.374502021426451,5.410181971692509,7.88968973383953,True,False,False,1924.375884283878,None,1924.375884283878,None,1924.375884283878,None,1924.375884283878,None,1924.375884283878,None,1924.375884283878,None,1924.375884283878,None,1924.375884283878,None,1925.3762843027416,None,1925.3762843027416,None,1926.3580117490692,None,1926.3580117490692,None,h,,,,,,,,,,,,,,,,,,,,,,,,,,,,,,,,,,,,,,,,,,,,,,,31_32Exp,001,2021_May_06_1635,ComputerHuman,2020.1.3,60.01649929905279,
Human.xlsx,h,Sychronize.jpg,Number9.jpg,9,Human,,,,,1,0,10,0,0,4,4,6,,,,,,,,,,,,,,,,,,,,,,,,,,,,,1927.4249204373064,None,1927.4249204373064,None,1927.8581556211302,None,1927.8581556211302,None,v,5.801085728820908,1927.8581556211302,None,t,5.9641160304890946,1927.8581556211302,None,5.801085728820908,5.9641160304890946,9.155251801838807,True,False,False,1933.8904317220422,None,1933.8904317220422,None,1933.8904317220422,None,1933.8904317220422,None,1933.8904317220422,None,1933.8904317220422,None,1933.8904317220422,None,1933.8904317220422,None,1934.892181604073,None,1934.892181604073,None,1935.8892650270918,None,1935.8892650270918,None,h,,,,,,,,,,,,,,,,,,,,,,,,,,,,,,,,,,,,,,,,,,,,,,,31_32Exp,001,2021_May_06_1635,ComputerHuman,2020.1.3,60.01649929905279,
Human.xlsx,h,Sychronize.jpg,Number7.jpg,7,Human,,,,,1,0,10,0,0,5,5,2,,,,,,,,,,,,,,,,,,,,,,,,,,,,,1936.9564284185963,None,1936.9564284185963,None,1937.3891599700128,None,1937.3891599700128,None,v,9.517345324700727,1937.3891599700128,None,None,,1937.3891599700128,None,9.517345324700727,13,7.297638441795484,False,False,False,1950.4536454485587,None,1950.4536454485587,None,1950.4536454485587,None,1950.4536454485587,None,1950.4536454485587,None,1950.4536454485587,None,1950.4536454485587,None,1950.4536454485587,None,1951.454077225133,None,1951.454077225133,None,1952.45211305874,None,1952.45211305874,None,h,,,,,,,,,,,,,,,,,,,,,,,,,,,,,,,,,,,,,,,,,,,,,,,31_32Exp,001,2021_May_06_1635,ComputerHuman,2020.1.3,60.01649929905279,
Human.xlsx,h,Sychronize.jpg,Number6.jpg,6,Human,,,,,1,0,10,0,0,6,6,0,,,,,,,,,,,,,,,,,,,,,,,,,,,,,1953.5024974714124,None,1953.5024974714124,None,1953.9526207009603,None,1953.9526207009603,None,v,4.165269060002174,1953.9526207009603,None,t,3.908224702176085,1953.9526207009603,None,4.165269060002174,3.908224702176085,5.926076329212896,True,False,False,1958.185203279836,None,1958.185203279836,None,1958.185203279836,None,1958.185203279836,None,1958.185203279836,None,1958.185203279836,None,1958.185203279836,None,1958.185203279836,None,1959.1870811550707,None,1959.1870811550707,None,1960.1671895996387,None,1960.1671895996387,None,h,,,,,,,,,,,,,,,,,,,,,,,,,,,,,,,,,,,,,,,,,,,,,,,31_32Exp,001,2021_May_06_1635,ComputerHuman,2020.1.3,60.01649929905279,
Human.xlsx,h,Sychronize.jpg,Number6.jpg,6,Human,,,,,1,0,10,0,0,7,7,1,,,,,,,,,,,,,,,,,,,,,,,,,,,,,1961.2174598128604,None,1961.2174598128604,None,1961.6672151020448,None,1961.6672151020448,None,v,3.918293821712723,1961.6672151020448,None,t,3.6771931186485745,1961.6672151020448,None,3.918293821712723,3.6771931186485745,6.314720327835235,True,False,False,1965.6497820426503,None,1965.6497820426503,None,1965.6497820426503,None,1965.6497820426503,None,1965.6497820426503,None,1965.6497820426503,None,1965.6497820426503,None,1965.6497820426503,None,1966.6672218385265,None,1966.6672218385265,None,1967.6655954587131,None,1967.6655954587131,None,h,,,,,,,,,,,,,,,,,,,,,,,,,,,,,,,,,,,,,,,,,,,,,,,31_32Exp,001,2021_May_06_1635,ComputerHuman,2020.1.3,60.01649929905279,
Human.xlsx,h,Sychronize.jpg,Number8.jpg,8,Human,,,,,1,0,10,0,0,8,8,4,,,,,,,,,,,,,,,,,,,,,,,,,,,,,1968.7157540387652,None,1968.7157540387652,None,1969.1655750888658,None,1969.1655750888658,None,v,5.411505851279799,1969.1655750888658,None,t,4.850931222739746,1969.1655750888658,None,5.411505851279799,4.850931222739746,7.648759349656416,False,False,False,1974.6639693996822,None,1974.6639693996822,None,1974.6639693996822,None,1974.6639693996822,None,1974.6639693996822,None,1974.6639693996822,None,1974.6639693996822,None,1974.6639693996822,None,1975.6486009123782,None,1975.6486009123782,None,1976.6302289153664,None,1976.6302289153664,None,h,,,,,,,,,,,,,,,,,,,,,,,,,,,,,,,,,,,,,,,,,,,,,,,31_32Exp,001,2021_May_06_1635,ComputerHuman,2020.1.3,60.01649929905279,
Human.xlsx,h,Sychronize.jpg,Number7.jpg,7,Human,,,,,1,0,10,0,0,9,9,3,,,,,,,,,,,,,,,,,,,,,,,,,,,,,1977.6972068931555,None,1977.6972068931555,None,1978.130661173118,None,1978.130661173118,None,v,4.8899434873128484,1978.130661173118,None,t,4.793054235437012,1978.130661173118,None,4.8899434873128484,4.793054235437012,6.739126505186615,True,False,False,1983.0965290103504,None,1983.0965290103504,None,1983.0965290103504,None,1983.0965290103504,None,1983.0965290103504,None,1983.0965290103504,None,1983.0965290103504,None,1983.0965290103504,None,1984.0960478328907,None,1984.0960478328907,None,1985.0951053666377,None,1985.0951053666377,None,h,,,,,,,,,,,,,,,,,,,,,,,,,,,,,,,,,,,,,,,,,,,,,,,31_32Exp,001,2021_May_06_1635,ComputerHuman,2020.1.3,60.01649929905279,
Human.xlsx,h,,,,,,,,,1,0,10,0,,,,,,,,,,,,,,,,,,,,,,,,,,,,,,,,,,,,,,,,,,,,,,,,,,,,,,,,,,,,,,,,,,,,,,,,,,,,,,,h,1986.0961979602562,None,1986.0961979602562,None,a,0,5.447956327050633,1986.0961979602562,None,l,0,3.707244896551856,1986.0961979602562,None,c,c,1991.6274637488914,None,1991.6274637488914,None,1993.609744228519,None,None,None,None,None,None,None,None,,,,,,,,,,,,,,,,,,31_32Exp,001,2021_May_06_1635,ComputerHuman,2020.1.3,60.01649929905279,
Computer.xlsx,c,Sychronize.jpg,Number6.jpg,6,Computer,,,,,1,1,11,1,0,0,0,1,,,,,,,,,,,,,,,,,,,,,,,,,1998.6110892799134,None,1998.6110892799134,None,2001.692407308381,None,2001.692407308381,None,2002.141778297164,None,2002.141778297164,None,v,3.5776118392750504,2002.141778297164,None,t,3.9895581283235515,2002.141778297164,None,3.5776118392750504,3.9895581283235515,6.081766201786266,False,False,False,2006.2087636530105,None,2006.2087636530105,None,2006.2087636530105,None,2006.2087636530105,None,2006.2087636530105,None,2006.2087636530105,None,2006.2087636530105,None,2006.2087636530105,None,2007.2234171106084,None,2007.2234171106084,None,2008.2065871269642,None,2008.2065871269642,None,c,,,,,,,,,,,,,,,,,,,,,,,,,,,,,,,,,,,,,,,,,,,,,,,31_32Exp,001,2021_May_06_1635,ComputerHuman,2020.1.3,60.01649929905279,
Computer.xlsx,c,Sychronize.jpg,Number7.jpg,7,Computer,,,,,1,1,11,1,0,1,1,2,,,,,,,,,,,,,,,,,,,,,,,,,,,,,2009.2408912304763,None,2009.2408912304763,None,2009.6897467178078,None,2009.6897467178078,None,v,4.7972170620378165,2009.6897467178078,None,t,5.7521089206129545,2009.6897467178078,None,4.7972170620378165,5.7521089206129545,7.319250560491229,False,False,False,2015.505383894606,None,2015.505383894606,None,2015.505383894606,None,2015.505383894606,None,2015.505383894606,None,2015.505383894606,None,2015.505383894606,None,2015.505383894606,None,2016.5378659394682,None,2016.5378659394682,None,2017.521193461247,None,2017.521193461247,None,c,,,,,,,,,,,,,,,,,,,,,,,,,,,,,,,,,,,,,,,,,,,,,,,31_32Exp,001,2021_May_06_1635,ComputerHuman,2020.1.3,60.01649929905279,
Computer.xlsx,c,Sychronize.jpg,Number9.jpg,9,Computer,,,,,1,1,11,1,0,2,2,6,,,,,,,,,,,,,,,,,,,,,,,,,,,,,2018.57120961277,None,2018.57120961277,None,2019.020910047724,None,2019.020910047724,None,v,7.893393208920315,2019.020910047724,None,t,9.492935512920667,2019.020910047724,None,7.893393208920315,9.492935512920667,8.904129116268098,False,False,False,2028.6018391244124,None,2028.6018391244124,None,2028.6018391244124,None,2028.6018391244124,None,2028.6018391244124,None,2028.6018391244124,None,2028.6018391244124,None,2028.6018391244124,None,2029.5849453045576,None,2029.5849453045576,None,2030.56828341224,None,2030.56828341224,None,c,,,,,,,,,,,,,,,,,,,,,,,,,,,,,,,,,,,,,,,,,,,,,,,31_32Exp,001,2021_May_06_1635,ComputerHuman,2020.1.3,60.01649929905279,
Computer.xlsx,c,Sychronize.jpg,Number9.jpg,9,Computer,,,,,1,1,11,1,0,3,3,7,,,,,,,,,,,,,,,,,,,,,,,,,,,,,2031.618640878978,None,2031.618640878978,None,2032.0682662502459,None,2032.0682662502459,None,v,7.9172570446789905,2032.0682662502459,None,t,7.860986548523215,2032.0682662502459,None,7.9172570446789905,7.860986548523215,8.802985668800847,False,False,False,2040.0681023291236,None,2040.0681023291236,None,2040.0681023291236,None,2040.0681023291236,None,2040.0681023291236,None,2040.0681023291236,None,2040.0681023291236,None,2040.0681023291236,None,2041.0825848083314,None,2041.0825848083314,None,2042.0490281338043,None,2042.0490281338043,None,c,,,,,,,,,,,,,,,,,,,,,,,,,,,,,,,,,,,,,,,,,,,,,,,31_32Exp,001,2021_May_06_1635,ComputerHuman,2020.1.3,60.01649929905279,
Computer.xlsx,c,Sychronize.jpg,Number7.jpg,7,Computer,,,,,1,1,11,1,0,4,4,3,,,,,,,,,,,,,,,,,,,,,,,,,,,,,2043.1162162257551,None,2043.1162162257551,None,2043.5488509001061,None,2043.5488509001061,None,v,6.2202371691601,2043.5488509001061,None,t,5.819084332120838,2043.5488509001061,None,6.2202371691601,5.819084332120838,7.003513958769184,False,False,False,2049.8639913413735,None,2049.8639913413735,None,2049.8639913413735,None,2049.8639913413735,None,2049.8639913413735,None,2049.8639913413735,None,2049.8639913413735,None,2049.8639913413735,None,2050.863727656126,None,2050.863727656126,None,2051.846870726544,None,2051.846870726544,None,c,,,,,,,,,,,,,,,,,,,,,,,,,,,,,,,,,,,,,,,,,,,,,,,31_32Exp,001,2021_May_06_1635,ComputerHuman,2020.1.3,60.01649929905279,
Computer.xlsx,c,Sychronize.jpg,Number8.jpg,8,Computer,,,,,1,1,11,1,0,5,5,4,,,,,,,,,,,,,,,,,,,,,,,,,,,,,2052.8628580080604,None,2052.8628580080604,None,2053.347028713144,None,2053.347028713144,None,v,6.869510446842469,2053.347028713144,None,t,7.760962265099806,2053.347028713144,None,6.869510446842469,7.760962265099806,7.854910946498293,False,False,True,2061.1789883917536,None,2061.1789883917536,None,2061.1789883917536,None,2061.1789883917536,None,2061.1789883917536,None,2061.1789883917536,None,2061.1789883917536,None,2061.1789883917536,None,2062.177912799738,None,2062.177912799738,None,2063.1610478505336,None,2063.1610478505336,None,c,,,,,,,,,,,,,,,,,,,,,,,,,,,,,,,,,,,,,,,,,,,,,,,31_32Exp,001,2021_May_06_1635,ComputerHuman,2020.1.3,60.01649929905279,
Computer.xlsx,c,Sychronize.jpg,Number6.jpg,6,Computer,,,,,1,1,11,1,0,6,6,0,,,,,,,,,,,,,,,,,,,,,,,,,,,,,2064.2107493119966,None,2064.2107493119966,None,2064.6610393497303,None,2064.6610393497303,None,v,5.0069587884318025,2064.6610393497303,None,t,5.402184160728211,2064.6610393497303,None,5.0069587884318025,5.402184160728211,5.6587579234616445,False,False,True,2070.143254870398,None,2070.143254870398,None,2070.143254870398,None,2070.143254870398,None,2070.143254870398,None,2070.143254870398,None,2070.143254870398,None,2070.143254870398,None,2071.159257228808,None,2071.159257228808,None,2072.125283533818,None,2072.125283533818,None,c,,,,,,,,,,,,,,,,,,,,,,,,,,,,,,,,,,,,,,,,,,,,,,,31_32Exp,001,2021_May_06_1635,ComputerHuman,2020.1.3,60.01649929905279,
Computer.xlsx,c,Sychronize.jpg,Number10.jpg,10,Computer,,,,,1,1,11,1,0,7,7,9,,,,,,,,,,,,,,,,,,,,,,,,,,,,,2073.1924876650173,None,2073.1924876650173,None,2073.642161474816,None,2073.642161474816,None,v,8.537207047131233,2073.642161474816,None,t,8.464883508542698,2073.642161474816,None,8.537207047131233,8.464883508542698,9.8869539396265,False,False,False,2082.2405633882354,None,2082.2405633882354,None,2082.2405633882354,None,2082.2405633882354,None,2082.2405633882354,None,2082.2405633882354,None,2082.2405633882354,None,2082.2405633882354,None,2083.2731269124797,None,2083.2731269124797,None,2084.256395409824,None,2084.256395409824,None,c,,,,,,,,,,,,,,,,,,,,,,,,,,,,,,,,,,,,,,,,,,,,,,,31_32Exp,001,2021_May_06_1635,ComputerHuman,2020.1.3,60.01649929905279,
Computer.xlsx,c,Sychronize.jpg,Number8.jpg,8,Computer,,,,,1,1,11,1,0,8,8,5,,,,,,,,,,,,,,,,,,,,,,,,,,,,,2085.307062113274,None,2085.307062113274,None,2085.7563840219573,None,2085.7563840219573,None,v,7.6343285473303695,2085.7563840219573,None,t,7.465991820623458,2085.7563840219573,None,7.6343285473303695,7.465991820623458,7.510088656686687,False,True,True,2093.4876576377446,None,2093.4876576377446,None,2093.4876576377446,None,2093.4876576377446,None,2093.4876576377446,None,2093.4876576377446,None,2093.4876576377446,None,2093.4876576377446,None,2094.470592197931,None,2094.470592197931,None,2095.453860374493,None,2095.453860374493,None,c,,,,,,,,,,,,,,,,,,,,,,,,,,,,,,,,,,,,,,,,,,,,,,,31_32Exp,001,2021_May_06_1635,ComputerHuman,2020.1.3,60.01649929905279,
Computer.xlsx,c,Sychronize.jpg,Number10.jpg,10,Computer,,,,,1,1,11,1,0,9,9,8,,,,,,,,,,,,,,,,,,,,,,,,,,,,,2096.5043381355918,None,2096.5043381355918,None,2096.953827173247,None,2096.953827173247,None,v,7.808399947003636,2096.953827173247,None,t,7.760017232569226,2096.953827173247,None,7.808399947003636,7.760017232569226,10.60157089826134,False,False,False,2104.8366675188863,None,2104.8366675188863,None,2104.8366675188863,None,2104.8366675188863,None,2104.8366675188863,None,2104.8366675188863,None,2104.8366675188863,None,2104.8366675188863,None,2105.8515525832354,None,2105.8515525832354,None,2106.8347036732757,None,2106.8347036732757,None,c,,,,,,,,,,,,,,,,,,,,,,,,,,,,,,,,,,,,,,,,,,,,,,,31_32Exp,001,2021_May_06_1635,ComputerHuman,2020.1.3,60.01649929905279,
Computer.xlsx,c,,,,,,,,,1,1,11,1,,,,,,,,,,,,,,,,,,,,,,,,,,,,,,,,,,,,,,,,,,,,,,,,,,,,,,,,,,,,,,,,,,,,,,,,,,,,,,,c,2107.8353112400164,None,2107.8353112400164,None,q,0,2.9585366174433148,2107.8353112400164,None,o,0,4.566213066020282,2107.8353112400164,None,h,h,2112.4666083693464,None,2112.4666083693464,None,2114.466276998466,None,None,None,None,None,None,None,None,,,,,,,,,,,,,,,,,,31_32Exp,001,2021_May_06_1635,ComputerHuman,2020.1.3,60.01649929905279,
