Condition,CorrectTuringReply,Sychronize,NumberImage,Number,Partner,trials.thisRepN,trials.thisTrialN,trials.thisN,trials.thisIndex,Block.thisRepN,Block.thisTrialN,Block.thisN,Block.thisIndex,trials_loop.thisRepN,trials_loop.thisTrialN,trials_loop.thisN,trials_loop.thisIndex,key_resp_Istr.keys,key_resp_Istr.rt,key_resp_Istr.started,key_resp_Istr.stopped,key_respPrLeft.keys,key_respPrLeft.rt,key_respPrRight.keys,key_respPrRight.rt,RTPrLeft,RTPrRight,CompPr,SychronizedRTsPr,SychronizedRTsLeftCPr,SychronizedRTsRightCPr,CreditLeftPr.started,CreditLeftPr.stopped,CreditRightPr.started,CreditRightPr.stopped,text_StartExp.started,text_StartExp.stopped,key_startExp.keys,key_startExp.rt,key_startExp.started,key_startExp.stopped,SychroLeft.started,SychroLeft.stopped,SychroRight.started,SychroRight.stopped,NumberLeft.started,NumberLeft.stopped,NumberRight.started,NumberRight.stopped,CrossLeft.started,CrossLeft.stopped,CrossRight.started,CrossRight.stopped,key_respLeft.keys,key_respLeft.rt,key_respLeft.started,key_respLeft.stopped,key_respRight.keys,key_respRight.rt,key_respRight.started,key_respRight.stopped,RTLeft,RTRight,Comp,SychronizedRTs,SychronizedRTsLeftC,SychronizedRTsRightC,FeedbackLeftLeft.started,FeedbackLeftLeft.stopped,FeedbackLeftRight.started,FeedbackLeftRight.stopped,FeedbackRightLeft.started,FeedbackRightLeft.stopped,FeedbackRightRight.started,FeedbackRightRight.stopped,textLeftLeft.started,textLeftLeft.stopped,textLeftRight.started,textLeftRight.stopped,textRightLeft.started,textRightLeft.stopped,textRightRight.started,textRightRight.stopped,CreditLeft.started,CreditLeft.stopped,CreditRight.started,CreditRight.stopped,BlankLeft.started,BlankLeft.stopped,BlankRight.started,BlankRight.stopped,CorrectTuringReply,TuringtextLeft.started,TuringtextLeft.stopped,TuringtextRight.started,TuringtextRight.stopped,keyTuringLeft.keys,keyTuringLeft.corr,keyTuringLeft.rt,keyTuringLeft.started,keyTuringLeft.stopped,keyTuringRight.keys,keyTuringRight.corr,keyTuringRight.rt,keyTuringRight.started,keyTuringRight.stopped,RespTuringLeft,RespTuringRight,ScoreLeft.started,ScoreLeft.stopped,ScoreRight.started,ScoreRight.stopped,BlockText.started,BlockText.stopped,text_Pause.started,text_Pause.stopped,text_LongPause.started,text_LongPause.stopped,key_respPause.keys,key_respPause.started,key_respPause.stopped,key_respPause.rt,QuestImageLeft.started,QuestImageLeft.stopped,QuestImageRight.started,QuestImageRight.stopped,respQuestLeft.keys,respQuestLeft.rt,respQuestLeft.started,respQuestLeft.stopped,respQuestRight.keys,respQuestRight.rt,respQuestRight.started,respQuestRight.stopped,RespInclusionLeft,RespInclusionRight,EndText.started,EndText.stopped,participant,session,date,expName,psychopyVersion,frameRate,
,,,,,,,,,,,,,,,,,,"['t', 'v']","[2.2276252465571815, 2.711597465990053]",22.40298566351521,None,,,,,,,,,,,,,,,,,,,,,,,,,,,,,,,,,,,,,,,,,,,,,,,,,,,,,,,,,,,,,,,,,,,,,,,,,,,,,,,,,,,,,,,,,,,,,,,,,,,,,,,,,,,,,,,,,,,,,,33_34ExpCorr,001,2021_May_10_1210,ComputerHuman,2020.1.3,60.0363789028746,
,,,,,,,,,,,,,,,,,,,,,,v,3.9044597939773666,t,5.419288189537838,3.9044597939773666,5.419288189537838,9,False,False,False,70.54108559259203,None,70.54108559259203,None,71.54085880328967,None,"['space', 'space']","[1.0389310942246084, 1.2231561821254218]",72.52390125074089,None,,,,,,,,,,,,,,,,,,,,,,,,,,,,,,,,,,,,,,,,,,,,,,,,,,,,,,,,,,,,,,,,,,,,,,,,,,,,,,,,,,,,,,,,,,,,,,,,,,33_34ExpCorr,001,2021_May_10_1210,ComputerHuman,2020.1.3,60.0363789028746,
Human.xlsx,h,Sychronize.jpg,Number6.jpg,6,Human,,,,,0,0,0,6,0,0,0,0,,,,,,,,,,,,,,,,,,,,,,,,,73.82603624587045,None,73.82603624587045,None,76.88978104086345,None,76.88978104086345,None,77.32351028779794,None,77.32351028779794,None,v,2.8467125655706695,77.32351028779794,None,t,3.221471782374465,77.32351028779794,None,2.8467125655706695,3.221471782374465,5.6386586673285555,False,False,False,80.62256582423106,None,80.62256582423106,None,80.62256582423106,None,80.62256582423106,None,80.62256582423106,None,80.62256582423106,None,80.62256582423106,None,80.62256582423106,None,81.62492545945679,None,81.62492545945679,None,82.63810073101831,None,82.63810073101831,None,h,,,,,,,,,,,,,,,,,,,,,,,,,,,,,,,,,,,,,,,,,,,,,,,33_34ExpCorr,001,2021_May_10_1210,ComputerHuman,2020.1.3,60.0363789028746,
Human.xlsx,h,Sychronize.jpg,Number7.jpg,7,Human,,,,,0,0,0,6,0,1,1,2,,,,,,,,,,,,,,,,,,,,,,,,,,,,,83.68831900369241,None,83.68831900369241,None,84.12112697923385,None,84.12112697923385,None,v,3.2925476137243095,84.12112697923385,None,t,4.151343846904638,84.12112697923385,None,3.2925476137243095,4.151343846904638,7.452780453576115,False,False,False,88.3703684219472,None,88.3703684219472,None,88.3703684219472,None,88.3703684219472,None,88.3703684219472,None,88.3703684219472,None,88.3703684219472,None,88.3703684219472,None,89.35549848577193,None,89.35549848577193,None,90.35281005417528,None,90.35281005417528,None,h,,,,,,,,,,,,,,,,,,,,,,,,,,,,,,,,,,,,,,,,,,,,,,,33_34ExpCorr,001,2021_May_10_1210,ComputerHuman,2020.1.3,60.0363789028746,
Human.xlsx,h,Sychronize.jpg,Number8.jpg,8,Human,,,,,0,0,0,6,0,2,2,4,,,,,,,,,,,,,,,,,,,,,,,,,,,,,91.40243745571206,None,91.40243745571206,None,91.8527649850148,None,91.8527649850148,None,v,3.368260596625987,91.8527649850148,None,t,3.199472257765592,91.8527649850148,None,3.368260596625987,3.199472257765592,8.16855329920833,True,False,False,95.30306268206095,None,95.30306268206095,None,95.30306268206095,None,95.30306268206095,None,95.30306268206095,None,95.30306268206095,None,95.30306268206095,None,95.30306268206095,None,96.30387553084529,None,96.30387553084529,None,97.28445761911007,None,97.28445761911007,None,h,,,,,,,,,,,,,,,,,,,,,,,,,,,,,,,,,,,,,,,,,,,,,,,33_34ExpCorr,001,2021_May_10_1210,ComputerHuman,2020.1.3,60.0363789028746,
Human.xlsx,h,Sychronize.jpg,Number10.jpg,10,Human,,,,,0,0,0,6,0,3,3,9,,,,,,,,,,,,,,,,,,,,,,,,,,,,,98.35115356201914,None,98.35115356201914,None,98.78441928626489,None,98.78441928626489,None,v,4.464039139919805,98.78441928626489,None,t,5.151313693871998,98.78441928626489,None,4.464039139919805,5.151313693871998,10.342545775462304,False,False,False,104.03277698848797,None,104.03277698848797,None,104.03277698848797,None,104.03277698848797,None,104.03277698848797,None,104.03277698848797,None,104.03277698848797,None,104.03277698848797,None,105.01825477452348,None,105.01825477452348,None,106.01561253480759,None,106.01561253480759,None,h,,,,,,,,,,,,,,,,,,,,,,,,,,,,,,,,,,,,,,,,,,,,,,,33_34ExpCorr,001,2021_May_10_1210,ComputerHuman,2020.1.3,60.0363789028746,
Human.xlsx,h,Sychronize.jpg,Number6.jpg,6,Human,,,,,0,0,0,6,0,4,4,1,,,,,,,,,,,,,,,,,,,,,,,,,,,,,107.06540289103395,None,107.06540289103395,None,107.51559152391746,None,107.51559152391746,None,v,2.3564848748856093,107.51559152391746,None,t,2.491486098650057,107.51559152391746,None,2.3564848748856093,2.491486098650057,6.272026892541555,True,False,False,110.08285379852805,None,110.08285379852805,None,110.08285379852805,None,110.08285379852805,None,110.08285379852805,None,110.08285379852805,None,110.08285379852805,None,110.08285379852805,None,111.0837972035306,None,111.0837972035306,None,112.06415955958528,None,112.06415955958528,None,h,,,,,,,,,,,,,,,,,,,,,,,,,,,,,,,,,,,,,,,,,,,,,,,33_34ExpCorr,001,2021_May_10_1210,ComputerHuman,2020.1.3,60.0363789028746,
Human.xlsx,h,Sychronize.jpg,Number7.jpg,7,Human,,,,,0,0,0,6,0,5,5,3,,,,,,,,,,,,,,,,,,,,,,,,,,,,,113.13165167087845,None,113.13165167087845,None,113.56415971997376,None,113.56415971997376,None,v,3.2152881651591088,113.56415971997376,None,t,3.242462784261079,113.56415971997376,None,3.2152881651591088,3.242462784261079,7.234363225976362,True,False,False,116.89659370167283,None,116.89659370167283,None,116.89659370167283,None,116.89659370167283,None,116.89659370167283,None,116.89659370167283,None,116.89659370167283,None,116.89659370167283,None,117.8651713542331,None,117.8651713542331,None,118.86250826401556,None,118.86250826401556,None,h,,,,,,,,,,,,,,,,,,,,,,,,,,,,,,,,,,,,,,,,,,,,,,,33_34ExpCorr,001,2021_May_10_1210,ComputerHuman,2020.1.3,60.0363789028746,
Human.xlsx,h,Sychronize.jpg,Number9.jpg,9,Human,,,,,0,0,0,6,0,6,6,6,,,,,,,,,,,,,,,,,,,,,,,,,,,,,119.929227302865,None,119.929227302865,None,120.3792930781783,None,120.3792930781783,None,v,4.031559639972329,120.3792930781783,None,t,4.566349664194604,120.3792930781783,None,4.031559639972329,4.566349664194604,9.18445266530098,False,False,False,125.02783606116645,None,125.02783606116645,None,125.02783606116645,None,125.02783606116645,None,125.02783606116645,None,125.02783606116645,None,125.02783606116645,None,125.02783606116645,None,126.02926127314367,None,126.02926127314367,None,127.02718263852512,None,127.02718263852512,None,h,,,,,,,,,,,,,,,,,,,,,,,,,,,,,,,,,,,,,,,,,,,,,,,33_34ExpCorr,001,2021_May_10_1210,ComputerHuman,2020.1.3,60.0363789028746,
Human.xlsx,h,Sychronize.jpg,Number8.jpg,8,Human,,,,,0,0,0,6,0,7,7,5,,,,,,,,,,,,,,,,,,,,,,,,,,,,,128.07713883643282,None,128.07713883643282,None,128.51076415163607,None,128.51076415163607,None,v,3.6554682365067492,128.51076415163607,None,t,4.002375674072937,128.51076415163607,None,3.6554682365067492,4.002375674072937,8.165170384422742,False,False,False,132.5931441626126,None,132.5931441626126,None,132.5931441626126,None,132.5931441626126,None,132.5931441626126,None,132.5931441626126,None,132.5931441626126,None,132.5931441626126,None,133.57784727232138,None,133.57784727232138,None,134.57529613325823,None,134.57529613325823,None,h,,,,,,,,,,,,,,,,,,,,,,,,,,,,,,,,,,,,,,,,,,,,,,,33_34ExpCorr,001,2021_May_10_1210,ComputerHuman,2020.1.3,60.0363789028746,
Human.xlsx,h,Sychronize.jpg,Number10.jpg,10,Human,,,,,0,0,0,6,0,8,8,8,,,,,,,,,,,,,,,,,,,,,,,,,,,,,135.65889541741217,None,135.65889541741217,None,136.0920687578964,None,136.0920687578964,None,v,4.6174337138490955,136.0920687578964,None,t,4.28842210140283,136.0920687578964,None,4.6174337138490955,4.28842210140283,10.221236525265391,False,False,False,140.80709629178637,None,140.80709629178637,None,140.80709629178637,None,140.80709629178637,None,140.80709629178637,None,140.80709629178637,None,140.80709629178637,None,140.80709629178637,None,141.79238963107764,None,141.79238963107764,None,142.7899376120913,None,142.7899376120913,None,h,,,,,,,,,,,,,,,,,,,,,,,,,,,,,,,,,,,,,,,,,,,,,,,33_34ExpCorr,001,2021_May_10_1210,ComputerHuman,2020.1.3,60.0363789028746,
Human.xlsx,h,Sychronize.jpg,Number9.jpg,9,Human,,,,,0,0,0,6,0,9,9,7,,,,,,,,,,,,,,,,,,,,,,,,,,,,,143.84002083766973,None,143.84002083766973,None,144.28998460591356,None,144.28998460591356,None,v,3.826924477238208,144.28998460591356,None,t,3.9944056500371516,144.28998460591356,None,3.826924477238208,3.9944056500371516,9.369910577246655,True,False,False,148.3569419820351,None,148.3569419820351,None,148.3569419820351,None,148.3569419820351,None,148.3569419820351,None,148.3569419820351,None,148.3569419820351,None,148.3569419820351,None,149.34018716051742,None,149.34018716051742,None,150.33804918216265,None,150.33804918216265,None,h,,,,,,,,,,,,,,,,,,,,,,,,,,,,,,,,,,,,,,,,,,,,,,,33_34ExpCorr,001,2021_May_10_1210,ComputerHuman,2020.1.3,60.0363789028746,
Human.xlsx,h,,,,,,,,,0,0,0,6,,,,,,,,,,,,,,,,,,,,,,,,,,,,,,,,,,,,,,,,,,,,,,,,,,,,,,,,,,,,,,,,,,,,,,,,,,,,,,,h,151.3390840085949,None,151.3390840085949,None,q,0,4.10129237824367,151.3390840085949,None,o,1,4.844331117512411,151.3390840085949,None,h,h,156.28706457336102,None,156.28706457336102,None,158.26943371000016,None,None,None,None,None,None,None,None,,,,,,,,,,,,,,,,,,33_34ExpCorr,001,2021_May_10_1210,ComputerHuman,2020.1.3,60.0363789028746,
Computer.xlsx,c,Sychronize.jpg,Number8.jpg,8,Computer,,,,,0,1,1,7,0,0,0,4,,,,,,,,,,,,,,,,,,,,,,,,,163.27136222100762,None,163.27136222100762,None,166.35087608995946,None,166.35087608995946,None,166.7674389585527,None,166.7674389585527,None,v,3.5477616024227245,166.7674389585527,None,t,3.443390727813494,166.7674389585527,None,3.5477616024227245,3.443390727813494,8.355185843270405,False,False,False,170.38338939979712,None,170.38338939979712,None,170.38338939979712,None,170.38338939979712,None,170.38338939979712,None,170.38338939979712,None,170.38338939979712,None,170.38338939979712,None,171.3994176615297,None,171.3994176615297,None,172.39928806764237,None,172.39928806764237,None,c,,,,,,,,,,,,,,,,,,,,,,,,,,,,,,,,,,,,,,,,,,,,,,,33_34ExpCorr,001,2021_May_10_1210,ComputerHuman,2020.1.3,60.0363789028746,
Computer.xlsx,c,Sychronize.jpg,Number10.jpg,10,Computer,,,,,0,1,1,7,0,1,1,8,,,,,,,,,,,,,,,,,,,,,,,,,,,,,173.46543259497957,None,173.46543259497957,None,173.8993437224426,None,173.8993437224426,None,v,4.367210372900445,173.8993437224426,None,t,4.994228260385171,173.8993437224426,None,4.367210372900445,4.994228260385171,9.377361114383401,False,False,False,178.9808990158881,None,178.9808990158881,None,178.9808990158881,None,178.9808990158881,None,178.9808990158881,None,178.9808990158881,None,178.9808990158881,None,178.9808990158881,None,179.96406945334093,None,179.96406945334093,None,180.94717156530442,None,180.94717156530442,None,c,,,,,,,,,,,,,,,,,,,,,,,,,,,,,,,,,,,,,,,,,,,,,,,33_34ExpCorr,001,2021_May_10_1210,ComputerHuman,2020.1.3,60.0363789028746,
Computer.xlsx,c,Sychronize.jpg,Number7.jpg,7,Computer,,,,,0,1,1,7,0,2,2,3,,,,,,,,,,,,,,,,,,,,,,,,,,,,,181.99792874324976,None,181.99792874324976,None,182.44732152852703,None,182.44732152852703,None,v,2.806873993361478,182.44732152852703,None,t,4.141260223562313,182.44732152852703,None,2.806873993361478,4.141260223562313,6.962471926530735,False,False,False,186.66224689495903,None,186.66224689495903,None,186.66224689495903,None,186.66224689495903,None,186.66224689495903,None,186.66224689495903,None,186.66224689495903,None,186.66224689495903,None,187.67880475943093,None,187.67880475943093,None,188.66192708034214,None,188.66192708034214,None,c,,,,,,,,,,,,,,,,,,,,,,,,,,,,,,,,,,,,,,,,,,,,,,,33_34ExpCorr,001,2021_May_10_1210,ComputerHuman,2020.1.3,60.0363789028746,
Computer.xlsx,c,Sychronize.jpg,Number9.jpg,9,Computer,,,,,0,1,1,7,0,3,3,6,,,,,,,,,,,,,,,,,,,,,,,,,,,,,189.71205008226298,None,189.71205008226298,None,190.161684091805,None,190.161684091805,None,v,3.843678977978925,190.161684091805,None,t,4.919275518848735,190.161684091805,None,3.843678977978925,4.919275518848735,8.826879628125187,False,False,False,195.17686486084222,None,195.17686486084222,None,195.17686486084222,None,195.17686486084222,None,195.17686486084222,None,195.17686486084222,None,195.17686486084222,None,195.17686486084222,None,196.16012222884729,None,196.16012222884729,None,197.14327823133863,None,197.14327823133863,None,c,,,,,,,,,,,,,,,,,,,,,,,,,,,,,,,,,,,,,,,,,,,,,,,33_34ExpCorr,001,2021_May_10_1210,ComputerHuman,2020.1.3,60.0363789028746,
Computer.xlsx,c,Sychronize.jpg,Number8.jpg,8,Computer,,,,,0,1,1,7,0,4,4,5,,,,,,,,,,,,,,,,,,,,,,,,,,,,,198.21026960981635,None,198.21026960981635,None,198.64335120809392,None,198.64335120809392,None,v,3.4373572342101397,198.64335120809392,None,t,4.62831992111478,198.64335120809392,None,3.4373572342101397,4.62831992111478,8.105724087399782,False,False,False,203.35828218812185,None,203.35828218812185,None,203.35828218812185,None,203.35828218812185,None,203.35828218812185,None,203.35828218812185,None,203.35828218812185,None,203.35828218812185,None,204.3579222763865,None,204.3579222763865,None,205.34113666028134,None,205.34113666028134,None,c,,,,,,,,,,,,,,,,,,,,,,,,,,,,,,,,,,,,,,,,,,,,,,,33_34ExpCorr,001,2021_May_10_1210,ComputerHuman,2020.1.3,60.0363789028746,
Computer.xlsx,c,Sychronize.jpg,Number10.jpg,10,Computer,,,,,0,1,1,7,0,5,5,9,,,,,,,,,,,,,,,,,,,,,,,,,,,,,206.39075026840965,None,206.39075026840965,None,206.84114772708654,None,206.84114772708654,None,v,4.454929074612664,206.84114772708654,None,t,4.938352444689372,206.84114772708654,None,4.454929074612664,4.938352444689372,9.573400194864654,False,False,False,211.87288475671085,None,211.87288475671085,None,211.87288475671085,None,211.87288475671085,None,211.87288475671085,None,211.87288475671085,None,211.87288475671085,None,211.87288475671085,None,212.85595703641866,None,212.85595703641866,None,213.83905561983556,None,213.83905561983556,None,c,,,,,,,,,,,,,,,,,,,,,,,,,,,,,,,,,,,,,,,,,,,,,,,33_34ExpCorr,001,2021_May_10_1210,ComputerHuman,2020.1.3,60.0363789028746,
Computer.xlsx,c,Sychronize.jpg,Number9.jpg,9,Computer,,,,,0,1,1,7,0,6,6,7,,,,,,,,,,,,,,,,,,,,,,,,,,,,,214.90577273402323,None,214.90577273402323,None,215.3391087084201,None,215.3391087084201,None,v,4.256287629141298,215.3391087084201,None,t,3.927414592335481,215.3391087084201,None,4.256287629141298,3.927414592335481,8.624839752262734,False,False,False,219.67134669540337,None,219.67134669540337,None,219.67134669540337,None,219.67134669540337,None,219.67134669540337,None,219.67134669540337,None,219.67134669540337,None,219.67134669540337,None,220.68735474818823,None,220.68735474818823,None,221.67046680423664,None,221.67046680423664,None,c,,,,,,,,,,,,,,,,,,,,,,,,,,,,,,,,,,,,,,,,,,,,,,,33_34ExpCorr,001,2021_May_10_1210,ComputerHuman,2020.1.3,60.0363789028746,
Computer.xlsx,c,Sychronize.jpg,Number6.jpg,6,Computer,,,,,0,1,1,7,0,7,7,0,,,,,,,,,,,,,,,,,,,,,,,,,,,,,222.72046181615497,None,222.72046181615497,None,223.17030882158997,None,223.17030882158997,None,v,2.5845460573136734,223.17030882158997,None,t,3.131719354814777,223.17030882158997,None,2.5845460573136734,3.131719354814777,5.870804351034589,False,False,False,226.36960208581968,None,226.36960208581968,None,226.36960208581968,None,226.36960208581968,None,226.36960208581968,None,226.36960208581968,None,226.36960208581968,None,226.36960208581968,None,227.38574037404487,None,227.38574037404487,None,228.35214155501762,None,228.35214155501762,None,c,,,,,,,,,,,,,,,,,,,,,,,,,,,,,,,,,,,,,,,,,,,,,,,33_34ExpCorr,001,2021_May_10_1210,ComputerHuman,2020.1.3,60.0363789028746,
Computer.xlsx,c,Sychronize.jpg,Number6.jpg,6,Computer,,,,,0,1,1,7,0,8,8,1,,,,,,,,,,,,,,,,,,,,,,,,,,,,,229.40202237034282,None,229.40202237034282,None,229.85194347525248,None,229.85194347525248,None,v,2.3983991947216055,229.85194347525248,None,t,3.2654300929198143,229.85194347525248,None,2.3983991947216055,3.2654300929198143,6.080399277917818,False,False,False,233.20090677227472,None,233.20090677227472,None,233.20090677227472,None,233.20090677227472,None,233.20090677227472,None,233.20090677227472,None,233.20090677227472,None,233.20090677227472,None,234.1840005440372,None,234.1840005440372,None,235.16712928048764,None,235.16712928048764,None,c,,,,,,,,,,,,,,,,,,,,,,,,,,,,,,,,,,,,,,,,,,,,,,,33_34ExpCorr,001,2021_May_10_1210,ComputerHuman,2020.1.3,60.0363789028746,
Computer.xlsx,c,Sychronize.jpg,Number7.jpg,7,Computer,,,,,0,1,1,7,0,9,9,2,,,,,,,,,,,,,,,,,,,,,,,,,,,,,236.23396123282237,None,236.23396123282237,None,236.68358529827856,None,236.68358529827856,None,v,3.4021397747055744,236.68358529827856,None,t,3.5334017015939025,236.68358529827856,None,3.4021397747055744,3.5334017015939025,6.777272557732505,False,False,False,240.2838696349654,None,240.2838696349654,None,240.2838696349654,None,240.2838696349654,None,240.2838696349654,None,240.2838696349654,None,240.2838696349654,None,240.2838696349654,None,241.29896186956466,None,241.29896186956466,None,242.2820168273165,None,242.2820168273165,None,c,,,,,,,,,,,,,,,,,,,,,,,,,,,,,,,,,,,,,,,,,,,,,,,33_34ExpCorr,001,2021_May_10_1210,ComputerHuman,2020.1.3,60.0363789028746,
Computer.xlsx,c,,,,,,,,,0,1,1,7,,,,,,,,,,,,,,,,,,,,,,,,,,,,,,,,,,,,,,,,,,,,,,,,,,,,,,,,,,,,,,,,,,,,,,,,,,,,,,,c,243.28286945244326,None,243.28286945244326,None,a,0,6.370163124701321,243.28286945244326,None,l,1,10.724843950034483,243.28286945244326,None,c,c,254.09650478230287,None,254.09650478230287,None,256.0953904031876,None,None,None,None,None,None,None,None,,,,,,,,,,,,,,,,,,33_34ExpCorr,001,2021_May_10_1210,ComputerHuman,2020.1.3,60.0363789028746,
Human.xlsx,h,Sychronize.jpg,Number7.jpg,7,Human,,,,,0,2,2,0,0,0,0,3,,,,,,,,,,,,,,,,,,,,,,,,,261.0962340465594,None,261.0962340465594,None,264.1432214538181,None,264.1432214538181,None,264.5933780090081,None,264.5933780090081,None,v,3.098232166164962,264.5933780090081,None,t,2.9614673107444105,264.5933780090081,None,3.098232166164962,2.9614673107444105,6.892508866877575,True,False,False,267.75899643007324,None,267.75899643007324,None,267.75899643007324,None,267.75899643007324,None,267.75899643007324,None,267.75899643007324,None,267.75899643007324,None,267.75899643007324,None,268.7441136628204,None,268.7441136628204,None,269.7585839109188,None,269.7585839109188,None,h,,,,,,,,,,,,,,,,,,,,,,,,,,,,,,,,,,,,,,,,,,,,,,,33_34ExpCorr,001,2021_May_10_1210,ComputerHuman,2020.1.3,60.0363789028746,
Human.xlsx,h,Sychronize.jpg,Number9.jpg,9,Human,,,,,0,2,2,0,0,1,1,6,,,,,,,,,,,,,,,,,,,,,,,,,,,,,270.79145071695257,None,270.79145071695257,None,271.2585821466455,None,271.2585821466455,None,v,3.8404436216869726,271.2585821466455,None,t,4.275397274230272,271.2585821466455,None,3.8404436216869726,4.275397274230272,9.546022637318966,False,False,False,275.62383449705794,None,275.62383449705794,None,275.62383449705794,None,275.62383449705794,None,275.62383449705794,None,275.62383449705794,None,275.62383449705794,None,275.62383449705794,None,276.6083528392446,None,276.6083528392446,None,277.6066527214234,None,277.6066527214234,None,h,,,,,,,,,,,,,,,,,,,,,,,,,,,,,,,,,,,,,,,,,,,,,,,33_34ExpCorr,001,2021_May_10_1210,ComputerHuman,2020.1.3,60.0363789028746,
Human.xlsx,h,Sychronize.jpg,Number8.jpg,8,Human,,,,,0,2,2,0,0,2,2,5,,,,,,,,,,,,,,,,,,,,,,,,,,,,,278.6571324273091,None,278.6571324273091,None,279.0901383222272,None,279.0901383222272,None,v,3.4483457693213495,279.0901383222272,None,t,3.723417134171541,279.0901383222272,None,3.4483457693213495,3.723417134171541,8.509602380800434,True,False,False,282.9053515538917,None,282.9053515538917,None,282.9053515538917,None,282.9053515538917,None,282.9053515538917,None,282.9053515538917,None,282.9053515538917,None,282.9053515538917,None,283.87424388863747,None,283.87424388863747,None,284.87154166363234,None,284.87154166363234,None,h,,,,,,,,,,,,,,,,,,,,,,,,,,,,,,,,,,,,,,,,,,,,,,,33_34ExpCorr,001,2021_May_10_1210,ComputerHuman,2020.1.3,60.0363789028746,
Human.xlsx,h,Sychronize.jpg,Number8.jpg,8,Human,,,,,0,2,2,0,0,3,3,4,,,,,,,,,,,,,,,,,,,,,,,,,,,,,285.93816094085105,None,285.93816094085105,None,286.3884374666186,None,286.3884374666186,None,v,3.7013913058535763,286.3884374666186,None,t,3.8483988899834003,286.3884374666186,None,3.7013913058535763,3.8483988899834003,8.144260660085635,True,False,False,290.3201139014782,None,290.3201139014782,None,290.3201139014782,None,290.3201139014782,None,290.3201139014782,None,290.3201139014782,None,290.3201139014782,None,290.3201139014782,None,291.30532929197125,None,291.30532929197125,None,292.3030434354441,None,292.3030434354441,None,h,,,,,,,,,,,,,,,,,,,,,,,,,,,,,,,,,,,,,,,,,,,,,,,33_34ExpCorr,001,2021_May_10_1210,ComputerHuman,2020.1.3,60.0363789028746,
Human.xlsx,h,Sychronize.jpg,Number7.jpg,7,Human,,,,,0,2,2,0,0,4,4,2,,,,,,,,,,,,,,,,,,,,,,,,,,,,,293.35280845029047,None,293.35280845029047,None,293.80294736274755,None,293.80294736274755,None,v,3.0343747784636435,293.80294736274755,None,t,3.7253350595410666,293.80294736274755,None,3.0343747784636435,3.7253350595410666,6.556533558527742,False,False,False,297.60315625269595,None,297.60315625269595,None,297.60315625269595,None,297.60315625269595,None,297.60315625269595,None,297.60315625269595,None,297.60315625269595,None,297.60315625269595,None,298.587131198733,None,298.587131198733,None,299.5845630584927,None,299.5845630584927,None,h,,,,,,,,,,,,,,,,,,,,,,,,,,,,,,,,,,,,,,,,,,,,,,,33_34ExpCorr,001,2021_May_10_1210,ComputerHuman,2020.1.3,60.0363789028746,
Human.xlsx,h,Sychronize.jpg,Number10.jpg,10,Human,,,,,0,2,2,0,0,5,5,9,,,,,,,,,,,,,,,,,,,,,,,,,,,,,300.6343412251945,None,300.6343412251945,None,301.08440956672257,None,301.08440956672257,None,v,4.628208611513401,301.08440956672257,None,t,4.671468911420561,301.08440956672257,None,4.628208611513401,4.671468911420561,10.004765210789149,True,False,False,305.8347568879626,None,305.8347568879626,None,305.8347568879626,None,305.8347568879626,None,305.8347568879626,None,305.8347568879626,None,305.8347568879626,None,305.8347568879626,None,306.835532847399,None,306.835532847399,None,307.83252460118547,None,307.83252460118547,None,h,,,,,,,,,,,,,,,,,,,,,,,,,,,,,,,,,,,,,,,,,,,,,,,33_34ExpCorr,001,2021_May_10_1210,ComputerHuman,2020.1.3,60.0363789028746,
Human.xlsx,h,Sychronize.jpg,Number6.jpg,6,Human,,,,,0,2,2,0,0,6,6,0,,,,,,,,,,,,,,,,,,,,,,,,,,,,,308.88311176734896,None,308.88311176734896,None,309.33258923774065,None,309.33258923774065,None,v,2.6396192890870225,309.33258923774065,None,t,2.4465304925752207,309.33258923774065,None,2.6396192890870225,2.4465304925752207,6.258838164859833,True,False,False,312.06480079270386,None,312.06480079270386,None,312.06480079270386,None,312.06480079270386,None,312.06480079270386,None,312.06480079270386,None,312.06480079270386,None,312.06480079270386,None,313.04967680118625,None,313.04967680118625,None,314.0309883362288,None,314.0309883362288,None,h,,,,,,,,,,,,,,,,,,,,,,,,,,,,,,,,,,,,,,,,,,,,,,,33_34ExpCorr,001,2021_May_10_1210,ComputerHuman,2020.1.3,60.0363789028746,
Human.xlsx,h,Sychronize.jpg,Number10.jpg,10,Human,,,,,0,2,2,0,0,7,7,8,,,,,,,,,,,,,,,,,,,,,,,,,,,,,315.08132593792743,None,315.08132593792743,None,315.5311572252922,None,315.5311572252922,None,v,4.688369686450642,315.5311572252922,None,t,4.37142858975858,315.5311572252922,None,4.688369686450642,4.37142858975858,10.669463786843405,False,False,False,320.29750265523126,None,320.29750265523126,None,320.29750265523126,None,320.29750265523126,None,320.29750265523126,None,320.29750265523126,None,320.29750265523126,None,320.29750265523126,None,321.29847428860467,None,321.29847428860467,None,322.295635091843,None,322.295635091843,None,h,,,,,,,,,,,,,,,,,,,,,,,,,,,,,,,,,,,,,,,,,,,,,,,33_34ExpCorr,001,2021_May_10_1210,ComputerHuman,2020.1.3,60.0363789028746,
Human.xlsx,h,Sychronize.jpg,Number6.jpg,6,Human,,,,,0,2,2,0,0,8,8,1,,,,,,,,,,,,,,,,,,,,,,,,,,,,,323.34575616910206,None,323.34575616910206,None,323.79575329814816,None,323.79575329814816,None,v,2.583238891254041,323.79575329814816,None,t,2.7305095124793297,323.79575329814816,None,2.583238891254041,2.7305095124793297,5.954299388324126,True,False,False,326.61124753041804,None,326.61124753041804,None,326.61124753041804,None,326.61124753041804,None,326.61124753041804,None,326.61124753041804,None,326.61124753041804,None,326.61124753041804,None,327.5968029444757,None,327.5968029444757,None,328.57740043003287,None,328.57740043003287,None,h,,,,,,,,,,,,,,,,,,,,,,,,,,,,,,,,,,,,,,,,,,,,,,,33_34ExpCorr,001,2021_May_10_1210,ComputerHuman,2020.1.3,60.0363789028746,
Human.xlsx,h,Sychronize.jpg,Number9.jpg,9,Human,,,,,0,2,2,0,0,9,9,7,,,,,,,,,,,,,,,,,,,,,,,,,,,,,329.6277880729349,None,329.6277880729349,None,330.0772475798176,None,330.0772475798176,None,v,4.269128009569613,330.0772475798176,None,t,3.7244356009805415,330.0772475798176,None,4.269128009569613,3.7244356009805415,9.579241053543871,False,False,False,334.42581311342565,None,334.42581311342565,None,334.42581311342565,None,334.42581311342565,None,334.42581311342565,None,334.42581311342565,None,334.42581311342565,None,334.42581311342565,None,335.41096274464417,None,335.41096274464417,None,336.42550035590193,None,336.42550035590193,None,h,,,,,,,,,,,,,,,,,,,,,,,,,,,,,,,,,,,,,,,,,,,,,,,33_34ExpCorr,001,2021_May_10_1210,ComputerHuman,2020.1.3,60.0363789028746,
Human.xlsx,h,,,,,,,,,0,2,2,0,,,,,,,,,,,,,,,,,,,,,,,,,,,,,,,,,,,,,,,,,,,,,,,,,,,,,,,,,,,,,,,,,,,,,,,,,,,,,,,h,337.4265794495532,None,337.4265794495532,None,q,1,4.435297525430542,337.4265794495532,None,o,0,3.446435221822867,337.4265794495532,None,h,h,341.95793844354466,None,341.95793844354466,None,343.95699824631174,None,None,None,None,None,None,None,None,,,,,,,,,,,,,,,,,,33_34ExpCorr,001,2021_May_10_1210,ComputerHuman,2020.1.3,60.0363789028746,
Human.xlsx,h,Sychronize.jpg,Number9.jpg,9,Human,,,,,0,3,3,8,0,0,0,7,,,,,,,,,,,,,,,,,,,,,,,,,348.94151466383664,None,348.94151466383664,None,352.00532810509685,None,352.00532810509685,None,352.4554978121405,None,352.4554978121405,None,v,4.441161328029921,352.4554978121405,None,t,3.8844035361171336,352.4554978121405,None,4.441161328029921,3.8844035361171336,8.745203687519945,False,False,False,356.97080352379817,None,356.97080352379817,None,356.97080352379817,None,356.97080352379817,None,356.97080352379817,None,356.97080352379817,None,356.97080352379817,None,356.97080352379817,None,357.97219248798046,None,357.97219248798046,None,358.986598901467,None,358.986598901467,None,h,,,,,,,,,,,,,,,,,,,,,,,,,,,,,,,,,,,,,,,,,,,,,,,33_34ExpCorr,001,2021_May_10_1210,ComputerHuman,2020.1.3,60.0363789028746,
Human.xlsx,h,Sychronize.jpg,Number10.jpg,10,Human,,,,,0,3,3,8,0,1,1,9,,,,,,,,,,,,,,,,,,,,,,,,,,,,,360.0366385013813,None,360.0366385013813,None,360.4864014632558,None,360.4864014632558,None,v,5.113550548512649,360.4864014632558,None,t,4.477452427976459,360.4864014632558,None,5.113550548512649,4.477452427976459,10.17481237024979,False,False,False,365.6525382598684,None,365.6525382598684,None,365.6525382598684,None,365.6525382598684,None,365.6525382598684,None,365.6525382598684,None,365.6525382598684,None,365.6525382598684,None,366.6537597784836,None,366.6537597784836,None,367.65108834806597,None,367.65108834806597,None,h,,,,,,,,,,,,,,,,,,,,,,,,,,,,,,,,,,,,,,,,,,,,,,,33_34ExpCorr,001,2021_May_10_1210,ComputerHuman,2020.1.3,60.0363789028746,
Human.xlsx,h,Sychronize.jpg,Number10.jpg,10,Human,,,,,0,3,3,8,0,2,2,8,,,,,,,,,,,,,,,,,,,,,,,,,,,,,368.700890893816,None,368.700890893816,None,369.167977735513,None,369.167977735513,None,v,4.603436611748293,369.167977735513,None,t,4.394368311600374,369.167977735513,None,4.603436611748293,4.394368311600374,10.736327246172907,True,False,False,373.8662761100404,None,373.8662761100404,None,373.8662761100404,None,373.8662761100404,None,373.8662761100404,None,373.8662761100404,None,373.8662761100404,None,373.8662761100404,None,374.85188862239374,None,374.85188862239374,None,375.849094013628,None,375.849094013628,None,h,,,,,,,,,,,,,,,,,,,,,,,,,,,,,,,,,,,,,,,,,,,,,,,33_34ExpCorr,001,2021_May_10_1210,ComputerHuman,2020.1.3,60.0363789028746,
Human.xlsx,h,Sychronize.jpg,Number7.jpg,7,Human,,,,,0,3,3,8,0,3,3,2,,,,,,,,,,,,,,,,,,,,,,,,,,,,,376.8993389107891,None,376.8993389107891,None,377.34895656070603,None,377.34895656070603,None,v,3.173840575781469,377.34895656070603,None,t,3.7493991045830626,377.34895656070603,None,3.173840575781469,3.7493991045830626,6.630648108510807,False,False,False,381.1811167592796,None,381.1811167592796,None,381.1811167592796,None,381.1811167592796,None,381.1811167592796,None,381.1811167592796,None,381.1811167592796,None,381.1811167592796,None,382.14930691328846,None,382.14930691328846,None,383.1472366188691,None,383.1472366188691,None,h,,,,,,,,,,,,,,,,,,,,,,,,,,,,,,,,,,,,,,,,,,,,,,,33_34ExpCorr,001,2021_May_10_1210,ComputerHuman,2020.1.3,60.0363789028746,
Human.xlsx,h,Sychronize.jpg,Number6.jpg,6,Human,,,,,0,3,3,8,0,4,4,1,,,,,,,,,,,,,,,,,,,,,,,,,,,,,384.19763324352607,None,384.19763324352607,None,384.64753895114245,None,384.64753895114245,None,v,2.494800366071104,384.64753895114245,None,t,2.4455126673210543,384.64753895114245,None,2.494800366071104,2.4455126673210543,6.449398274380749,True,False,False,387.2133487477349,None,387.2133487477349,None,387.2133487477349,None,387.2133487477349,None,387.2133487477349,None,387.2133487477349,None,387.2133487477349,None,387.2133487477349,None,388.215085434128,None,388.215085434128,None,389.212435495765,None,389.212435495765,None,h,,,,,,,,,,,,,,,,,,,,,,,,,,,,,,,,,,,,,,,,,,,,,,,33_34ExpCorr,001,2021_May_10_1210,ComputerHuman,2020.1.3,60.0363789028746,
Human.xlsx,h,Sychronize.jpg,Number7.jpg,7,Human,,,,,0,3,3,8,0,5,5,3,,,,,,,,,,,,,,,,,,,,,,,,,,,,,390.2635554724384,None,390.2635554724384,None,390.7123025337205,None,390.7123025337205,None,v,3.2134347159571917,390.7123025337205,None,t,3.260441049055771,390.7123025337205,None,3.2134347159571917,3.260441049055771,6.739664772529218,True,False,False,394.0612084116692,None,394.0612084116692,None,394.0612084116692,None,394.0612084116692,None,394.0612084116692,None,394.0612084116692,None,394.0612084116692,None,394.0612084116692,None,395.04625539426524,None,395.04625539426524,None,396.0274549781534,None,396.0274549781534,None,h,,,,,,,,,,,,,,,,,,,,,,,,,,,,,,,,,,,,,,,,,,,,,,,33_34ExpCorr,001,2021_May_10_1210,ComputerHuman,2020.1.3,60.0363789028746,
Human.xlsx,h,Sychronize.jpg,Number9.jpg,9,Human,,,,,0,3,3,8,0,6,6,6,,,,,,,,,,,,,,,,,,,,,,,,,,,,,397.07776178526456,None,397.07776178526456,None,397.52762739576247,None,397.52762739576247,None,v,4.173488362693206,397.52762739576247,None,t,4.264371849770214,397.52762739576247,None,4.173488362693206,4.264371849770214,8.94102000502208,True,False,False,401.87605178751346,None,401.87605178751346,None,401.87605178751346,None,401.87605178751346,None,401.87605178751346,None,401.87605178751346,None,401.87605178751346,None,401.87605178751346,None,402.8617839496683,None,402.8617839496683,None,403.85886712488536,None,403.85886712488536,None,h,,,,,,,,,,,,,,,,,,,,,,,,,,,,,,,,,,,,,,,,,,,,,,,33_34ExpCorr,001,2021_May_10_1210,ComputerHuman,2020.1.3,60.0363789028746,
Human.xlsx,h,Sychronize.jpg,Number8.jpg,8,Human,,,,,0,3,3,8,0,7,7,4,,,,,,,,,,,,,,,,,,,,,,,,,,,,,404.90911009738466,None,404.90911009738466,None,405.35905141124204,None,405.35905141124204,None,v,4.081590578909527,405.35905141124204,None,t,3.2484725403701304,405.35905141124204,None,4.081590578909527,3.2484725403701304,7.448657355273249,False,False,False,409.50793971061375,None,409.50793971061375,None,409.50793971061375,None,409.50793971061375,None,409.50793971061375,None,409.50793971061375,None,409.50793971061375,None,409.50793971061375,None,410.5090034069717,None,410.5090034069717,None,411.49025303206326,None,411.49025303206326,None,h,,,,,,,,,,,,,,,,,,,,,,,,,,,,,,,,,,,,,,,,,,,,,,,33_34ExpCorr,001,2021_May_10_1210,ComputerHuman,2020.1.3,60.0363789028746,
Human.xlsx,h,Sychronize.jpg,Number8.jpg,8,Human,,,,,0,3,3,8,0,8,8,5,,,,,,,,,,,,,,,,,,,,,,,,,,,,,412.54040265847107,None,412.54040265847107,None,412.9903102907483,None,412.9903102907483,None,v,3.809654167165718,412.9903102907483,None,t,3.9815392866757975,412.9903102907483,None,3.809654167165718,3.9815392866757975,7.709229703173962,True,False,False,417.0231796629978,None,417.0231796629978,None,417.0231796629978,None,417.0231796629978,None,417.0231796629978,None,417.0231796629978,None,417.0231796629978,None,417.0231796629978,None,418.0242622851956,None,418.0242622851956,None,419.0217762638531,None,419.0217762638531,None,h,,,,,,,,,,,,,,,,,,,,,,,,,,,,,,,,,,,,,,,,,,,,,,,33_34ExpCorr,001,2021_May_10_1210,ComputerHuman,2020.1.3,60.0363789028746,
Human.xlsx,h,Sychronize.jpg,Number6.jpg,6,Human,,,,,0,3,3,8,0,9,9,0,,,,,,,,,,,,,,,,,,,,,,,,,,,,,420.0881122950268,None,420.0881122950268,None,420.53822169600517,None,420.53822169600517,None,v,2.6252488026193532,420.53822169600517,None,t,2.6244927313546214,420.53822169600517,None,2.6252488026193532,2.6244927313546214,5.622649602583941,True,False,False,423.2707097606972,None,423.2707097606972,None,423.2707097606972,None,423.2707097606972,None,423.2707097606972,None,423.2707097606972,None,423.2707097606972,None,423.2707097606972,None,424.2560659722694,None,424.2560659722694,None,425.25359983909766,None,425.25359983909766,None,h,,,,,,,,,,,,,,,,,,,,,,,,,,,,,,,,,,,,,,,,,,,,,,,33_34ExpCorr,001,2021_May_10_1210,ComputerHuman,2020.1.3,60.0363789028746,
Human.xlsx,h,,,,,,,,,0,3,3,8,,,,,,,,,,,,,,,,,,,,,,,,,,,,,,,,,,,,,,,,,,,,,,,,,,,,,,,,,,,,,,,,,,,,,,,,,,,,,,,h,426.25464813816234,None,426.25464813816234,None,q,0,2.524384982378251,426.25464813816234,None,l,0,13.558666735526458,426.25464813816234,None,h,c,439.8832327002583,None,439.8832327002583,None,441.89944444640423,None,None,None,None,None,None,None,None,,,,,,,,,,,,,,,,,,33_34ExpCorr,001,2021_May_10_1210,ComputerHuman,2020.1.3,60.0363789028746,
Human.xlsx,h,Sychronize.jpg,Number6.jpg,6,Human,,,,,0,4,4,2,0,0,0,0,,,,,,,,,,,,,,,,,,,,,,,,,446.88495527246596,None,446.88495527246596,None,449.9476771097734,None,449.9476771097734,None,450.39764248190204,None,450.39764248190204,None,v,2.6634828485384787,450.39764248190204,None,t,2.4824985701361584,450.39764248190204,None,2.6634828485384787,2.4824985701361584,5.671999913430678,True,False,False,453.14676892607986,None,453.14676892607986,None,453.14676892607986,None,453.14676892607986,None,453.14676892607986,None,453.14676892607986,None,453.14676892607986,None,453.14676892607986,None,454.1489768338097,None,454.1489768338097,None,455.1462078871991,None,455.1462078871991,None,h,,,,,,,,,,,,,,,,,,,,,,,,,,,,,,,,,,,,,,,,,,,,,,,33_34ExpCorr,001,2021_May_10_1210,ComputerHuman,2020.1.3,60.0363789028746,
Human.xlsx,h,Sychronize.jpg,Number7.jpg,7,Human,,,,,0,4,4,2,0,1,1,3,,,,,,,,,,,,,,,,,,,,,,,,,,,,,456.1961685759843,None,456.1961685759843,None,456.6462317850819,None,456.6462317850819,None,v,2.7303985236567314,456.6462317850819,None,t,3.033463451156422,456.6462317850819,None,2.7303985236567314,3.033463451156422,7.415424666955346,False,False,False,459.77837616935176,None,459.77837616935176,None,459.77837616935176,None,459.77837616935176,None,459.77837616935176,None,459.77837616935176,None,459.77837616935176,None,459.77837616935176,None,460.7630414273799,None,460.7630414273799,None,461.74456403365457,None,461.74456403365457,None,h,,,,,,,,,,,,,,,,,,,,,,,,,,,,,,,,,,,,,,,,,,,,,,,33_34ExpCorr,001,2021_May_10_1210,ComputerHuman,2020.1.3,60.0363789028746,
Human.xlsx,h,Sychronize.jpg,Number8.jpg,8,Human,,,,,0,4,4,2,0,2,2,5,,,,,,,,,,,,,,,,,,,,,,,,,,,,,462.8114485934084,None,462.8114485934084,None,463.24475826409616,None,463.24475826409616,None,v,3.571324914649267,463.24475826409616,None,t,3.758286871465316,463.24475826409616,None,3.571324914649267,3.758286871465316,7.932494538102877,True,False,False,467.0596481525972,None,467.0596481525972,None,467.0596481525972,None,467.0596481525972,None,467.0596481525972,None,467.0596481525972,None,467.0596481525972,None,467.0596481525972,None,468.0614060102689,None,468.0614060102689,None,469.05935015081286,None,469.05935015081286,None,h,,,,,,,,,,,,,,,,,,,,,,,,,,,,,,,,,,,,,,,,,,,,,,,33_34ExpCorr,001,2021_May_10_1210,ComputerHuman,2020.1.3,60.0363789028746,
Human.xlsx,h,Sychronize.jpg,Number9.jpg,9,Human,,,,,0,4,4,2,0,3,3,6,,,,,,,,,,,,,,,,,,,,,,,,,,,,,470.12633767996795,None,470.12633767996795,None,470.57638645410225,None,470.57638645410225,None,v,4.0750900340699445,470.57638645410225,None,t,3.7063938223491277,470.57638645410225,None,4.0750900340699445,3.7063938223491277,9.224204506738392,False,False,False,474.74132996047047,None,474.74132996047047,None,474.74132996047047,None,474.74132996047047,None,474.74132996047047,None,474.74132996047047,None,474.74132996047047,None,474.74132996047047,None,475.7273318960388,None,475.7273318960388,None,476.72416582756705,None,476.72416582756705,None,h,,,,,,,,,,,,,,,,,,,,,,,,,,,,,,,,,,,,,,,,,,,,,,,33_34ExpCorr,001,2021_May_10_1210,ComputerHuman,2020.1.3,60.0363789028746,
Human.xlsx,h,Sychronize.jpg,Number10.jpg,10,Human,,,,,0,4,4,2,0,4,4,8,,,,,,,,,,,,,,,,,,,,,,,,,,,,,477.757944602462,None,477.757944602462,None,478.2244485924466,None,478.2244485924466,None,v,4.474347307125754,478.2244485924466,None,t,3.8614266041495284,478.2244485924466,None,4.474347307125754,3.8614266041495284,10.125445814715075,False,False,False,482.78926462205527,None,482.78926462205527,None,482.78926462205527,None,482.78926462205527,None,482.78926462205527,None,482.78926462205527,None,482.78926462205527,None,482.78926462205527,None,483.7583414035462,None,483.7583414035462,None,484.75551215087035,None,484.75551215087035,None,h,,,,,,,,,,,,,,,,,,,,,,,,,,,,,,,,,,,,,,,,,,,,,,,33_34ExpCorr,001,2021_May_10_1210,ComputerHuman,2020.1.3,60.0363789028746,
Human.xlsx,h,Sychronize.jpg,Number8.jpg,8,Human,,,,,0,4,4,2,0,5,5,4,,,,,,,,,,,,,,,,,,,,,,,,,,,,,485.8388432654965,None,485.8388432654965,None,486.272032324051,None,486.272032324051,None,v,3.6225452945072902,486.272032324051,None,t,4.24138272827804,486.272032324051,None,3.6225452945072902,4.24138272827804,7.836670727710203,False,False,False,490.60409067594446,None,490.60409067594446,None,490.60409067594446,None,490.60409067594446,None,490.60409067594446,None,490.60409067594446,None,490.60409067594446,None,490.60409067594446,None,491.5900515520625,None,491.5900515520625,None,492.5869525259741,None,492.5869525259741,None,h,,,,,,,,,,,,,,,,,,,,,,,,,,,,,,,,,,,,,,,,,,,,,,,33_34ExpCorr,001,2021_May_10_1210,ComputerHuman,2020.1.3,60.0363789028746,
Human.xlsx,h,Sychronize.jpg,Number7.jpg,7,Human,,,,,0,4,4,2,0,6,6,2,,,,,,,,,,,,,,,,,,,,,,,,,,,,,493.63692412117507,None,493.63692412117507,None,494.08718268343364,None,494.08718268343364,None,v,3.03873477873276,494.08718268343364,None,t,4.441378173246449,494.08718268343364,None,3.03873477873276,4.441378173246449,6.799656854141809,False,False,False,498.6188573219415,None,498.6188573219415,None,498.6188573219415,None,498.6188573219415,None,498.6188573219415,None,498.6188573219415,None,498.6188573219415,None,498.6188573219415,None,499.5874093123466,None,499.5874093123466,None,500.58496755822307,None,500.58496755822307,None,h,,,,,,,,,,,,,,,,,,,,,,,,,,,,,,,,,,,,,,,,,,,,,,,33_34ExpCorr,001,2021_May_10_1210,ComputerHuman,2020.1.3,60.0363789028746,
Human.xlsx,h,Sychronize.jpg,Number6.jpg,6,Human,,,,,0,4,4,2,0,7,7,1,,,,,,,,,,,,,,,,,,,,,,,,,,,,,501.6515926094271,None,501.6515926094271,None,502.0847441370788,None,502.0847441370788,None,v,2.6683227311204973,502.0847441370788,None,t,2.447530995874331,502.0847441370788,None,2.6683227311204973,2.447530995874331,6.260460610664154,True,False,False,504.83408261481964,None,504.83408261481964,None,504.83408261481964,None,504.83408261481964,None,504.83408261481964,None,504.83408261481964,None,504.83408261481964,None,504.83408261481964,None,505.8355280357446,None,505.8355280357446,None,506.83338364185056,None,506.83338364185056,None,h,,,,,,,,,,,,,,,,,,,,,,,,,,,,,,,,,,,,,,,,,,,,,,,33_34ExpCorr,001,2021_May_10_1210,ComputerHuman,2020.1.3,60.0363789028746,
Human.xlsx,h,Sychronize.jpg,Number10.jpg,10,Human,,,,,0,4,4,2,0,8,8,9,,,,,,,,,,,,,,,,,,,,,,,,,,,,,507.8836006314168,None,507.8836006314168,None,508.33322597998085,None,508.33322597998085,None,v,4.707239069605748,508.33322597998085,None,t,4.990354557967294,508.33322597998085,None,4.707239069605748,4.990354557967294,9.888160010579153,True,False,False,513.4150022887434,None,513.4150022887434,None,513.4150022887434,None,513.4150022887434,None,513.4150022887434,None,513.4150022887434,None,513.4150022887434,None,513.4150022887434,None,514.3839847618119,None,514.3839847618119,None,515.3813585609432,None,515.3813585609432,None,h,,,,,,,,,,,,,,,,,,,,,,,,,,,,,,,,,,,,,,,,,,,,,,,33_34ExpCorr,001,2021_May_10_1210,ComputerHuman,2020.1.3,60.0363789028746,
Human.xlsx,h,Sychronize.jpg,Number9.jpg,9,Human,,,,,0,4,4,2,0,9,9,7,,,,,,,,,,,,,,,,,,,,,,,,,,,,,516.4316618395078,None,516.4316618395078,None,516.881374439402,None,516.881374439402,None,v,4.014454530028161,516.881374439402,None,t,4.453353418247389,516.881374439402,None,4.014454530028161,4.453353418247389,8.48538752363339,False,False,False,521.414783839642,None,521.414783839642,None,521.414783839642,None,521.414783839642,None,521.414783839642,None,521.414783839642,None,521.414783839642,None,521.414783839642,None,522.4156775242172,None,522.4156775242172,None,523.4127026388069,None,523.4127026388069,None,h,,,,,,,,,,,,,,,,,,,,,,,,,,,,,,,,,,,,,,,,,,,,,,,33_34ExpCorr,001,2021_May_10_1210,ComputerHuman,2020.1.3,60.0363789028746,
Human.xlsx,h,,,,,,,,,0,4,4,2,,,,,,,,,,,,,,,,,,,,,,,,,,,,,,,,,,,,,,,,,,,,,,,,,,,,,,,,,,,,,,,,,,,,,,,,,,,,,,,h,524.4129826770823,None,524.4129826770823,None,q,0,2.2705041426743264,524.4129826770823,None,o,1,4.553359480931249,524.4129826770823,None,h,h,529.0617793946358,None,529.0617793946358,None,None,None,531.0441363417503,None,531.0441363417503,None,"['space', 'space']",532.0272054136876,None,"[1.8558787668434888, 4.795371252804216]",,,,,,,,,,,,,,,,,33_34ExpCorr,001,2021_May_10_1210,ComputerHuman,2020.1.3,60.0363789028746,
Computer.xlsx,c,Sychronize.jpg,Number7.jpg,7,Computer,,,,,0,5,5,5,0,0,0,3,,,,,,,,,,,,,,,,,,,,,,,,,536.878875266204,None,536.878875266204,None,539.9586893823789,None,539.9586893823789,None,540.39239585415,None,540.39239585415,None,v,3.005746077459662,540.39239585415,None,t,3.4644016178708625,540.39239585415,None,3.005746077459662,3.4644016178708625,7.083155245780244,False,False,False,543.9251396422242,None,543.9251396422242,None,543.9251396422242,None,543.9251396422242,None,543.9251396422242,None,543.9251396422242,None,543.9251396422242,None,543.9251396422242,None,544.9572426783461,None,544.9572426783461,None,545.9238267021783,None,545.9238267021783,None,c,,,,,,,,,,,,,,,,,,,,,,,,,,,,,,,,,,,,,,,,,,,,,,,33_34ExpCorr,001,2021_May_10_1210,ComputerHuman,2020.1.3,60.0363789028746,
Computer.xlsx,c,Sychronize.jpg,Number8.jpg,8,Computer,,,,,0,5,5,5,0,1,1,4,,,,,,,,,,,,,,,,,,,,,,,,,,,,,546.9901454113979,None,546.9901454113979,None,547.423630226298,None,547.423630226298,None,v,3.2858161094827665,547.423630226298,None,t,3.693394336554775,547.423630226298,None,3.2858161094827665,3.693394336554775,7.506586197162813,False,False,False,551.174119010172,None,551.174119010172,None,551.174119010172,None,551.174119010172,None,551.174119010172,None,551.174119010172,None,551.174119010172,None,551.174119010172,None,552.1887913477476,None,552.1887913477476,None,553.1886521305523,None,553.1886521305523,None,c,,,,,,,,,,,,,,,,,,,,,,,,,,,,,,,,,,,,,,,,,,,,,,,33_34ExpCorr,001,2021_May_10_1210,ComputerHuman,2020.1.3,60.0363789028746,
Computer.xlsx,c,Sychronize.jpg,Number10.jpg,10,Computer,,,,,0,5,5,5,0,2,2,8,,,,,,,,,,,,,,,,,,,,,,,,,,,,,554.2385444938473,None,554.2385444938473,None,554.6885490007635,None,554.6885490007635,None,v,4.400282796956162,554.6885490007635,None,t,4.315303209597914,554.6885490007635,None,4.400282796956162,4.315303209597914,9.476927792423064,False,False,False,559.1871194582973,None,559.1871194582973,None,559.1871194582973,None,559.1871194582973,None,559.1871194582973,None,559.1871194582973,None,559.1871194582973,None,559.1871194582973,None,560.1869414270914,None,560.1869414270914,None,561.170006649706,None,561.170006649706,None,c,,,,,,,,,,,,,,,,,,,,,,,,,,,,,,,,,,,,,,,,,,,,,,,33_34ExpCorr,001,2021_May_10_1210,ComputerHuman,2020.1.3,60.0363789028746,
Computer.xlsx,c,Sychronize.jpg,Number6.jpg,6,Computer,,,,,0,5,5,5,0,3,3,1,,,,,,,,,,,,,,,,,,,,,,,,,,,,,562.2036301685584,None,562.2036301685584,None,562.6698621396908,None,562.6698621396908,None,v,2.578491392431715,562.6698621396908,None,t,2.9375023857783162,562.6698621396908,None,2.578491392431715,2.9375023857783162,6.019790420923212,False,False,False,565.7021881157907,None,565.7021881157907,None,565.7021881157907,None,565.7021881157907,None,565.7021881157907,None,565.7021881157907,None,565.7021881157907,None,565.7021881157907,None,566.6851561429903,None,566.6851561429903,None,567.6684417393681,None,567.6684417393681,None,c,,,,,,,,,,,,,,,,,,,,,,,,,,,,,,,,,,,,,,,,,,,,,,,33_34ExpCorr,001,2021_May_10_1210,ComputerHuman,2020.1.3,60.0363789028746,
Computer.xlsx,c,Sychronize.jpg,Number9.jpg,9,Computer,,,,,0,5,5,5,0,4,4,7,,,,,,,,,,,,,,,,,,,,,,,,,,,,,568.7184329019628,None,568.7184329019628,None,569.1851944758355,None,569.1851944758355,None,v,4.218491122979685,569.1851944758355,None,t,4.613343486992562,569.1851944758355,None,4.218491122979685,4.613343486992562,8.989617770667218,False,False,False,573.883545457782,None,573.883545457782,None,573.883545457782,None,573.883545457782,None,573.883545457782,None,573.883545457782,None,573.883545457782,None,573.883545457782,None,574.8831948485786,None,574.8831948485786,None,575.8664191765583,None,575.8664191765583,None,c,,,,,,,,,,,,,,,,,,,,,,,,,,,,,,,,,,,,,,,,,,,,,,,33_34ExpCorr,001,2021_May_10_1210,ComputerHuman,2020.1.3,60.0363789028746,
Computer.xlsx,c,Sychronize.jpg,Number9.jpg,9,Computer,,,,,0,5,5,5,0,5,5,6,,,,,,,,,,,,,,,,,,,,,,,,,,,,,576.8996609708438,None,576.8996609708438,None,577.3666948843447,None,577.3666948843447,None,v,3.9244098746694362,577.3666948843447,None,t,4.187451462437821,577.3666948843447,None,3.9244098746694362,4.187451462437821,9.346777960567087,False,False,False,581.6319408512963,None,581.6319408512963,None,581.6319408512963,None,581.6319408512963,None,581.6319408512963,None,581.6319408512963,None,581.6319408512963,None,581.6319408512963,None,582.6313708306616,None,582.6313708306616,None,583.6144809620482,None,583.6144809620482,None,c,,,,,,,,,,,,,,,,,,,,,,,,,,,,,,,,,,,,,,,,,,,,,,,33_34ExpCorr,001,2021_May_10_1210,ComputerHuman,2020.1.3,60.0363789028746,
Computer.xlsx,c,Sychronize.jpg,Number10.jpg,10,Computer,,,,,0,5,5,5,0,6,6,9,,,,,,,,,,,,,,,,,,,,,,,,,,,,,584.6643608150425,None,584.6643608150425,None,585.1146504926646,None,585.1146504926646,None,v,4.955942569378749,585.1146504926646,None,t,6.167108750763873,585.1146504926646,None,4.955942569378749,6.167108750763873,9.323853149976975,False,False,False,591.3792273189038,None,591.3792273189038,None,591.3792273189038,None,591.3792273189038,None,591.3792273189038,None,591.3792273189038,None,591.3792273189038,None,591.3792273189038,None,592.379021059327,None,592.379021059327,None,593.3620853196107,None,593.3620853196107,None,c,,,,,,,,,,,,,,,,,,,,,,,,,,,,,,,,,,,,,,,,,,,,,,,33_34ExpCorr,001,2021_May_10_1210,ComputerHuman,2020.1.3,60.0363789028746,
Computer.xlsx,c,Sychronize.jpg,Number8.jpg,8,Computer,,,,,0,5,5,5,0,7,7,5,,,,,,,,,,,,,,,,,,,,,,,,,,,,,594.412293648199,None,594.412293648199,None,594.8620328725792,None,594.8620328725792,None,v,3.783702029010783,594.8620328725792,None,t,5.807226848004575,594.8620328725792,None,3.783702029010783,5.807226848004575,8.152171035066262,False,False,False,600.7602343083136,None,600.7602343083136,None,600.7602343083136,None,600.7602343083136,None,600.7602343083136,None,600.7602343083136,None,600.7602343083136,None,600.7602343083136,None,601.7433046633587,None,601.7433046633587,None,602.7431099517516,None,602.7431099517516,None,c,,,,,,,,,,,,,,,,,,,,,,,,,,,,,,,,,,,,,,,,,,,,,,,33_34ExpCorr,001,2021_May_10_1210,ComputerHuman,2020.1.3,60.0363789028746,
Computer.xlsx,c,Sychronize.jpg,Number6.jpg,6,Computer,,,,,0,5,5,5,0,8,8,0,,,,,,,,,,,,,,,,,,,,,,,,,,,,,603.8104564303103,None,603.8104564303103,None,604.2429667248443,None,604.2429667248443,None,v,2.6701203651346077,604.2429667248443,None,t,4.949291580150202,604.2429667248443,None,2.6701203651346077,4.949291580150202,6.039215069044214,False,False,False,609.2748885219908,None,609.2748885219908,None,609.2748885219908,None,609.2748885219908,None,609.2748885219908,None,609.2748885219908,None,609.2748885219908,None,609.2748885219908,None,610.2746572418118,None,610.2746572418118,None,611.2576846127467,None,611.2576846127467,None,c,,,,,,,,,,,,,,,,,,,,,,,,,,,,,,,,,,,,,,,,,,,,,,,33_34ExpCorr,001,2021_May_10_1210,ComputerHuman,2020.1.3,60.0363789028746,
Computer.xlsx,c,Sychronize.jpg,Number7.jpg,7,Computer,,,,,0,5,5,5,0,9,9,2,,,,,,,,,,,,,,,,,,,,,,,,,,,,,612.307787084942,None,612.307787084942,None,612.7407955460758,None,612.7407955460758,None,v,3.131624404838476,612.7407955460758,None,t,5.314300460860068,612.7407955460758,None,3.131624404838476,5.314300460860068,7.396199676095487,False,False,False,618.1393352411005,None,618.1393352411005,None,618.1393352411005,None,618.1393352411005,None,618.1393352411005,None,618.1393352411005,None,618.1393352411005,None,618.1393352411005,None,619.1390834311969,None,619.1390834311969,None,620.1222224325093,None,620.1222224325093,None,c,,,,,,,,,,,,,,,,,,,,,,,,,,,,,,,,,,,,,,,,,,,,,,,33_34ExpCorr,001,2021_May_10_1210,ComputerHuman,2020.1.3,60.0363789028746,
Computer.xlsx,c,,,,,,,,,0,5,5,5,,,,,,,,,,,,,,,,,,,,,,,,,,,,,,,,,,,,,,,,,,,,,,,,,,,,,,,,,,,,,,,,,,,,,,,,,,,,,,,c,621.1224848280517,None,621.1224848280517,None,a,0,3.0652886944417332,621.1224848280517,None,l,1,28.802464914219854,621.1224848280517,None,c,c,650.0148872581294,None,650.0148872581294,None,652.0142813104758,None,None,None,None,None,None,None,None,,,,,,,,,,,,,,,,,,33_34ExpCorr,001,2021_May_10_1210,ComputerHuman,2020.1.3,60.0363789028746,
Human.xlsx,h,Sychronize.jpg,Number10.jpg,10,Human,,,,,0,6,6,4,0,0,0,8,,,,,,,,,,,,,,,,,,,,,,,,,657.0154197478623,None,657.0154197478623,None,660.0792944575196,None,660.0792944575196,None,660.5293287966915,None,660.5293287966915,None,v,4.735187723481431,660.5293287966915,None,t,3.8623876518840916,660.5293287966915,None,4.735187723481431,3.8623876518840916,10.526015449684838,False,False,False,665.3608384596155,None,665.3608384596155,None,665.3608384596155,None,665.3608384596155,None,665.3608384596155,None,665.3608384596155,None,665.3608384596155,None,665.3608384596155,None,666.3288579602877,None,666.3288579602877,None,667.3438238087701,None,667.3438238087701,None,h,,,,,,,,,,,,,,,,,,,,,,,,,,,,,,,,,,,,,,,,,,,,,,,33_34ExpCorr,001,2021_May_10_1210,ComputerHuman,2020.1.3,60.0363789028746,
Human.xlsx,h,Sychronize.jpg,Number8.jpg,8,Human,,,,,0,6,6,4,0,1,1,4,,,,,,,,,,,,,,,,,,,,,,,,,,,,,668.3935868989556,None,668.3935868989556,None,668.843652032715,None,668.843652032715,None,v,3.7483129538395588,668.843652032715,None,t,3.7515284219607565,668.843652032715,None,3.7483129538395588,3.7515284219607565,8.408224075319566,True,False,False,672.6760669281848,None,672.6760669281848,None,672.6760669281848,None,672.6760669281848,None,672.6760669281848,None,672.6760669281848,None,672.6760669281848,None,672.6760669281848,None,673.6775793914921,None,673.6775793914921,None,674.6753134231358,None,674.6753134231358,None,h,,,,,,,,,,,,,,,,,,,,,,,,,,,,,,,,,,,,,,,,,,,,,,,33_34ExpCorr,001,2021_May_10_1210,ComputerHuman,2020.1.3,60.0363789028746,
Human.xlsx,h,Sychronize.jpg,Number9.jpg,9,Human,,,,,0,6,6,4,0,2,2,7,,,,,,,,,,,,,,,,,,,,,,,,,,,,,675.7258774933589,None,675.7258774933589,None,676.1753058848772,None,676.1753058848772,None,v,4.108079056120005,676.1753058848772,None,t,4.051367295700402,676.1753058848772,None,4.108079056120005,4.051367295700402,9.435080637452165,True,False,False,680.3743171861697,None,680.3743171861697,None,680.3743171861697,None,680.3743171861697,None,680.3743171861697,None,680.3743171861697,None,680.3743171861697,None,680.3743171861697,None,681.3431235526941,None,681.3431235526941,None,682.3401133818197,None,682.3401133818197,None,h,,,,,,,,,,,,,,,,,,,,,,,,,,,,,,,,,,,,,,,,,,,,,,,33_34ExpCorr,001,2021_May_10_1210,ComputerHuman,2020.1.3,60.0363789028746,
Human.xlsx,h,Sychronize.jpg,Number7.jpg,7,Human,,,,,0,6,6,4,0,3,3,2,,,,,,,,,,,,,,,,,,,,,,,,,,,,,683.3901776815583,None,683.3901776815583,None,683.8403489924876,None,683.8403489924876,None,v,3.1624857133965634,683.8403489924876,None,t,3.4216750908035465,683.8403489924876,None,3.1624857133965634,3.4216750908035465,6.514941025737309,True,False,False,687.3400559627462,None,687.3400559627462,None,687.3400559627462,None,687.3400559627462,None,687.3400559627462,None,687.3400559627462,None,687.3400559627462,None,687.3400559627462,None,688.3416999446017,None,688.3416999446017,None,689.338329541215,None,689.338329541215,None,h,,,,,,,,,,,,,,,,,,,,,,,,,,,,,,,,,,,,,,,,,,,,,,,33_34ExpCorr,001,2021_May_10_1210,ComputerHuman,2020.1.3,60.0363789028746,
Human.xlsx,h,Sychronize.jpg,Number7.jpg,7,Human,,,,,0,6,6,4,0,4,4,3,,,,,,,,,,,,,,,,,,,,,,,,,,,,,690.3886276873482,None,690.3886276873482,None,690.8382244867644,None,690.8382244867644,None,v,3.0401554998334177,690.8382244867644,None,t,3.5074203727363056,690.8382244867644,None,3.0401554998334177,3.5074203727363056,7.437093026706844,False,False,False,694.436951130594,None,694.436951130594,None,694.436951130594,None,694.436951130594,None,694.436951130594,None,694.436951130594,None,694.436951130594,None,694.436951130594,None,695.4231667036092,None,695.4231667036092,None,696.403350707682,None,696.403350707682,None,h,,,,,,,,,,,,,,,,,,,,,,,,,,,,,,,,,,,,,,,,,,,,,,,33_34ExpCorr,001,2021_May_10_1210,ComputerHuman,2020.1.3,60.0363789028746,
Human.xlsx,h,Sychronize.jpg,Number6.jpg,6,Human,,,,,0,6,6,4,0,5,5,0,,,,,,,,,,,,,,,,,,,,,,,,,,,,,697.470126524051,None,697.470126524051,None,697.9030749998956,None,697.9030749998956,None,v,2.6947390335189993,697.9030749998956,None,t,2.393498364518564,697.9030749998956,None,2.6947390335189993,2.393498364518564,5.9833646582023805,False,False,False,700.6855712283605,None,700.6855712283605,None,700.6855712283605,None,700.6855712283605,None,700.6855712283605,None,700.6855712283605,None,700.6855712283605,None,700.6855712283605,None,701.6544090310254,None,701.6544090310254,None,702.6684574574383,None,702.6684574574383,None,h,,,,,,,,,,,,,,,,,,,,,,,,,,,,,,,,,,,,,,,,,,,,,,,33_34ExpCorr,001,2021_May_10_1210,ComputerHuman,2020.1.3,60.0363789028746,
Human.xlsx,h,Sychronize.jpg,Number10.jpg,10,Human,,,,,0,6,6,4,0,6,6,9,,,,,,,,,,,,,,,,,,,,,,,,,,,,,703.7186407654244,None,703.7186407654244,None,704.1685634742189,None,704.1685634742189,None,v,4.504669389634728,704.1685634742189,None,t,4.36842868374606,704.1685634742189,None,4.504669389634728,4.36842868374606,9.367028336618864,True,False,False,708.7669170544586,None,708.7669170544586,None,708.7669170544586,None,708.7669170544586,None,708.7669170544586,None,708.7669170544586,None,708.7669170544586,None,708.7669170544586,None,709.7515781423872,None,709.7515781423872,None,710.7497558085488,None,710.7497558085488,None,h,,,,,,,,,,,,,,,,,,,,,,,,,,,,,,,,,,,,,,,,,,,,,,,33_34ExpCorr,001,2021_May_10_1210,ComputerHuman,2020.1.3,60.0363789028746,
Human.xlsx,h,Sychronize.jpg,Number6.jpg,6,Human,,,,,0,6,6,4,0,7,7,1,,,,,,,,,,,,,,,,,,,,,,,,,,,,,711.7994204202114,None,711.7994204202114,None,712.2331682722088,None,712.2331682722088,None,v,2.2955241030194884,712.2331682722088,None,t,3.114485613314173,712.2331682722088,None,2.2955241030194884,3.114485613314173,6.184337440550457,False,False,False,715.4153172917058,None,715.4153172917058,None,715.4153172917058,None,715.4153172917058,None,715.4153172917058,None,715.4153172917058,None,715.4153172917058,None,715.4153172917058,None,716.4004858487642,None,716.4004858487642,None,717.3981509133637,None,717.3981509133637,None,h,,,,,,,,,,,,,,,,,,,,,,,,,,,,,,,,,,,,,,,,,,,,,,,33_34ExpCorr,001,2021_May_10_1210,ComputerHuman,2020.1.3,60.0363789028746,
Human.xlsx,h,Sychronize.jpg,Number9.jpg,9,Human,,,,,0,6,6,4,0,8,8,6,,,,,,,,,,,,,,,,,,,,,,,,,,,,,718.4646524654436,None,718.4646524654436,None,718.8979951761557,None,718.8979951761557,None,v,4.1100537590091335,718.8979951761557,None,t,3.9533205386096597,718.8979951761557,None,4.1100537590091335,3.9533205386096597,8.933263231503009,True,False,False,723.0967684609532,None,723.0967684609532,None,723.0967684609532,None,723.0967684609532,None,723.0967684609532,None,723.0967684609532,None,723.0967684609532,None,723.0967684609532,None,724.0819001286636,None,724.0819001286636,None,725.0795366441143,None,725.0795366441143,None,h,,,,,,,,,,,,,,,,,,,,,,,,,,,,,,,,,,,,,,,,,,,,,,,33_34ExpCorr,001,2021_May_10_1210,ComputerHuman,2020.1.3,60.0363789028746,
Human.xlsx,h,Sychronize.jpg,Number8.jpg,8,Human,,,,,0,6,6,4,0,9,9,5,,,,,,,,,,,,,,,,,,,,,,,,,,,,,726.1303063323612,None,726.1303063323612,None,726.5797446679653,None,726.5797446679653,None,v,3.2718578213925866,726.5797446679653,None,t,3.7873415642561667,726.5797446679653,None,3.2718578213925866,3.7873415642561667,8.409979575143511,False,False,False,730.4460454778309,None,730.4460454778309,None,730.4460454778309,None,730.4460454778309,None,730.4460454778309,None,730.4460454778309,None,730.4460454778309,None,730.4460454778309,None,731.4303976575584,None,731.4303976575584,None,732.4277656827044,None,732.4277656827044,None,h,,,,,,,,,,,,,,,,,,,,,,,,,,,,,,,,,,,,,,,,,,,,,,,33_34ExpCorr,001,2021_May_10_1210,ComputerHuman,2020.1.3,60.0363789028746,
Human.xlsx,h,,,,,,,,,0,6,6,4,,,,,,,,,,,,,,,,,,,,,,,,,,,,,,,,,,,,,,,,,,,,,,,,,,,,,,,,,,,,,,,,,,,,,,,,,,,,,,,h,733.4287469393867,None,733.4287469393867,None,q,0,2.7102723364205303,733.4287469393867,None,o,1,4.745371429231454,733.4287469393867,None,h,h,738.2598678206505,None,738.2598678206505,None,740.2591325998874,None,None,None,None,None,None,None,None,,,,,,,,,,,,,,,,,,33_34ExpCorr,001,2021_May_10_1210,ComputerHuman,2020.1.3,60.0363789028746,
Computer.xlsx,c,Sychronize.jpg,Number9.jpg,9,Computer,,,,,0,7,7,9,0,0,0,7,,,,,,,,,,,,,,,,,,,,,,,,,745.2606691214651,None,745.2606691214651,None,748.3243000406419,None,748.3243000406419,None,748.7574451527553,None,748.7574451527553,None,v,4.320182868522352,748.7574451527553,None,t,3.619409058292149,748.7574451527553,None,4.320182868522352,3.619409058292149,8.808592299873162,False,False,False,753.1893305737958,None,753.1893305737958,None,753.1893305737958,None,753.1893305737958,None,753.1893305737958,None,753.1893305737958,None,753.1893305737958,None,753.1893305737958,None,754.1889950411087,None,754.1889950411087,None,755.172195952372,None,755.172195952372,None,c,,,,,,,,,,,,,,,,,,,,,,,,,,,,,,,,,,,,,,,,,,,,,,,33_34ExpCorr,001,2021_May_10_1210,ComputerHuman,2020.1.3,60.0363789028746,
Computer.xlsx,c,Sychronize.jpg,Number6.jpg,6,Computer,,,,,0,7,7,9,0,1,1,1,,,,,,,,,,,,,,,,,,,,,,,,,,,,,756.2223552020878,None,756.2223552020878,None,756.6719577754884,None,756.6719577754884,None,v,2.465279263598859,756.6719577754884,None,t,4.308359992571241,756.6719577754884,None,2.465279263598859,4.308359992571241,6.077928458654009,False,False,False,761.0555665867178,None,761.0555665867178,None,761.0555665867178,None,761.0555665867178,None,761.0555665867178,None,761.0555665867178,None,761.0555665867178,None,761.0555665867178,None,762.0703181561994,None,762.0703181561994,None,763.0368835749687,None,763.0368835749687,None,c,,,,,,,,,,,,,,,,,,,,,,,,,,,,,,,,,,,,,,,,,,,,,,,33_34ExpCorr,001,2021_May_10_1210,ComputerHuman,2020.1.3,60.0363789028746,
Computer.xlsx,c,Sychronize.jpg,Number10.jpg,10,Computer,,,,,0,7,7,9,0,2,2,8,,,,,,,,,,,,,,,,,,,,,,,,,,,,,764.0702475852713,None,764.0702475852713,None,764.5370733145337,None,764.5370733145337,None,v,4.839401738162451,764.5370733145337,None,t,6.7141534167076315,764.5370733145337,None,4.839401738162451,6.7141534167076315,9.254559242872107,False,False,False,771.3348096557711,None,771.3348096557711,None,771.3348096557711,None,771.3348096557711,None,771.3348096557711,None,771.3348096557711,None,771.3348096557711,None,771.3348096557711,None,772.3345427693503,None,772.3345427693503,None,773.3176990926177,None,773.3176990926177,None,c,,,,,,,,,,,,,,,,,,,,,,,,,,,,,,,,,,,,,,,,,,,,,,,33_34ExpCorr,001,2021_May_10_1210,ComputerHuman,2020.1.3,60.0363789028746,
Computer.xlsx,c,Sychronize.jpg,Number7.jpg,7,Computer,,,,,0,7,7,9,0,3,3,3,,,,,,,,,,,,,,,,,,,,,,,,,,,,,774.3675443017019,None,774.3675443017019,None,774.8178214690233,None,774.8178214690233,None,v,2.90602005305027,774.8178214690233,None,t,6.669173110808515,774.8178214690233,None,2.90602005305027,6.669173110808515,7.239461393173293,False,False,False,781.5822496151477,None,781.5822496151477,None,781.5822496151477,None,781.5822496151477,None,781.5822496151477,None,781.5822496151477,None,781.5822496151477,None,781.5822496151477,None,782.5652965534755,None,782.5652965534755,None,783.5484881622078,None,783.5484881622078,None,c,,,,,,,,,,,,,,,,,,,,,,,,,,,,,,,,,,,,,,,,,,,,,,,33_34ExpCorr,001,2021_May_10_1210,ComputerHuman,2020.1.3,60.0363789028746,
Computer.xlsx,c,Sychronize.jpg,Number6.jpg,6,Computer,,,,,0,7,7,9,0,4,4,0,,,,,,,,,,,,,,,,,,,,,,,,,,,,,784.5985405931997,None,784.5985405931997,None,785.048314140714,None,785.048314140714,None,v,3.1387122922687922,785.048314140714,None,t,6.977114810239982,785.048314140714,None,3.1387122922687922,6.977114810239982,6.055712981606556,False,False,False,792.0965856180937,None,792.0965856180937,None,792.0965856180937,None,792.0965856180937,None,792.0965856180937,None,792.0965856180937,None,792.0965856180937,None,792.0965856180937,None,793.1128073083246,None,793.1128073083246,None,794.0958295468281,None,794.0958295468281,None,c,,,,,,,,,,,,,,,,,,,,,,,,,,,,,,,,,,,,,,,,,,,,,,,33_34ExpCorr,001,2021_May_10_1210,ComputerHuman,2020.1.3,60.0363789028746,
Computer.xlsx,c,Sychronize.jpg,Number9.jpg,9,Computer,,,,,0,7,7,9,0,5,5,6,,,,,,,,,,,,,,,,,,,,,,,,,,,,,795.1457103621533,None,795.1457103621533,None,795.5793212423941,None,795.5793212423941,None,v,4.04275860476173,795.5793212423941,None,t,7.78603920984915,795.5793212423941,None,4.04275860476173,7.78603920984915,9.102891838793393,False,False,False,803.4448059957058,None,803.4448059957058,None,803.4448059957058,None,803.4448059957058,None,803.4448059957058,None,803.4448059957058,None,803.4448059957058,None,803.4448059957058,None,804.459942497524,None,804.459942497524,None,805.4430378731713,None,805.4430378731713,None,c,,,,,,,,,,,,,,,,,,,,,,,,,,,,,,,,,,,,,,,,,,,,,,,33_34ExpCorr,001,2021_May_10_1210,ComputerHuman,2020.1.3,60.0363789028746,
Computer.xlsx,c,Sychronize.jpg,Number8.jpg,8,Computer,,,,,0,7,7,9,0,6,6,4,,,,,,,,,,,,,,,,,,,,,,,,,,,,,806.4933267167735,None,806.4933267167735,None,806.9430957734103,None,806.9430957734103,None,v,3.4340952534312237,806.9430957734103,None,t,6.793153400989468,806.9430957734103,None,3.4340952534312237,6.793153400989468,8.16270841131413,False,False,False,813.8080432253346,None,813.8080432253346,None,813.8080432253346,None,813.8080432253346,None,813.8080432253346,None,813.8080432253346,None,813.8080432253346,None,813.8080432253346,None,814.8073073630176,None,814.8073073630176,None,815.7905458051837,None,815.7905458051837,None,c,,,,,,,,,,,,,,,,,,,,,,,,,,,,,,,,,,,,,,,,,,,,,,,33_34ExpCorr,001,2021_May_10_1210,ComputerHuman,2020.1.3,60.0363789028746,
Computer.xlsx,c,Sychronize.jpg,Number10.jpg,10,Computer,,,,,0,7,7,9,0,7,7,9,,,,,,,,,,,,,,,,,,,,,,,,,,,,,816.8569591436026,None,816.8569591436026,None,817.2907140526922,None,817.2907140526922,None,v,5.06157217272812,817.2907140526922,None,t,8.821158832384754,817.2907140526922,None,5.06157217272812,8.821158832384754,9.518328351793082,False,False,False,826.2047897772236,None,826.2047897772236,None,826.2047897772236,None,826.2047897772236,None,826.2047897772236,None,826.2047897772236,None,826.2047897772236,None,826.2047897772236,None,827.2044000332326,None,827.2044000332326,None,828.1707983272117,None,828.1707983272117,None,c,,,,,,,,,,,,,,,,,,,,,,,,,,,,,,,,,,,,,,,,,,,,,,,33_34ExpCorr,001,2021_May_10_1210,ComputerHuman,2020.1.3,60.0363789028746,
Computer.xlsx,c,Sychronize.jpg,Number8.jpg,8,Computer,,,,,0,7,7,9,0,8,8,5,,,,,,,,,,,,,,,,,,,,,,,,,,,,,829.2370791847516,None,829.2370791847516,None,829.6709960861999,None,829.6709960861999,None,v,4.900274937921495,829.6709960861999,None,t,7.651131652954064,829.6709960861999,None,4.900274937921495,7.651131652954064,8.55195592731091,False,False,False,837.4186427863197,None,837.4186427863197,None,837.4186427863197,None,837.4186427863197,None,837.4186427863197,None,837.4186427863197,None,837.4186427863197,None,837.4186427863197,None,838.418267477291,None,838.418267477291,None,839.4013006222103,None,839.4013006222103,None,c,,,,,,,,,,,,,,,,,,,,,,,,,,,,,,,,,,,,,,,,,,,,,,,33_34ExpCorr,001,2021_May_10_1210,ComputerHuman,2020.1.3,60.0363789028746,
Computer.xlsx,c,Sychronize.jpg,Number7.jpg,7,Computer,,,,,0,7,7,9,0,9,9,2,,,,,,,,,,,,,,,,,,,,,,,,,,,,,840.4512253839775,None,840.4512253839775,None,840.9012228338006,None,840.9012228338006,None,v,3.233342774868106,840.9012228338006,None,t,7.872092758428153,840.9012228338006,None,3.233342774868106,7.872092758428153,6.932902413494245,False,False,False,848.8655947798043,None,848.8655947798043,None,848.8655947798043,None,848.8655947798043,None,848.8655947798043,None,848.8655947798043,None,848.8655947798043,None,848.8655947798043,None,849.8487600848257,None,849.8487600848257,None,850.8318775940825,None,850.8318775940825,None,c,,,,,,,,,,,,,,,,,,,,,,,,,,,,,,,,,,,,,,,,,,,,,,,33_34ExpCorr,001,2021_May_10_1210,ComputerHuman,2020.1.3,60.0363789028746,
Computer.xlsx,c,,,,,,,,,0,7,7,9,,,,,,,,,,,,,,,,,,,,,,,,,,,,,,,,,,,,,,,,,,,,,,,,,,,,,,,,,,,,,,,,,,,,,,,,,,,,,,,c,851.8323898748677,None,851.8323898748677,None,a,1,5.645114198197007,851.8323898748677,None,o,0,3.820427781721264,851.8323898748677,None,c,h,857.5636442314199,None,857.5636442314199,None,859.5630703614606,None,None,None,None,None,None,None,None,,,,,,,,,,,,,,,,,,33_34ExpCorr,001,2021_May_10_1210,ComputerHuman,2020.1.3,60.0363789028746,
Computer.xlsx,c,Sychronize.jpg,Number7.jpg,7,Computer,,,,,0,8,8,1,0,0,0,3,,,,,,,,,,,,,,,,,,,,,,,,,864.5486655518598,None,864.5486655518598,None,867.6280764514113,None,867.6280764514113,None,868.0611333498637,None,868.0611333498637,None,None,,868.0611333498637,None,t,2.65850952274468,868.0611333498637,None,13,2.65850952274468,7.060187624058549,False,False,False,881.1246689982872,None,881.1246689982872,None,881.1246689982872,None,881.1246689982872,None,881.1246689982872,None,881.1246689982872,None,881.1246689982872,None,881.1246689982872,None,882.157465554169,None,882.157465554169,None,883.123882132435,None,883.123882132435,None,c,,,,,,,,,,,,,,,,,,,,,,,,,,,,,,,,,,,,,,,,,,,,,,,33_34ExpCorr,001,2021_May_10_1210,ComputerHuman,2020.1.3,60.0363789028746,
Computer.xlsx,c,Sychronize.jpg,Number7.jpg,7,Computer,,,,,0,8,8,1,0,1,1,2,,,,,,,,,,,,,,,,,,,,,,,,,,,,,884.1908311683555,None,884.1908311683555,None,884.6239127666331,None,884.6239127666331,None,v,3.2272467297589174,884.6239127666331,None,t,3.866406024704702,884.6239127666331,None,3.2272467297589174,3.866406024704702,7.484079405763362,False,False,False,888.5724819570987,None,888.5724819570987,None,888.5724819570987,None,888.5724819570987,None,888.5724819570987,None,888.5724819570987,None,888.5724819570987,None,888.5724819570987,None,889.5722747351901,None,889.5722747351901,None,890.555381979585,None,890.555381979585,None,c,,,,,,,,,,,,,,,,,,,,,,,,,,,,,,,,,,,,,,,,,,,,,,,33_34ExpCorr,001,2021_May_10_1210,ComputerHuman,2020.1.3,60.0363789028746,
Computer.xlsx,c,Sychronize.jpg,Number8.jpg,8,Computer,,,,,0,8,8,1,0,2,2,5,,,,,,,,,,,,,,,,,,,,,,,,,,,,,891.6052448314013,None,891.6052448314013,None,892.0551938439048,None,892.0551938439048,None,v,3.807335591388437,892.0551938439048,None,t,4.814359323429926,892.0551938439048,None,3.807335591388437,4.814359323429926,8.141060068830544,False,False,False,896.9382870061918,None,896.9382870061918,None,896.9382870061918,None,896.9382870061918,None,896.9382870061918,None,896.9382870061918,None,896.9382870061918,None,896.9382870061918,None,897.936955140306,None,897.936955140306,None,898.9200588561544,None,898.9200588561544,None,c,,,,,,,,,,,,,,,,,,,,,,,,,,,,,,,,,,,,,,,,,,,,,,,33_34ExpCorr,001,2021_May_10_1210,ComputerHuman,2020.1.3,60.0363789028746,
Computer.xlsx,c,Sychronize.jpg,Number9.jpg,9,Computer,,,,,0,8,8,1,0,3,3,7,,,,,,,,,,,,,,,,,,,,,,,,,,,,,899.9702655808578,None,899.9702655808578,None,900.4200461854643,None,900.4200461854643,None,v,4.209814427328638,900.4200461854643,None,t,6.189220547303194,900.4200461854643,None,4.209814427328638,6.189220547303194,9.521618483239152,False,False,False,906.7011988396853,None,906.7011988396853,None,906.7011988396853,None,906.7011988396853,None,906.7011988396853,None,906.7011988396853,None,906.7011988396853,None,906.7011988396853,None,907.7010147137171,None,907.7010147137171,None,908.6842656661847,None,908.6842656661847,None,c,,,,,,,,,,,,,,,,,,,,,,,,,,,,,,,,,,,,,,,,,,,,,,,33_34ExpCorr,001,2021_May_10_1210,ComputerHuman,2020.1.3,60.0363789028746,
Computer.xlsx,c,Sychronize.jpg,Number9.jpg,9,Computer,,,,,0,8,8,1,0,4,4,6,,,,,,,,,,,,,,,,,,,,,,,,,,,,,909.7175953533533,None,909.7175953533533,None,910.1843370390552,None,910.1843370390552,None,v,3.944748095466821,910.1843370390552,None,t,5.832217938424037,910.1843370390552,None,3.944748095466821,5.832217938424037,8.642797192922462,False,False,False,916.0667463048894,None,916.0667463048894,None,916.0667463048894,None,916.0667463048894,None,916.0667463048894,None,916.0667463048894,None,916.0667463048894,None,916.0667463048894,None,917.082153542452,None,917.082153542452,None,918.0651876497022,None,918.0651876497022,None,c,,,,,,,,,,,,,,,,,,,,,,,,,,,,,,,,,,,,,,,,,,,,,,,33_34ExpCorr,001,2021_May_10_1210,ComputerHuman,2020.1.3,60.0363789028746,
Computer.xlsx,c,Sychronize.jpg,Number10.jpg,10,Computer,,,,,0,8,8,1,0,5,5,8,,,,,,,,,,,,,,,,,,,,,,,,,,,,,919.1318855172731,None,919.1318855172731,None,919.5820943591052,None,919.5820943591052,None,v,4.738248577114064,919.5820943591052,None,t,6.861175115021979,919.5820943591052,None,4.738248577114064,6.861175115021979,9.495195799246526,False,False,False,926.5296774812332,None,926.5296774812332,None,926.5296774812332,None,926.5296774812332,None,926.5296774812332,None,926.5296774812332,None,926.5296774812332,None,926.5296774812332,None,927.5294070662667,None,927.5294070662667,None,928.4960398481953,None,928.4960398481953,None,c,,,,,,,,,,,,,,,,,,,,,,,,,,,,,,,,,,,,,,,,,,,,,,,33_34ExpCorr,001,2021_May_10_1210,ComputerHuman,2020.1.3,60.0363789028746,
Computer.xlsx,c,Sychronize.jpg,Number6.jpg,6,Computer,,,,,0,8,8,1,0,6,6,1,,,,,,,,,,,,,,,,,,,,,,,,,,,,,929.5629202378495,None,929.5629202378495,None,929.9960640668551,None,929.9960640668551,None,v,2.879593806566845,929.9960640668551,None,t,5.834162488279617,929.9960640668551,None,2.879593806566845,5.834162488279617,5.795712045150366,False,False,True,935.9275489978763,None,935.9275489978763,None,935.9275489978763,None,935.9275489978763,None,935.9275489978763,None,935.9275489978763,None,935.9275489978763,None,935.9275489978763,None,936.9273254163436,None,936.9273254163436,None,937.9103896766273,None,937.9103896766273,None,c,,,,,,,,,,,,,,,,,,,,,,,,,,,,,,,,,,,,,,,,,,,,,,,33_34ExpCorr,001,2021_May_10_1210,ComputerHuman,2020.1.3,60.0363789028746,
Computer.xlsx,c,Sychronize.jpg,Number6.jpg,6,Computer,,,,,0,8,8,1,0,7,7,0,,,,,,,,,,,,,,,,,,,,,,,,,,,,,938.9434874420631,None,938.9434874420631,None,939.4103984979938,None,939.4103984979938,None,v,2.788476152319163,939.4103984979938,None,t,6.503296464300547,939.4103984979938,None,2.788476152319163,6.503296464300547,6.291857212065123,False,False,True,946.0083600888038,None,946.0083600888038,None,946.0083600888038,None,946.0083600888038,None,946.0083600888038,None,946.0083600888038,None,946.0083600888038,None,946.0083600888038,None,946.9914461619192,None,946.9914461619192,None,947.9745681620534,None,947.9745681620534,None,c,,,,,,,,,,,,,,,,,,,,,,,,,,,,,,,,,,,,,,,,,,,,,,,33_34ExpCorr,001,2021_May_10_1210,ComputerHuman,2020.1.3,60.0363789028746,
Computer.xlsx,c,Sychronize.jpg,Number8.jpg,8,Computer,,,,,0,8,8,1,0,8,8,4,,,,,,,,,,,,,,,,,,,,,,,,,,,,,949.0408926452583,None,949.0408926452583,None,949.4746562153259,None,949.4746562153259,None,v,3.891381076276957,949.4746562153259,None,t,7.470193245656446,949.4746562153259,None,3.891381076276957,7.470193245656446,7.588350560234149,False,False,True,957.0227658607355,None,957.0227658607355,None,957.0227658607355,None,957.0227658607355,None,957.0227658607355,None,957.0227658607355,None,957.0227658607355,None,957.0227658607355,None,958.0386430365252,None,958.0386430365252,None,959.0218433062346,None,959.0218433062346,None,c,,,,,,,,,,,,,,,,,,,,,,,,,,,,,,,,,,,,,,,,,,,,,,,33_34ExpCorr,001,2021_May_10_1210,ComputerHuman,2020.1.3,60.0363789028746,
Computer.xlsx,c,Sychronize.jpg,Number10.jpg,10,Computer,,,,,0,8,8,1,0,9,9,9,,,,,,,,,,,,,,,,,,,,,,,,,,,,,960.0718495453466,None,960.0718495453466,None,960.5218630340169,None,960.5218630340169,None,v,5.351191734476743,960.5218630340169,None,t,7.970135666194437,960.5218630340169,None,5.351191734476743,7.970135666194437,10.573028655402226,False,False,False,968.5709146409336,None,968.5709146409336,None,968.5709146409336,None,968.5709146409336,None,968.5709146409336,None,968.5709146409336,None,968.5709146409336,None,968.5709146409336,None,969.5858051068326,None,969.5858051068326,None,970.5689899792487,None,970.5689899792487,None,c,,,,,,,,,,,,,,,,,,,,,,,,,,,,,,,,,,,,,,,,,,,,,,,33_34ExpCorr,001,2021_May_10_1210,ComputerHuman,2020.1.3,60.0363789028746,
Computer.xlsx,c,,,,,,,,,0,8,8,1,,,,,,,,,,,,,,,,,,,,,,,,,,,,,,,,,,,,,,,,,,,,,,,,,,,,,,,,,,,,,,,,,,,,,,,,,,,,,,,c,971.5696324954743,None,971.5696324954743,None,a,0,3.1307541369797036,971.5696324954743,None,l,1,25.316904207342304,971.5696324954743,None,c,c,996.9796598545399,None,996.9796598545399,None,998.9619580994731,None,None,None,None,None,None,None,None,,,,,,,,,,,,,,,,,,33_34ExpCorr,001,2021_May_10_1210,ComputerHuman,2020.1.3,60.0363789028746,
Computer.xlsx,c,Sychronize.jpg,Number8.jpg,8,Computer,,,,,0,9,9,3,0,0,0,4,,,,,,,,,,,,,,,,,,,,,,,,,1003.9806295632525,None,1003.9806295632525,None,1007.0606467312346,None,1007.0606467312346,None,1007.493826487258,None,1007.493826487258,None,v,3.947689620074925,1007.493826487258,None,t,3.847335514403312,1007.493826487258,None,3.947689620074925,3.847335514403312,8.247307721331492,False,False,False,1011.5255426663807,None,1011.5255426663807,None,1011.5255426663807,None,1011.5255426663807,None,1011.5255426663807,None,1011.5255426663807,None,1011.5255426663807,None,1011.5255426663807,None,1012.5420062224312,None,1012.5420062224312,None,1013.5084231214732,None,1013.5084231214732,None,c,,,,,,,,,,,,,,,,,,,,,,,,,,,,,,,,,,,,,,,,,,,,,,,33_34ExpCorr,001,2021_May_10_1210,ComputerHuman,2020.1.3,60.0363789028746,
Computer.xlsx,c,Sychronize.jpg,Number6.jpg,6,Computer,,,,,0,9,9,3,0,1,1,1,,,,,,,,,,,,,,,,,,,,,,,,,,,,,1014.5752765658644,None,1014.5752765658644,None,1015.0084008274762,None,1015.0084008274762,None,v,2.880615160367597,1015.0084008274762,None,t,4.363349822338023,1015.0084008274762,None,2.880615160367597,4.363349822338023,6.283606717755207,False,False,False,1019.440807190279,None,1019.440807190279,None,1019.440807190279,None,1019.440807190279,None,1019.440807190279,None,1019.440807190279,None,1019.440807190279,None,1019.440807190279,None,1020.4566824414069,None,1020.4566824414069,None,1021.4398227258271,None,1021.4398227258271,None,c,,,,,,,,,,,,,,,,,,,,,,,,,,,,,,,,,,,,,,,,,,,,,,,33_34ExpCorr,001,2021_May_10_1210,ComputerHuman,2020.1.3,60.0363789028746,
Computer.xlsx,c,Sychronize.jpg,Number7.jpg,7,Computer,,,,,0,9,9,3,0,2,2,3,,,,,,,,,,,,,,,,,,,,,,,,,,,,,1022.4899919196287,None,1022.4899919196287,None,1022.9398511145873,None,1022.9398511145873,None,v,3.172612320850021,1022.9398511145873,None,t,6.155229097292249,1022.9398511145873,None,3.172612320850021,6.155229097292249,7.195752420900085,False,False,False,1029.1878469804142,None,1029.1878469804142,None,1029.1878469804142,None,1029.1878469804142,None,1029.1878469804142,None,1029.1878469804142,None,1029.1878469804142,None,1029.1878469804142,None,1030.170911240698,None,1030.170911240698,None,1031.1540656393036,None,1031.1540656393036,None,c,,,,,,,,,,,,,,,,,,,,,,,,,,,,,,,,,,,,,,,,,,,,,,,33_34ExpCorr,001,2021_May_10_1210,ComputerHuman,2020.1.3,60.0363789028746,
Computer.xlsx,c,Sychronize.jpg,Number9.jpg,9,Computer,,,,,0,9,9,3,0,3,3,7,,,,,,,,,,,,,,,,,,,,,,,,,,,,,1032.2040802186157,None,1032.2040802186157,None,1032.6542932305474,None,1032.6542932305474,None,v,4.845161929807546,1032.6542932305474,None,t,7.492118350012788,1032.6542932305474,None,4.845161929807546,7.492118350012788,8.552033725062083,False,False,False,1040.235089726123,None,1040.235089726123,None,1040.235089726123,None,1040.235089726123,None,1040.235089726123,None,1040.235089726123,None,1040.235089726123,None,1040.235089726123,None,1041.2349014300553,None,1041.2349014300553,None,1042.2180397898137,None,1042.2180397898137,None,c,,,,,,,,,,,,,,,,,,,,,,,,,,,,,,,,,,,,,,,,,,,,,,,33_34ExpCorr,001,2021_May_10_1210,ComputerHuman,2020.1.3,60.0363789028746,
Computer.xlsx,c,Sychronize.jpg,Number9.jpg,9,Computer,,,,,0,9,9,3,0,4,4,6,,,,,,,,,,,,,,,,,,,,,,,,,,,,,1043.2683158023383,None,1043.2683158023383,None,1043.7182420396794,None,1043.7182420396794,None,v,5.056324582645175,1043.7182420396794,None,t,6.891185723115996,1043.7182420396794,None,5.056324582645175,6.891185723115996,8.428305452192332,False,False,False,1050.667414611582,None,1050.667414611582,None,1050.667414611582,None,1050.667414611582,None,1050.667414611582,None,1050.667414611582,None,1050.667414611582,None,1050.667414611582,None,1051.6822486207393,None,1051.6822486207393,None,1052.6820413988307,None,1052.6820413988307,None,c,,,,,,,,,,,,,,,,,,,,,,,,,,,,,,,,,,,,,,,,,,,,,,,33_34ExpCorr,001,2021_May_10_1210,ComputerHuman,2020.1.3,60.0363789028746,
Computer.xlsx,c,Sychronize.jpg,Number10.jpg,10,Computer,,,,,0,9,9,3,0,5,5,8,,,,,,,,,,,,,,,,,,,,,,,,,,,,,1053.7316809898912,None,1053.7316809898912,None,1054.1815334485345,None,1054.1815334485345,None,v,5.280242930797613,1054.1815334485345,None,t,6.679199635854275,1054.1815334485345,None,5.280242930797613,6.679199635854275,10.270959870338213,False,False,False,1060.9467195905854,None,1060.9467195905854,None,1060.9467195905854,None,1060.9467195905854,None,1060.9467195905854,None,1060.9467195905854,None,1060.9467195905854,None,1060.9467195905854,None,1061.9464366653183,None,1061.9464366653183,None,1062.9128051270418,None,1062.9128051270418,None,c,,,,,,,,,,,,,,,,,,,,,,,,,,,,,,,,,,,,,,,,,,,,,,,33_34ExpCorr,001,2021_May_10_1210,ComputerHuman,2020.1.3,60.0363789028746,
Computer.xlsx,c,Sychronize.jpg,Number10.jpg,10,Computer,,,,,0,9,9,3,0,6,6,9,,,,,,,,,,,,,,,,,,,,,,,,,,,,,1063.979631626169,None,1063.979631626169,None,1064.4126801844204,None,1064.4126801844204,None,v,4.724317875840825,1064.4126801844204,None,t,6.435182045728652,1064.4126801844204,None,4.724317875840825,6.435182045728652,9.414050060222182,False,False,False,1070.944188018916,None,1070.944188018916,None,1070.944188018916,None,1070.944188018916,None,1070.944188018916,None,1070.944188018916,None,1070.944188018916,None,1070.944188018916,None,1071.9439156792878,None,1071.9439156792878,None,1072.9270235652366,None,1072.9270235652366,None,c,,,,,,,,,,,,,,,,,,,,,,,,,,,,,,,,,,,,,,,,,,,,,,,33_34ExpCorr,001,2021_May_10_1210,ComputerHuman,2020.1.3,60.0363789028746,
Computer.xlsx,c,Sychronize.jpg,Number6.jpg,6,Computer,,,,,0,9,9,3,0,7,7,0,,,,,,,,,,,,,,,,,,,,,,,,,,,,,1073.9769582710887,None,1073.9769582710887,None,1074.4270907680066,None,1074.4270907680066,None,v,2.4212696287431754,1074.4270907680066,None,t,6.7161508947592665,1074.4270907680066,None,2.4212696287431754,6.7161508947592665,5.906794072657136,False,False,False,1081.2417208271809,None,1081.2417208271809,None,1081.2417208271809,None,1081.2417208271809,None,1081.2417208271809,None,1081.2417208271809,None,1081.2417208271809,None,1081.2417208271809,None,1082.2247799550332,None,1082.2247799550332,None,1083.2079382029624,None,1083.2079382029624,None,c,,,,,,,,,,,,,,,,,,,,,,,,,,,,,,,,,,,,,,,,,,,,,,,33_34ExpCorr,001,2021_May_10_1210,ComputerHuman,2020.1.3,60.0363789028746,
Computer.xlsx,c,Sychronize.jpg,Number7.jpg,7,Computer,,,,,0,9,9,3,0,8,8,2,,,,,,,,,,,,,,,,,,,,,,,,,,,,,1084.2747958174532,None,1084.2747958174532,None,1084.708186644708,None,1084.708186644708,None,v,3.687274233174321,1084.708186644708,None,t,6.0622842975517415,1084.708186644708,None,3.687274233174321,6.0622842975517415,7.200349217363056,False,False,False,1090.8558755590739,None,1090.8558755590739,None,1090.8558755590739,None,1090.8558755590739,None,1090.8558755590739,None,1090.8558755590739,None,1090.8558755590739,None,1090.8558755590739,None,1091.8555047409227,None,1091.8555047409227,None,1092.8388198487792,None,1092.8388198487792,None,c,,,,,,,,,,,,,,,,,,,,,,,,,,,,,,,,,,,,,,,,,,,,,,,33_34ExpCorr,001,2021_May_10_1210,ComputerHuman,2020.1.3,60.0363789028746,
Computer.xlsx,c,Sychronize.jpg,Number8.jpg,8,Computer,,,,,0,9,9,3,0,9,9,5,,,,,,,,,,,,,,,,,,,,,,,,,,,,,1093.8886676240782,None,1093.8886676240782,None,1094.3389204123523,None,1094.3389204123523,None,v,4.243780215183506,1094.3389204123523,None,t,6.155367031379683,1094.3389204123523,None,4.243780215183506,6.155367031379683,7.732818461064834,False,False,False,1100.5701284166353,None,1100.5701284166353,None,1100.5701284166353,None,1100.5701284166353,None,1100.5701284166353,None,1100.5701284166353,None,1100.5701284166353,None,1100.5701284166353,None,1101.5699638580609,None,1101.5699638580609,None,1102.569705953395,None,1102.569705953395,None,c,,,,,,,,,,,,,,,,,,,,,,,,,,,,,,,,,,,,,,,,,,,,,,,33_34ExpCorr,001,2021_May_10_1210,ComputerHuman,2020.1.3,60.0363789028746,
Computer.xlsx,c,,,,,,,,,0,9,9,3,,,,,,,,,,,,,,,,,,,,,,,,,,,,,,,,,,,,,,,,,,,,,,,,,,,,,,,,,,,,,,,,,,,,,,,,,,,,,,,c,1103.5707468745895,None,1103.5707468745895,None,a,1,3.715248228429118,1103.5707468745895,None,l,0,2.4264877073455864,1103.5707468745895,None,c,c,1107.369296706166,None,1107.369296706166,None,None,None,1109.3681438338162,None,1109.3681438338162,None,"['space', 'space']",1110.3511359192871,None,"[410.3345838287996, 419.8861007669457]",,,,,,,,,,,,,,,,,33_34ExpCorr,001,2021_May_10_1210,ComputerHuman,2020.1.3,60.0363789028746,
Computer.xlsx,c,Sychronize.jpg,Number6.jpg,6,Computer,,,,,1,0,10,1,0,0,0,0,,,,,,,,,,,,,,,,,,,,,,,,,1530.3006267019218,None,1530.3006267019218,None,1533.3640821561085,None,1533.3640821561085,None,1533.7971868503264,None,1533.7971868503264,None,v,2.9832615381064898,1533.7971868503264,None,t,2.594477311607079,1533.7971868503264,None,2.9832615381064898,2.594477311607079,5.816108202416829,False,False,False,1536.8959162207593,None,1536.8959162207593,None,1536.8959162207593,None,1536.8959162207593,None,1536.8959162207593,None,1536.8959162207593,None,1536.8959162207593,None,1536.8959162207593,None,1537.895475794011,None,1537.895475794011,None,1538.8787398983322,None,1538.8787398983322,None,c,,,,,,,,,,,,,,,,,,,,,,,,,,,,,,,,,,,,,,,,,,,,,,,33_34ExpCorr,001,2021_May_10_1210,ComputerHuman,2020.1.3,60.0363789028746,
Computer.xlsx,c,Sychronize.jpg,Number7.jpg,7,Computer,,,,,1,0,10,1,0,1,1,2,,,,,,,,,,,,,,,,,,,,,,,,,,,,,1539.9285286506738,None,1539.9285286506738,None,1540.3785857650091,None,1540.3785857650091,None,v,3.409359822238912,1540.3785857650091,None,t,5.0043920779644395,1540.3785857650091,None,3.409359822238912,5.0043920779644395,6.990259427689034,False,False,False,1545.4617215264743,None,1545.4617215264743,None,1545.4617215264743,None,1545.4617215264743,None,1545.4617215264743,None,1545.4617215264743,None,1545.4617215264743,None,1545.4617215264743,None,1546.4601134716368,None,1546.4601134716368,None,1547.4433724435276,None,1547.4433724435276,None,c,,,,,,,,,,,,,,,,,,,,,,,,,,,,,,,,,,,,,,,,,,,,,,,33_34ExpCorr,001,2021_May_10_1210,ComputerHuman,2020.1.3,60.0363789028746,
Computer.xlsx,c,Sychronize.jpg,Number10.jpg,10,Computer,,,,,1,0,10,1,0,2,2,9,,,,,,,,,,,,,,,,,,,,,,,,,,,,,1548.5101947725543,None,1548.5101947725543,None,1548.9598736908692,None,1548.9598736908692,None,v,5.399194721551794,1548.9598736908692,None,t,6.754232571627654,1548.9598736908692,None,5.399194721551794,6.754232571627654,9.753832927579257,False,False,False,1555.8079280664106,None,1555.8079280664106,None,1555.8079280664106,None,1555.8079280664106,None,1555.8079280664106,None,1555.8079280664106,None,1555.8079280664106,None,1555.8079280664106,None,1556.8076011947014,None,1556.8076011947014,None,1557.7907934449868,None,1557.7907934449868,None,c,,,,,,,,,,,,,,,,,,,,,,,,,,,,,,,,,,,,,,,,,,,,,,,33_34ExpCorr,001,2021_May_10_1210,ComputerHuman,2020.1.3,60.0363789028746,
Computer.xlsx,c,Sychronize.jpg,Number10.jpg,10,Computer,,,,,1,0,10,1,0,3,3,8,,,,,,,,,,,,,,,,,,,,,,,,,,,,,1558.8413071532295,None,1558.8413071532295,None,1559.2910072428222,None,1559.2910072428222,None,v,5.255387529025938,1559.2910072428222,None,t,6.9621688499282754,1559.2910072428222,None,5.255387529025938,6.9621688499282754,9.49117652781508,False,False,False,1566.3063451925636,None,1566.3063451925636,None,1566.3063451925636,None,1566.3063451925636,None,1566.3063451925636,None,1566.3063451925636,None,1566.3063451925636,None,1566.3063451925636,None,1567.3216112882683,None,1567.3216112882683,None,1568.304799047677,None,1568.304799047677,None,c,,,,,,,,,,,,,,,,,,,,,,,,,,,,,,,,,,,,,,,,,,,,,,,33_34ExpCorr,001,2021_May_10_1210,ComputerHuman,2020.1.3,60.0363789028746,
Computer.xlsx,c,Sychronize.jpg,Number6.jpg,6,Computer,,,,,1,0,10,1,0,4,4,1,,,,,,,,,,,,,,,,,,,,,,,,,,,,,1569.3712329158207,None,1569.3712329158207,None,1569.8213115222115,None,1569.8213115222115,None,v,3.3003065665288887,1569.8213115222115,None,t,6.475194799821111,1569.8213115222115,None,3.3003065665288887,6.475194799821111,6.212865678305247,False,False,True,1576.3711793460698,None,1576.3711793460698,None,1576.3711793460698,None,1576.3711793460698,None,1576.3711793460698,None,1576.3711793460698,None,1576.3711793460698,None,1576.3711793460698,None,1577.3858568160767,None,1577.3858568160767,None,1578.35237668452,None,1578.35237668452,None,c,,,,,,,,,,,,,,,,,,,,,,,,,,,,,,,,,,,,,,,,,,,,,,,33_34ExpCorr,001,2021_May_10_1210,ComputerHuman,2020.1.3,60.0363789028746,
Computer.xlsx,c,Sychronize.jpg,Number8.jpg,8,Computer,,,,,1,0,10,1,0,5,5,4,,,,,,,,,,,,,,,,,,,,,,,,,,,,,1579.4194216327478,None,1579.4194216327478,None,1579.852355352853,None,1579.852355352853,None,v,4.77266216958742,1579.852355352853,None,t,6.34725548055485,1579.852355352853,None,4.77266216958742,6.34725548055485,8.390859714264167,False,False,False,1586.2685785186577,None,1586.2685785186577,None,1586.2685785186577,None,1586.2685785186577,None,1586.2685785186577,None,1586.2685785186577,None,1586.2685785186577,None,1586.2685785186577,None,1587.2834333783167,None,1587.2834333783167,None,1588.266572379629,None,1588.266572379629,None,c,,,,,,,,,,,,,,,,,,,,,,,,,,,,,,,,,,,,,,,,,,,,,,,33_34ExpCorr,001,2021_May_10_1210,ComputerHuman,2020.1.3,60.0363789028746,
Computer.xlsx,c,Sychronize.jpg,Number7.jpg,7,Computer,,,,,1,0,10,1,0,6,6,3,,,,,,,,,,,,,,,,,,,,,,,,,,,,,1589.3168570531307,None,1589.3168570531307,None,1589.766612316359,None,1589.766612316359,None,v,3.8934170475622523,1589.766612316359,None,t,5.996261665454767,1589.766612316359,None,3.8934170475622523,5.996261665454767,7.132086597986044,False,False,False,1595.8326914051986,None,1595.8326914051986,None,1595.8326914051986,None,1595.8326914051986,None,1595.8326914051986,None,1595.8326914051986,None,1595.8326914051986,None,1595.8326914051986,None,1596.8310641037442,None,1596.8310641037442,None,1597.814224917889,None,1597.814224917889,None,c,,,,,,,,,,,,,,,,,,,,,,,,,,,,,,,,,,,,,,,,,,,,,,,33_34ExpCorr,001,2021_May_10_1210,ComputerHuman,2020.1.3,60.0363789028746,
Computer.xlsx,c,Sychronize.jpg,Number9.jpg,9,Computer,,,,,1,0,10,1,0,7,7,6,,,,,,,,,,,,,,,,,,,,,,,,,,,,,1598.8811290450367,None,1598.8811290450367,None,1599.314167979981,None,1599.314167979981,None,v,5.316996591103816,1599.314167979981,None,t,7.180222753928319,1599.314167979981,None,5.316996591103816,7.180222753928319,8.993163019998676,False,False,False,1606.5790216367259,None,1606.5790216367259,None,1606.5790216367259,None,1606.5790216367259,None,1606.5790216367259,None,1606.5790216367259,None,1606.5790216367259,None,1606.5790216367259,None,1607.5782110333794,None,1607.5782110333794,None,1608.5615351229899,None,1608.5615351229899,None,c,,,,,,,,,,,,,,,,,,,,,,,,,,,,,,,,,,,,,,,,,,,,,,,33_34ExpCorr,001,2021_May_10_1210,ComputerHuman,2020.1.3,60.0363789028746,
Computer.xlsx,c,Sychronize.jpg,Number9.jpg,9,Computer,,,,,1,0,10,1,0,8,8,7,,,,,,,,,,,,,,,,,,,,,,,,,,,,,1609.5949729119902,None,1609.5949729119902,None,1610.0617716959887,None,1610.0617716959887,None,v,4.856610779836956,1610.0617716959887,None,t,7.104239356060134,1610.0617716959887,None,4.856610779836956,7.104239356060134,9.662750130822992,False,False,False,1617.2265224154116,None,1617.2265224154116,None,1617.2265224154116,None,1617.2265224154116,None,1617.2265224154116,None,1617.2265224154116,None,1617.2265224154116,None,1617.2265224154116,None,1618.2424839555388,None,1618.2424839555388,None,1619.2422889231548,None,1619.2422889231548,None,c,,,,,,,,,,,,,,,,,,,,,,,,,,,,,,,,,,,,,,,,,,,,,,,33_34ExpCorr,001,2021_May_10_1210,ComputerHuman,2020.1.3,60.0363789028746,
Computer.xlsx,c,Sychronize.jpg,Number8.jpg,8,Computer,,,,,1,0,10,1,0,9,9,5,,,,,,,,,,,,,,,,,,,,,,,,,,,,,1620.2921902682046,None,1620.2921902682046,None,1620.7423048016135,None,1620.7423048016135,None,v,4.92721378596616,1620.7423048016135,None,t,6.498158900710223,1620.7423048016135,None,4.92721378596616,6.498158900710223,7.638434159984552,False,False,False,1627.3085980090655,None,1627.3085980090655,None,1627.3085980090655,None,1627.3085980090655,None,1627.3085980090655,None,1627.3085980090655,None,1627.3085980090655,None,1627.3085980090655,None,1628.3233345020299,None,1628.3233345020299,None,1629.2896984728768,None,1629.2896984728768,None,c,,,,,,,,,,,,,,,,,,,,,,,,,,,,,,,,,,,,,,,,,,,,,,,33_34ExpCorr,001,2021_May_10_1210,ComputerHuman,2020.1.3,60.0363789028746,
Computer.xlsx,c,,,,,,,,,1,0,10,1,,,,,,,,,,,,,,,,,,,,,,,,,,,,,,,,,,,,,,,,,,,,,,,,,,,,,,,,,,,,,,,,,,,,,,,,,,,,,,,c,1630.2901337671947,None,1630.2901337671947,None,q,0,2.9427932807502657,1630.2901337671947,None,l,1,3.890536470575171,1630.2901337671947,None,h,c,1634.2556152806583,None,1634.2556152806583,None,1636.2713740897552,None,None,None,None,None,None,None,None,,,,,,,,,,,,,,,,,,33_34ExpCorr,001,2021_May_10_1210,ComputerHuman,2020.1.3,60.0363789028746,
Computer.xlsx,c,Sychronize.jpg,Number6.jpg,6,Computer,,,,,1,1,11,5,0,0,0,0,,,,,,,,,,,,,,,,,,,,,,,,,1641.2724413146589,None,1641.2724413146589,None,1644.3364157859469,None,1644.3364157859469,None,1644.786305775492,None,1644.786305775492,None,v,3.2414619601850063,1644.786305775492,None,t,2.47652634492988,1644.786305775492,None,3.2414619601850063,2.47652634492988,6.446776241129904,False,False,False,1648.1030486320305,None,1648.1030486320305,None,1648.1030486320305,None,1648.1030486320305,None,1648.1030486320305,None,1648.1030486320305,None,1648.1030486320305,None,1648.1030486320305,None,1649.118060351616,None,1649.118060351616,None,1650.1013010392207,None,1650.1013010392207,None,c,,,,,,,,,,,,,,,,,,,,,,,,,,,,,,,,,,,,,,,,,,,,,,,33_34ExpCorr,001,2021_May_10_1210,ComputerHuman,2020.1.3,60.0363789028746,
Computer.xlsx,c,Sychronize.jpg,Number10.jpg,10,Computer,,,,,1,1,11,5,0,1,1,9,,,,,,,,,,,,,,,,,,,,,,,,,,,,,1651.1682327531862,None,1651.1682327531862,None,1651.6015555757285,None,1651.6015555757285,None,v,5.673534394185481,1651.6015555757285,None,t,5.360285119382752,1651.6015555757285,None,5.673534394185481,5.360285119382752,9.33405521089737,False,False,False,1657.3501219433565,None,1657.3501219433565,None,1657.3501219433565,None,1657.3501219433565,None,1657.3501219433565,None,1657.3501219433565,None,1657.3501219433565,None,1657.3501219433565,None,1658.3659404169648,None,1658.3659404169648,None,1659.3490406042665,None,1659.3490406042665,None,c,,,,,,,,,,,,,,,,,,,,,,,,,,,,,,,,,,,,,,,,,,,,,,,33_34ExpCorr,001,2021_May_10_1210,ComputerHuman,2020.1.3,60.0363789028746,
Computer.xlsx,c,Sychronize.jpg,Number6.jpg,6,Computer,,,,,1,1,11,5,0,2,2,1,,,,,,,,,,,,,,,,,,,,,,,,,,,,,1660.3993156544602,None,1660.3993156544602,None,1660.849208530998,None,1660.849208530998,None,v,3.0613482704184207,1660.849208530998,None,t,6.796193083343496,1660.849208530998,None,3.0613482704184207,6.796193083343496,6.3135562727450765,False,False,False,1667.7303295566126,None,1667.7303295566126,None,1667.7303295566126,None,1667.7303295566126,None,1667.7303295566126,None,1667.7303295566126,None,1667.7303295566126,None,1667.7303295566126,None,1668.7132616567933,None,1668.7132616567933,None,1669.7131554796233,None,1669.7131554796233,None,c,,,,,,,,,,,,,,,,,,,,,,,,,,,,,,,,,,,,,,,,,,,,,,,33_34ExpCorr,001,2021_May_10_1210,ComputerHuman,2020.1.3,60.0363789028746,
Computer.xlsx,c,Sychronize.jpg,Number7.jpg,7,Computer,,,,,1,1,11,5,0,3,3,3,,,,,,,,,,,,,,,,,,,,,,,,,,,,,1670.763962698773,None,1670.763962698773,None,1671.2132053604391,None,1671.2132053604391,None,v,3.6364477674078444,1671.2132053604391,None,t,7.1431563360984,1671.2132053604391,None,3.6364477674078444,7.1431563360984,6.73506161020501,False,False,False,1678.4284223131153,None,1678.4284223131153,None,1678.4284223131153,None,1678.4284223131153,None,1678.4284223131153,None,1678.4284223131153,None,1678.4284223131153,None,1678.4284223131153,None,1679.4274128280622,None,1679.4274128280622,None,1680.4105258464415,None,1680.4105258464415,None,c,,,,,,,,,,,,,,,,,,,,,,,,,,,,,,,,,,,,,,,,,,,,,,,33_34ExpCorr,001,2021_May_10_1210,ComputerHuman,2020.1.3,60.0363789028746,
Computer.xlsx,c,Sychronize.jpg,Number9.jpg,9,Computer,,,,,1,1,11,5,0,4,4,7,,,,,,,,,,,,,,,,,,,,,,,,,,,,,1681.477172710478,None,1681.477172710478,None,1681.9104849473806,None,1681.9104849473806,None,v,4.858292934150086,1681.9104849473806,None,t,7.021217470411102,1681.9104849473806,None,4.858292934150086,7.021217470411102,8.767749842595334,False,False,False,1689.0249901280895,None,1689.0249901280895,None,1689.0249901280895,None,1689.0249901280895,None,1689.0249901280895,None,1689.0249901280895,None,1689.0249901280895,None,1689.0249901280895,None,1690.024765263449,None,1690.024765263449,None,1691.0078760363895,None,1691.0078760363895,None,c,,,,,,,,,,,,,,,,,,,,,,,,,,,,,,,,,,,,,,,,,,,,,,,33_34ExpCorr,001,2021_May_10_1210,ComputerHuman,2020.1.3,60.0363789028746,
Computer.xlsx,c,Sychronize.jpg,Number9.jpg,9,Computer,,,,,1,1,11,5,0,5,5,6,,,,,,,,,,,,,,,,,,,,,,,,,,,,,1692.0415082162199,None,1692.0415082162199,None,1692.5077199784046,None,1692.5077199784046,None,v,5.280162415783707,1692.5077199784046,None,t,7.283125111670415,1692.5077199784046,None,5.280162415783707,7.283125111670415,9.592470470196284,False,False,False,1699.872377608357,None,1699.872377608357,None,1699.872377608357,None,1699.872377608357,None,1699.872377608357,None,1699.872377608357,None,1699.872377608357,None,1699.872377608357,None,1700.8718768755425,None,1700.8718768755425,None,1701.8552080222462,None,1701.8552080222462,None,c,,,,,,,,,,,,,,,,,,,,,,,,,,,,,,,,,,,,,,,,,,,,,,,33_34ExpCorr,001,2021_May_10_1210,ComputerHuman,2020.1.3,60.0363789028746,
Computer.xlsx,c,Sychronize.jpg,Number8.jpg,8,Computer,,,,,1,1,11,5,0,6,6,5,,,,,,,,,,,,,,,,,,,,,,,,,,,,,1702.9218337150041,None,1702.9218337150041,None,1703.3718468828974,None,1703.3718468828974,None,v,4.139358016263941,1703.3718468828974,None,t,6.434180580099564,1703.3718468828974,None,4.139358016263941,6.434180580099564,7.836330081793581,False,False,False,1709.8881174916141,None,1709.8881174916141,None,1709.8881174916141,None,1709.8881174916141,None,1709.8881174916141,None,1709.8881174916141,None,1709.8881174916141,None,1709.8881174916141,None,1710.9029508592166,None,1710.9029508592166,None,1711.8694376876338,None,1711.8694376876338,None,c,,,,,,,,,,,,,,,,,,,,,,,,,,,,,,,,,,,,,,,,,,,,,,,33_34ExpCorr,001,2021_May_10_1210,ComputerHuman,2020.1.3,60.0363789028746,
Computer.xlsx,c,Sychronize.jpg,Number10.jpg,10,Computer,,,,,1,1,11,5,0,7,7,8,,,,,,,,,,,,,,,,,,,,,,,,,,,,,1712.936060814176,None,1712.936060814176,None,1713.3691963029814,None,1713.3691963029814,None,v,6.02899951915515,1713.3691963029814,None,t,6.240244611669368,1713.3691963029814,None,6.02899951915515,6.240244611669368,10.319769010314204,False,False,False,1719.7008328331885,None,1719.7008328331885,None,1719.7008328331885,None,1719.7008328331885,None,1719.7008328331885,None,1719.7008328331885,None,1719.7008328331885,None,1719.7008328331885,None,1720.7004726006762,None,1720.7004726006762,None,1721.6836484913374,None,1721.6836484913374,None,c,,,,,,,,,,,,,,,,,,,,,,,,,,,,,,,,,,,,,,,,,,,,,,,33_34ExpCorr,001,2021_May_10_1210,ComputerHuman,2020.1.3,60.0363789028746,
Computer.xlsx,c,Sychronize.jpg,Number8.jpg,8,Computer,,,,,1,1,11,5,0,8,8,4,,,,,,,,,,,,,,,,,,,,,,,,,,,,,1722.734678329688,None,1722.734678329688,None,1723.1834276364089,None,1723.1834276364089,None,v,4.418112542025483,1723.1834276364089,None,t,6.565182036106307,1723.1834276364089,None,4.418112542025483,6.565182036106307,7.761206189327244,False,False,False,1729.8316270672867,None,1729.8316270672867,None,1729.8316270672867,None,1729.8316270672867,None,1729.8316270672867,None,1729.8316270672867,None,1729.8316270672867,None,1729.8316270672867,None,1730.8145424870663,None,1730.8145424870663,None,1731.7978251964514,None,1731.7978251964514,None,c,,,,,,,,,,,,,,,,,,,,,,,,,,,,,,,,,,,,,,,,,,,,,,,33_34ExpCorr,001,2021_May_10_1210,ComputerHuman,2020.1.3,60.0363789028746,
Computer.xlsx,c,Sychronize.jpg,Number7.jpg,7,Computer,,,,,1,1,11,5,0,9,9,2,,,,,,,,,,,,,,,,,,,,,,,,,,,,,1732.8646353359545,None,1732.8646353359545,None,1733.2976085116234,None,1733.2976085116234,None,v,3.9191767195488865,1733.2976085116234,None,t,6.130238648424893,1733.2976085116234,None,3.9191767195488865,6.130238648424893,7.516282428158386,False,False,False,1739.5126034866526,None,1739.5126034866526,None,1739.5126034866526,None,1739.5126034866526,None,1739.5126034866526,None,1739.5126034866526,None,1739.5126034866526,None,1739.5126034866526,None,1740.5123128627383,None,1740.5123128627383,None,1741.4954512224967,None,1741.4954512224967,None,c,,,,,,,,,,,,,,,,,,,,,,,,,,,,,,,,,,,,,,,,,,,,,,,33_34ExpCorr,001,2021_May_10_1210,ComputerHuman,2020.1.3,60.0363789028746,
