Condition,CorrectTuringReply,Sychronize,NumberImage,Number,Partner,trials.thisRepN,trials.thisTrialN,trials.thisN,trials.thisIndex,Block.thisRepN,Block.thisTrialN,Block.thisN,Block.thisIndex,trials_loop.thisRepN,trials_loop.thisTrialN,trials_loop.thisN,trials_loop.thisIndex,key_resp_Istr.keys,key_resp_Istr.rt,key_resp_Istr.started,key_resp_Istr.stopped,key_respPrLeft.keys,key_respPrRight.keys,key_respPrRight.rt,RTPrLeft,RTPrRight,CompPr,SychronizedRTsPr,SychronizedRTsLeftCPr,SychronizedRTsRightCPr,CreditLeftPr.started,CreditLeftPr.stopped,CreditRightPr.started,CreditRightPr.stopped,key_respPrLeft.rt,text_StartExp.started,text_StartExp.stopped,key_startExp.keys,key_startExp.rt,key_startExp.started,key_startExp.stopped,SychroLeft.started,SychroLeft.stopped,SychroRight.started,SychroRight.stopped,NumberLeft.started,NumberLeft.stopped,NumberRight.started,NumberRight.stopped,CrossLeft.started,CrossLeft.stopped,CrossRight.started,CrossRight.stopped,key_respLeft.keys,key_respLeft.rt,key_respLeft.started,key_respLeft.stopped,key_respRight.keys,key_respRight.rt,key_respRight.started,key_respRight.stopped,RTLeft,RTRight,Comp,SychronizedRTs,SychronizedRTsLeftC,SychronizedRTsRightC,FeedbackLeftLeft.started,FeedbackLeftLeft.stopped,FeedbackLeftRight.started,FeedbackLeftRight.stopped,FeedbackRightLeft.started,FeedbackRightLeft.stopped,FeedbackRightRight.started,FeedbackRightRight.stopped,textLeftLeft.started,textLeftLeft.stopped,textLeftRight.started,textLeftRight.stopped,textRightLeft.started,textRightLeft.stopped,textRightRight.started,textRightRight.stopped,CreditLeft.started,CreditLeft.stopped,CreditRight.started,CreditRight.stopped,BlankLeft.started,BlankLeft.stopped,BlankRight.started,BlankRight.stopped,CorrectTuringReply,TuringtextLeft.started,TuringtextLeft.stopped,TuringtextRight.started,TuringtextRight.stopped,keyTuringLeft.keys,keyTuringLeft.corr,keyTuringLeft.rt,keyTuringLeft.started,keyTuringLeft.stopped,keyTuringRight.keys,keyTuringRight.corr,keyTuringRight.rt,keyTuringRight.started,keyTuringRight.stopped,RespTuringLeft,RespTuringRight,ScoreLeft.started,ScoreLeft.stopped,ScoreRight.started,ScoreRight.stopped,BlockText.started,BlockText.stopped,text_Pause.started,text_Pause.stopped,text_LongPause.started,text_LongPause.stopped,key_respPause.keys,key_respPause.started,key_respPause.stopped,key_respPause.rt,QuestImageLeft.started,QuestImageLeft.stopped,QuestImageRight.started,QuestImageRight.stopped,respQuestLeft.keys,respQuestLeft.rt,respQuestLeft.started,respQuestLeft.stopped,respQuestRight.keys,respQuestRight.rt,respQuestRight.started,respQuestRight.stopped,RespInclusionLeft,RespInclusionRight,EndText.started,EndText.stopped,participant,session,date,expName,psychopyVersion,frameRate,
,,,,,,,,,,,,,,,,,,"['v', 'v', 't']","[105.3344754061909, 118.46542553788822, 122.85701977044664]",16.879163644680375,None,,,,,,,,,,,,,,,,,,,,,,,,,,,,,,,,,,,,,,,,,,,,,,,,,,,,,,,,,,,,,,,,,,,,,,,,,,,,,,,,,,,,,,,,,,,,,,,,,,,,,,,,,,,,,,,,,,,,,,35_36Exp,001,2021_May_10_1553,ComputerHuman,2020.1.3,60.00898951768544,
,,,,,,,,,,,,,,,,,,,,,,v,t,3.9904382807508227,3.3589660845718754,3.9904382807508227,6,False,False,False,203.33314386108395,None,203.33314386108395,None,3.3589660845718754,204.3494691622691,None,"['space', 'space']","[2.0303766145916597, 111.58980006293496]",205.3325770482188,None,,,,,,,,,,,,,,,,,,,,,,,,,,,,,,,,,,,,,,,,,,,,,,,,,,,,,,,,,,,,,,,,,,,,,,,,,,,,,,,,,,,,,,,,,,,,,,,,,,35_36Exp,001,2021_May_10_1553,ComputerHuman,2020.1.3,60.00898951768544,
Computer.xlsx,c,Sychronize.jpg,Number10.jpg,10,Computer,,,,,0,0,0,1,0,0,0,8,,,,,,,,,,,,,,,,,,,,,,,,,317.00764315232664,None,317.00764315232664,None,320.0374805408683,None,320.0374805408683,None,320.4879482496981,None,320.4879482496981,None,v,3.6938671617717773,320.4879482496981,None,t,6.305288553299761,320.4879482496981,None,3.6938671617717773,6.305288553299761,10.657716901252089,False,False,False,326.8860048546376,None,326.8860048546376,None,326.8860048546376,None,326.8860048546376,None,326.8860048546376,None,326.8860048546376,None,326.8860048546376,None,326.8860048546376,None,327.8857408552103,None,327.8857408552103,None,328.8854906491906,None,328.8854906491906,None,c,,,,,,,,,,,,,,,,,,,,,,,,,,,,,,,,,,,,,,,,,,,,,,,35_36Exp,001,2021_May_10_1553,ComputerHuman,2020.1.3,60.00898951768544,
Computer.xlsx,c,Sychronize.jpg,Number6.jpg,6,Computer,,,,,0,0,0,1,0,1,1,0,,,,,,,,,,,,,,,,,,,,,,,,,,,,,329.95248876398546,None,329.95248876398546,None,330.3847427577384,None,330.3847427577384,None,v,3.6963313702872256,330.3847427577384,None,t,3.7473968148806307,330.3847427577384,None,3.6963313702872256,3.7473968148806307,6.1972860018369715,False,False,False,334.21745597576955,None,334.21745597576955,None,334.21745597576955,None,334.21745597576955,None,334.21745597576955,None,334.21745597576955,None,334.21745597576955,None,334.21745597576955,None,335.2172323942359,None,335.2172323942359,None,336.20030884404696,None,336.20030884404696,None,c,,,,,,,,,,,,,,,,,,,,,,,,,,,,,,,,,,,,,,,,,,,,,,,35_36Exp,001,2021_May_10_1553,ComputerHuman,2020.1.3,60.00898951768544,
Computer.xlsx,c,Sychronize.jpg,Number6.jpg,6,Computer,,,,,0,0,0,1,0,2,2,1,,,,,,,,,,,,,,,,,,,,,,,,,,,,,337.2341460003445,None,337.2341460003445,None,337.7001694664614,None,337.7001694664614,None,v,2.188383640248503,337.7001694664614,None,t,3.5514293660417025,337.7001694664614,None,2.188383640248503,3.5514293660417025,6.406235209736483,False,False,False,341.3491188738408,None,341.3491188738408,None,341.3491188738408,None,341.3491188738408,None,341.3491188738408,None,341.3491188738408,None,341.3491188738408,None,341.3491188738408,None,342.33219500287305,None,342.33219500287305,None,343.3152900577443,None,343.3152900577443,None,c,,,,,,,,,,,,,,,,,,,,,,,,,,,,,,,,,,,,,,,,,,,,,,,35_36Exp,001,2021_May_10_1553,ComputerHuman,2020.1.3,60.00898951768544,
Computer.xlsx,c,Sychronize.jpg,Number8.jpg,8,Computer,,,,,0,0,0,1,0,3,3,4,,,,,,,,,,,,,,,,,,,,,,,,,,,,,344.365194289785,None,344.365194289785,None,344.8154695324447,None,344.8154695324447,None,v,2.6205077193335455,344.8154695324447,None,t,4.431289096697583,344.8154695324447,None,2.6205077193335455,4.431289096697583,8.566792069980183,False,False,False,349.330423351792,None,349.330423351792,None,349.330423351792,None,349.330423351792,None,349.330423351792,None,349.330423351792,None,349.330423351792,None,349.330423351792,None,350.3302103558999,None,350.3302103558999,None,351.3132919381387,None,351.3132919381387,None,c,,,,,,,,,,,,,,,,,,,,,,,,,,,,,,,,,,,,,,,,,,,,,,,35_36Exp,001,2021_May_10_1553,ComputerHuman,2020.1.3,60.00898951768544,
Computer.xlsx,c,Sychronize.jpg,Number8.jpg,8,Computer,,,,,0,0,0,1,0,4,4,5,,,,,,,,,,,,,,,,,,,,,,,,,,,,,352.3472458572469,None,352.3472458572469,None,352.81345409088317,None,352.81345409088317,None,v,3.7899337627677596,352.81345409088317,None,t,4.27340172084223,352.81345409088317,None,3.7899337627677596,4.27340172084223,8.310448279030302,False,False,False,357.1633816434114,None,357.1633816434114,None,357.1633816434114,None,357.1633816434114,None,357.1633816434114,None,357.1633816434114,None,357.1633816434114,None,357.1633816434114,None,358.16153172275517,None,358.16153172275517,None,359.14467393183804,None,359.14467393183804,None,c,,,,,,,,,,,,,,,,,,,,,,,,,,,,,,,,,,,,,,,,,,,,,,,35_36Exp,001,2021_May_10_1553,ComputerHuman,2020.1.3,60.00898951768544,
Computer.xlsx,c,Sychronize.jpg,Number9.jpg,9,Computer,,,,,0,0,0,1,0,5,5,6,,,,,,,,,,,,,,,,,,,,,,,,,,,,,360.1949483404751,None,360.1949483404751,None,360.6444527561325,None,360.6444527561325,None,v,2.50228537536168,360.6444527561325,None,t,4.965262422807427,360.6444527561325,None,2.50228537536168,4.965262422807427,9.238372983356498,False,False,False,365.6929320969721,None,365.6929320969721,None,365.6929320969721,None,365.6929320969721,None,365.6929320969721,None,365.6929320969721,None,365.6929320969721,None,365.6929320969721,None,366.6927473294527,None,366.6927473294527,None,367.6758382142216,None,367.6758382142216,None,c,,,,,,,,,,,,,,,,,,,,,,,,,,,,,,,,,,,,,,,,,,,,,,,35_36Exp,001,2021_May_10_1553,ComputerHuman,2020.1.3,60.00898951768544,
Computer.xlsx,c,Sychronize.jpg,Number9.jpg,9,Computer,,,,,0,0,0,1,0,6,6,7,,,,,,,,,,,,,,,,,,,,,,,,,,,,,368.7094771303673,None,368.7094771303673,None,369.1761723034142,None,369.1761723034142,None,v,3.133868239583535,369.1761723034142,None,t,5.537285348094883,369.1761723034142,None,3.133868239583535,5.537285348094883,8.51120295993989,False,False,False,374.8075142641501,None,374.8075142641501,None,374.8075142641501,None,374.8075142641501,None,374.8075142641501,None,374.8075142641501,None,374.8075142641501,None,374.8075142641501,None,375.7906183007726,None,375.7906183007726,None,376.77369154281405,None,376.77369154281405,None,c,,,,,,,,,,,,,,,,,,,,,,,,,,,,,,,,,,,,,,,,,,,,,,,35_36Exp,001,2021_May_10_1553,ComputerHuman,2020.1.3,60.00898951768544,
Computer.xlsx,c,Sychronize.jpg,Number7.jpg,7,Computer,,,,,0,0,0,1,0,7,7,2,,,,,,,,,,,,,,,,,,,,,,,,,,,,,377.82362913565885,None,377.82362913565885,None,378.27353644715913,None,378.27353644715913,None,v,4.191733834686602,378.27353644715913,None,t,4.339595968602225,378.27353644715913,None,4.191733834686602,4.339595968602225,7.098332351386613,False,False,False,382.7054840989258,None,382.7054840989258,None,382.7054840989258,None,382.7054840989258,None,382.7054840989258,None,382.7054840989258,None,382.7054840989258,None,382.7054840989258,None,383.70531248326006,None,383.70531248326006,None,384.68836776178796,None,384.68836776178796,None,c,,,,,,,,,,,,,,,,,,,,,,,,,,,,,,,,,,,,,,,,,,,,,,,35_36Exp,001,2021_May_10_1553,ComputerHuman,2020.1.3,60.00898951768544,
Computer.xlsx,c,Sychronize.jpg,Number7.jpg,7,Computer,,,,,0,0,0,1,0,8,8,3,,,,,,,,,,,,,,,,,,,,,,,,,,,,,385.7219521458537,None,385.7219521458537,None,386.18835188333105,None,386.18835188333105,None,v,3.972267229008139,386.18835188333105,None,t,4.371213027647173,386.18835188333105,None,3.972267229008139,4.371213027647173,7.478056007725683,False,False,False,390.62014171283954,None,390.62014171283954,None,390.62014171283954,None,390.62014171283954,None,390.62014171283954,None,390.62014171283954,None,390.62014171283954,None,390.62014171283954,None,391.6366723112733,None,391.6366723112733,None,392.6197330430077,None,392.6197330430077,None,c,,,,,,,,,,,,,,,,,,,,,,,,,,,,,,,,,,,,,,,,,,,,,,,35_36Exp,001,2021_May_10_1553,ComputerHuman,2020.1.3,60.00898951768544,
Computer.xlsx,c,Sychronize.jpg,Number10.jpg,10,Computer,,,,,0,0,0,1,0,9,9,9,,,,,,,,,,,,,,,,,,,,,,,,,,,,,393.66968924091634,None,393.66968924091634,None,394.119768168086,None,394.119768168086,None,v,5.3641488777138875,394.119768168086,None,t,5.943230820506869,394.119768168086,None,5.3641488777138875,5.943230820506869,9.412320366393583,False,False,False,400.151199818054,None,400.151199818054,None,400.151199818054,None,400.151199818054,None,400.151199818054,None,400.151199818054,None,400.151199818054,None,400.151199818054,None,401.1509999740156,None,401.1509999740156,None,402.1340850848028,None,402.1340850848028,None,c,,,,,,,,,,,,,,,,,,,,,,,,,,,,,,,,,,,,,,,,,,,,,,,35_36Exp,001,2021_May_10_1553,ComputerHuman,2020.1.3,60.00898951768544,
Computer.xlsx,c,,,,,,,,,0,0,0,1,,,,,,,,,,,,,,,,,,,,,,,,,,,,,,,,,,,,,,,,,,,,,,,,,,,,,,,,,,,,,,,,,,,,,,,,,,,,,,,c,403.1347814915571,None,403.1347814915571,None,q,0,7.436269479581824,403.1347814915571,None,o,0,8.922984662694944,403.1347814915571,None,h,h,412.16493227917454,None,412.16493227917454,None,414.147784505898,None,None,None,None,None,None,None,None,,,,,,,,,,,,,,,,,,35_36Exp,001,2021_May_10_1553,ComputerHuman,2020.1.3,60.00898951768544,
Human.xlsx,h,Sychronize.jpg,Number7.jpg,7,Human,,,,,0,1,1,6,0,0,0,3,,,,,,,,,,,,,,,,,,,,,,,,,419.1486153181904,None,419.1486153181904,None,422.2126792862473,None,422.2126792862473,None,422.6463116585437,None,422.6463116585437,None,v,3.9994068834239442,422.6463116585437,None,t,4.686347829348961,422.6463116585437,None,3.9994068834239442,4.686347829348961,7.453307710754131,False,False,False,427.412672806553,None,427.412672806553,None,427.412672806553,None,427.412672806553,None,427.412672806553,None,427.412672806553,None,427.412672806553,None,427.412672806553,None,428.4136563086722,None,428.4136563086722,None,429.42736406996846,None,429.42736406996846,None,h,,,,,,,,,,,,,,,,,,,,,,,,,,,,,,,,,,,,,,,,,,,,,,,35_36Exp,001,2021_May_10_1553,ComputerHuman,2020.1.3,60.00898951768544,
Human.xlsx,h,Sychronize.jpg,Number8.jpg,8,Human,,,,,0,1,1,6,0,1,1,5,,,,,,,,,,,,,,,,,,,,,,,,,,,,,430.4777549206374,None,430.4777549206374,None,430.9275034475504,None,430.9275034475504,None,v,4.75358877229155,430.9275034475504,None,t,4.513394843383139,430.9275034475504,None,4.75358877229155,4.513394843383139,8.059474066554545,True,False,False,435.775837219815,None,435.775837219815,None,435.775837219815,None,435.775837219815,None,435.775837219815,None,435.775837219815,None,435.775837219815,None,435.775837219815,None,436.7609143554437,None,436.7609143554437,None,437.74195194697313,None,437.74195194697313,None,h,,,,,,,,,,,,,,,,,,,,,,,,,,,,,,,,,,,,,,,,,,,,,,,35_36Exp,001,2021_May_10_1553,ComputerHuman,2020.1.3,60.00898951768544,
Human.xlsx,h,Sychronize.jpg,Number10.jpg,10,Human,,,,,0,1,1,6,0,2,2,8,,,,,,,,,,,,,,,,,,,,,,,,,,,,,438.8088656974287,None,438.8088656974287,None,439.2421384787667,None,439.2421384787667,None,v,6.022347567595716,439.2421384787667,None,t,5.381252062998101,439.2421384787667,None,6.022347567595716,5.381252062998101,10.653036647183184,False,False,False,445.37344274821226,None,445.37344274821226,None,445.37344274821226,None,445.37344274821226,None,445.37344274821226,None,445.37344274821226,None,445.37344274821226,None,445.37344274821226,None,446.3420544031287,None,446.3420544031287,None,447.33936789619474,None,447.33936789619474,None,h,,,,,,,,,,,,,,,,,,,,,,,,,,,,,,,,,,,,,,,,,,,,,,,35_36Exp,001,2021_May_10_1553,ComputerHuman,2020.1.3,60.00898951768544,
Human.xlsx,h,Sychronize.jpg,Number6.jpg,6,Human,,,,,0,1,1,6,0,3,3,0,,,,,,,,,,,,,,,,,,,,,,,,,,,,,448.38943829069467,None,448.38943829069467,None,448.839494763477,None,448.839494763477,None,v,8.835813206453167,448.839494763477,None,t,3.035445531913865,448.839494763477,None,8.835813206453167,3.035445531913865,6.3255068835514425,False,False,False,457.7704263542655,None,457.7704263542655,None,457.7704263542655,None,457.7704263542655,None,457.7704263542655,None,457.7704263542655,None,457.7704263542655,None,457.7704263542655,None,458.73897385379314,None,458.73897385379314,None,459.73650804139834,None,459.73650804139834,None,h,,,,,,,,,,,,,,,,,,,,,,,,,,,,,,,,,,,,,,,,,,,,,,,35_36Exp,001,2021_May_10_1553,ComputerHuman,2020.1.3,60.00898951768544,
Human.xlsx,h,Sychronize.jpg,Number6.jpg,6,Human,,,,,0,1,1,6,0,4,4,1,,,,,,,,,,,,,,,,,,,,,,,,,,,,,460.7865043364218,None,460.7865043364218,None,461.23651140955553,None,461.23651140955553,None,v,3.5743415010620083,461.23651140955553,None,t,3.5374617754168867,461.23651140955553,None,3.5743415010620083,3.5374617754168867,6.101482926871646,True,False,False,464.88680840089364,None,464.88680840089364,None,464.88680840089364,None,464.88680840089364,None,464.88680840089364,None,464.88680840089364,None,464.88680840089364,None,464.88680840089364,None,465.8876048900529,None,465.8876048900529,None,466.88476376863036,None,466.88476376863036,None,h,,,,,,,,,,,,,,,,,,,,,,,,,,,,,,,,,,,,,,,,,,,,,,,35_36Exp,001,2021_May_10_1553,ComputerHuman,2020.1.3,60.00898951768544,
Human.xlsx,h,Sychronize.jpg,Number8.jpg,8,Human,,,,,0,1,1,6,0,5,5,4,,,,,,,,,,,,,,,,,,,,,,,,,,,,,467.93509591712063,None,467.93509591712063,None,468.3846012951035,None,468.3846012951035,None,v,4.293629915144265,468.3846012951035,None,t,4.50129160837605,468.3846012951035,None,4.293629915144265,4.50129160837605,8.041020348331873,True,False,False,472.96827034824673,None,472.96827034824673,None,472.96827034824673,None,472.96827034824673,None,472.96827034824673,None,472.96827034824673,None,472.96827034824673,None,472.96827034824673,None,473.95184945553046,None,473.95184945553046,None,474.94948372554063,None,474.94948372554063,None,h,,,,,,,,,,,,,,,,,,,,,,,,,,,,,,,,,,,,,,,,,,,,,,,35_36Exp,001,2021_May_10_1553,ComputerHuman,2020.1.3,60.00898951768544,
Human.xlsx,h,Sychronize.jpg,Number9.jpg,9,Human,,,,,0,1,1,6,0,6,6,6,,,,,,,,,,,,,,,,,,,,,,,,,,,,,475.9999714508522,None,475.9999714508522,None,476.449296231418,None,476.449296231418,None,v,4.772324712241243,476.449296231418,None,t,4.7873733211745275,476.449296231418,None,4.772324712241243,4.7873733211745275,9.432644925523158,True,False,False,481.33126988215736,None,481.33126988215736,None,481.33126988215736,None,481.33126988215736,None,481.33126988215736,None,481.33126988215736,None,481.33126988215736,None,481.33126988215736,None,482.3163928888898,None,482.3163928888898,None,483.3140175355911,None,483.3140175355911,None,h,,,,,,,,,,,,,,,,,,,,,,,,,,,,,,,,,,,,,,,,,,,,,,,35_36Exp,001,2021_May_10_1553,ComputerHuman,2020.1.3,60.00898951768544,
Human.xlsx,h,Sychronize.jpg,Number10.jpg,10,Human,,,,,0,1,1,6,0,7,7,9,,,,,,,,,,,,,,,,,,,,,,,,,,,,,484.364261791201,None,484.364261791201,None,484.8140857006947,None,484.8140857006947,None,v,5.058762166667293,484.8140857006947,None,t,5.586251628341415,484.8140857006947,None,5.058762166667293,5.586251628341415,10.268252653466273,False,False,False,490.4956144979624,None,490.4956144979624,None,490.4956144979624,None,490.4956144979624,None,490.4956144979624,None,490.4956144979624,None,490.4956144979624,None,490.4956144979624,None,491.4643307261649,None,491.4643307261649,None,492.4617863234198,None,492.4617863234198,None,h,,,,,,,,,,,,,,,,,,,,,,,,,,,,,,,,,,,,,,,,,,,,,,,35_36Exp,001,2021_May_10_1553,ComputerHuman,2020.1.3,60.00898951768544,
Human.xlsx,h,Sychronize.jpg,Number7.jpg,7,Human,,,,,0,1,1,6,0,8,8,2,,,,,,,,,,,,,,,,,,,,,,,,,,,,,493.51193210050405,None,493.51193210050405,None,493.9619346827567,None,493.9619346827567,None,v,3.990360652729578,493.9619346827567,None,t,3.9533994497396634,493.9619346827567,None,3.990360652729578,3.9533994497396634,6.753405871110503,True,False,False,498.0437000851016,None,498.0437000851016,None,498.0437000851016,None,498.0437000851016,None,498.0437000851016,None,498.0437000851016,None,498.0437000851016,None,498.0437000851016,None,499.02876952208317,None,499.02876952208317,None,500.0265747662088,None,500.0265747662088,None,h,,,,,,,,,,,,,,,,,,,,,,,,,,,,,,,,,,,,,,,,,,,,,,,35_36Exp,001,2021_May_10_1553,ComputerHuman,2020.1.3,60.00898951768544,
Human.xlsx,h,Sychronize.jpg,Number9.jpg,9,Human,,,,,0,1,1,6,0,9,9,7,,,,,,,,,,,,,,,,,,,,,,,,,,,,,501.07653577577366,None,501.07653577577366,None,501.5263747617828,None,501.5263747617828,None,v,0.597511219973967,501.5263747617828,None,t,4.900299958524556,501.5263747617828,None,0.597511219973967,4.900299958524556,9.437549975737745,False,False,False,506.52484882584395,None,506.52484882584395,None,506.52484882584395,None,506.52484882584395,None,506.52484882584395,None,506.52484882584395,None,506.52484882584395,None,506.52484882584395,None,507.4934486120146,None,507.4934486120146,None,508.4911152804998,None,508.4911152804998,None,h,,,,,,,,,,,,,,,,,,,,,,,,,,,,,,,,,,,,,,,,,,,,,,,35_36Exp,001,2021_May_10_1553,ComputerHuman,2020.1.3,60.00898951768544,
Human.xlsx,h,,,,,,,,,0,1,1,6,,,,,,,,,,,,,,,,,,,,,,,,,,,,,,,,,,,,,,,,,,,,,,,,,,,,,,,,,,,,,,,,,,,,,,,,,,,,,,,h,509.49184985970714,None,509.49184985970714,None,q,0,2.103278949878586,509.49184985970714,None,o,1,5.634263276398997,509.49184985970714,None,h,h,515.2399421190094,None,515.2399421190094,None,517.2223799019121,None,None,None,None,None,None,None,None,,,,,,,,,,,,,,,,,,35_36Exp,001,2021_May_10_1553,ComputerHuman,2020.1.3,60.00898951768544,
Human.xlsx,h,Sychronize.jpg,Number8.jpg,8,Human,,,,,0,2,2,8,0,0,0,4,,,,,,,,,,,,,,,,,,,,,,,,,522.223610402285,None,522.223610402285,None,525.2871986581267,None,525.2871986581267,None,525.7205298208683,None,525.7205298208683,None,v,4.669184979553393,525.7205298208683,None,t,2.8405177211607224,525.7205298208683,None,4.669184979553393,2.8405177211607224,7.898230824220422,False,False,False,530.4706962239106,None,530.4706962239106,None,530.4706962239106,None,530.4706962239106,None,530.4706962239106,None,530.4706962239106,None,530.4706962239106,None,530.4706962239106,None,531.4708405735364,None,531.4708405735364,None,532.4685592078858,None,532.4685592078858,None,h,,,,,,,,,,,,,,,,,,,,,,,,,,,,,,,,,,,,,,,,,,,,,,,35_36Exp,001,2021_May_10_1553,ComputerHuman,2020.1.3,60.00898951768544,
Human.xlsx,h,Sychronize.jpg,Number9.jpg,9,Human,,,,,0,2,2,8,0,1,1,6,,,,,,,,,,,,,,,,,,,,,,,,,,,,,533.51899721277,None,533.51899721277,None,533.96877525116,None,533.96877525116,None,v,4.736249174398836,533.96877525116,None,t,2.6075063088828756,533.96877525116,None,4.736249174398836,2.6075063088828756,8.688882885340725,False,False,False,538.8003285397499,None,538.8003285397499,None,538.8003285397499,None,538.8003285397499,None,538.8003285397499,None,538.8003285397499,None,538.8003285397499,None,538.8003285397499,None,539.7689026637636,None,539.7689026637636,None,540.766549123302,None,540.766549123302,None,h,,,,,,,,,,,,,,,,,,,,,,,,,,,,,,,,,,,,,,,,,,,,,,,35_36Exp,001,2021_May_10_1553,ComputerHuman,2020.1.3,60.00898951768544,
Human.xlsx,h,Sychronize.jpg,Number6.jpg,6,Human,,,,,0,2,2,8,0,2,2,0,,,,,,,,,,,,,,,,,,,,,,,,,,,,,541.833146908466,None,541.833146908466,None,542.2666817645695,None,542.2666817645695,None,v,2.3739316122773744,542.2666817645695,None,t,0.6576020447610063,542.2666817645695,None,2.3739316122773744,0.6576020447610063,5.6767588189479,False,False,False,544.7322875790996,None,544.7322875790996,None,544.7322875790996,None,544.7322875790996,None,544.7322875790996,None,544.7322875790996,None,544.7322875790996,None,544.7322875790996,None,545.7171154710413,None,545.7171154710413,None,546.7144796468638,None,546.7144796468638,None,h,,,,,,,,,,,,,,,,,,,,,,,,,,,,,,,,,,,,,,,,,,,,,,,35_36Exp,001,2021_May_10_1553,ComputerHuman,2020.1.3,60.00898951768544,
Human.xlsx,h,Sychronize.jpg,Number10.jpg,10,Human,,,,,0,2,2,8,0,3,3,9,,,,,,,,,,,,,,,,,,,,,,,,,,,,,547.7652955269914,None,547.7652955269914,None,548.2148705135733,None,548.2148705135733,None,v,4.805139231630164,548.2148705135733,None,t,3.464439148770907,548.2148705135733,None,4.805139231630164,3.464439148770907,10.210960775267962,False,False,False,553.1133850276092,None,553.1133850276092,None,553.1133850276092,None,553.1133850276092,None,553.1133850276092,None,553.1133850276092,None,553.1133850276092,None,553.1133850276092,None,554.098798658255,None,554.098798658255,None,555.0796874092812,None,555.0796874092812,None,h,,,,,,,,,,,,,,,,,,,,,,,,,,,,,,,,,,,,,,,,,,,,,,,35_36Exp,001,2021_May_10_1553,ComputerHuman,2020.1.3,60.00898951768544,
Human.xlsx,h,Sychronize.jpg,Number10.jpg,10,Human,,,,,0,2,2,8,0,4,4,8,,,,,,,,,,,,,,,,,,,,,,,,,,,,,556.1468539319721,None,556.1468539319721,None,556.5796112247554,None,556.5796112247554,None,v,3.7197304447145143,556.5796112247554,None,t,3.2033918312881724,556.5796112247554,None,3.7197304447145143,3.2033918312881724,9.932979994114223,False,False,False,560.3630081948904,None,560.3630081948904,None,560.3630081948904,None,560.3630081948904,None,560.3630081948904,None,560.3630081948904,None,560.3630081948904,None,560.3630081948904,None,561.3642300342799,None,561.3642300342799,None,562.3778271275296,None,562.3778271275296,None,h,,,,,,,,,,,,,,,,,,,,,,,,,,,,,,,,,,,,,,,,,,,,,,,35_36Exp,001,2021_May_10_1553,ComputerHuman,2020.1.3,60.00898951768544,
Human.xlsx,h,Sychronize.jpg,Number9.jpg,9,Human,,,,,0,2,2,8,0,5,5,7,,,,,,,,,,,,,,,,,,,,,,,,,,,,,563.4280909505287,None,563.4280909505287,None,563.8778827823298,None,563.8778827823298,None,v,2.7090023804848897,563.8778827823298,None,t,2.388671313015948,563.8778827823298,None,2.7090023804848897,2.388671313015948,9.065151566926456,False,False,False,566.6768175462421,None,566.6768175462421,None,566.6768175462421,None,566.6768175462421,None,566.6768175462421,None,566.6768175462421,None,566.6768175462421,None,566.6768175462421,None,567.6624281339355,None,567.6624281339355,None,568.6596838871483,None,568.6596838871483,None,h,,,,,,,,,,,,,,,,,,,,,,,,,,,,,,,,,,,,,,,,,,,,,,,35_36Exp,001,2021_May_10_1553,ComputerHuman,2020.1.3,60.00898951768544,
Human.xlsx,h,Sychronize.jpg,Number7.jpg,7,Human,,,,,0,2,2,8,0,6,6,2,,,,,,,,,,,,,,,,,,,,,,,,,,,,,569.7097353558092,None,569.7097353558092,None,570.1598810045834,None,570.1598810045834,None,v,1.9265799307177076,570.1598810045834,None,t,0.9776408844336402,570.1598810045834,None,1.9265799307177076,0.9776408844336402,7.066945612016558,False,False,False,572.175438044982,None,572.175438044982,None,572.175438044982,None,572.175438044982,None,572.175438044982,None,572.175438044982,None,572.175438044982,None,572.175438044982,None,573.1439698264367,None,573.1439698264367,None,574.1416066626662,None,574.1416066626662,None,h,,,,,,,,,,,,,,,,,,,,,,,,,,,,,,,,,,,,,,,,,,,,,,,35_36Exp,001,2021_May_10_1553,ComputerHuman,2020.1.3,60.00898951768544,
Human.xlsx,h,Sychronize.jpg,Number7.jpg,7,Human,,,,,0,2,2,8,0,7,7,3,,,,,,,,,,,,,,,,,,,,,,,,,,,,,575.1915763332072,None,575.1915763332072,None,575.641407941348,None,575.641407941348,None,v,2.220567832933739,575.641407941348,None,t,1.31951052003933,575.641407941348,None,2.220567832933739,1.31951052003933,6.516923994128748,False,False,False,577.9573334582237,None,577.9573334582237,None,577.9573334582237,None,577.9573334582237,None,577.9573334582237,None,577.9573334582237,None,577.9573334582237,None,577.9573334582237,None,578.9428150935819,None,578.9428150935819,None,579.9401786278504,None,579.9401786278504,None,h,,,,,,,,,,,,,,,,,,,,,,,,,,,,,,,,,,,,,,,,,,,,,,,35_36Exp,001,2021_May_10_1553,ComputerHuman,2020.1.3,60.00898951768544,
Human.xlsx,h,Sychronize.jpg,Number6.jpg,6,Human,,,,,0,2,2,8,0,8,8,1,,,,,,,,,,,,,,,,,,,,,,,,,,,,,580.9900559146299,None,580.9900559146299,None,581.4400017193657,None,581.4400017193657,None,v,1.4296293967709062,581.4400017193657,None,t,0.30872375363105675,581.4400017193657,None,1.4296293967709062,0.30872375363105675,5.922715972669299,False,False,False,582.9561315070023,None,582.9561315070023,None,582.9561315070023,None,582.9561315070023,None,582.9561315070023,None,582.9561315070023,None,582.9561315070023,None,582.9561315070023,None,583.9407874624958,None,583.9407874624958,None,584.9389003317156,None,584.9389003317156,None,h,,,,,,,,,,,,,,,,,,,,,,,,,,,,,,,,,,,,,,,,,,,,,,,35_36Exp,001,2021_May_10_1553,ComputerHuman,2020.1.3,60.00898951768544,
Human.xlsx,h,Sychronize.jpg,Number8.jpg,8,Human,,,,,0,2,2,8,0,9,9,5,,,,,,,,,,,,,,,,,,,,,,,,,,,,,585.988807129972,None,585.988807129972,None,586.4387853331791,None,586.4387853331791,None,v,1.578374629621976,586.4387853331791,None,t,2.309556490585237,586.4387853331791,None,1.578374629621976,2.309556490585237,8.097698118164034,False,False,False,588.838006679216,None,588.838006679216,None,588.838006679216,None,588.838006679216,None,588.838006679216,None,588.838006679216,None,588.838006679216,None,588.838006679216,None,589.8068342170191,None,589.8068342170191,None,590.804227904322,None,590.804227904322,None,h,,,,,,,,,,,,,,,,,,,,,,,,,,,,,,,,,,,,,,,,,,,,,,,35_36Exp,001,2021_May_10_1553,ComputerHuman,2020.1.3,60.00898951768544,
Human.xlsx,h,,,,,,,,,0,2,2,8,,,,,,,,,,,,,,,,,,,,,,,,,,,,,,,,,,,,,,,,,,,,,,,,,,,,,,,,,,,,,,,,,,,,,,,,,,,,,,,h,591.8053233575993,None,591.8053233575993,None,a,0,12.63860884170208,591.8053233575993,None,o,1,12.845665228836879,591.8053233575993,None,c,h,604.7344037446237,None,604.7344037446237,None,606.7169807447208,None,None,None,None,None,None,None,None,,,,,,,,,,,,,,,,,,35_36Exp,001,2021_May_10_1553,ComputerHuman,2020.1.3,60.00898951768544,
Computer.xlsx,c,Sychronize.jpg,Number8.jpg,8,Computer,,,,,0,3,3,5,0,0,0,4,,,,,,,,,,,,,,,,,,,,,,,,,611.7188473457791,None,611.7188473457791,None,614.7987631482465,None,614.7987631482465,None,615.2490736763721,None,615.2490736763721,None,v,3.653664828510955,615.2490736763721,None,t,5.657255284881103,615.2490736763721,None,3.653664828510955,5.657255284881103,8.088912792311453,False,False,False,620.980634695683,None,620.980634695683,None,620.980634695683,None,620.980634695683,None,620.980634695683,None,620.980634695683,None,620.980634695683,None,620.980634695683,None,622.0131034175247,None,622.0131034175247,None,622.9795976238129,None,622.9795976238129,None,c,,,,,,,,,,,,,,,,,,,,,,,,,,,,,,,,,,,,,,,,,,,,,,,35_36Exp,001,2021_May_10_1553,ComputerHuman,2020.1.3,60.00898951768544,
Computer.xlsx,c,Sychronize.jpg,Number8.jpg,8,Computer,,,,,0,3,3,5,0,1,1,5,,,,,,,,,,,,,,,,,,,,,,,,,,,,,624.0297344191422,None,624.0297344191422,None,624.4797106976876,None,624.4797106976876,None,v,3.99032536726736,624.4797106976876,None,t,4.125363480379747,624.4797106976876,None,3.99032536726736,4.125363480379747,8.213576354248824,False,False,False,628.6781670548589,None,628.6781670548589,None,628.6781670548589,None,628.6781670548589,None,628.6781670548589,None,628.6781670548589,None,628.6781670548589,None,628.6781670548589,None,629.6945613230891,None,629.6945613230891,None,630.6776884556566,None,630.6776884556566,None,c,,,,,,,,,,,,,,,,,,,,,,,,,,,,,,,,,,,,,,,,,,,,,,,35_36Exp,001,2021_May_10_1553,ComputerHuman,2020.1.3,60.00898951768544,
Computer.xlsx,c,Sychronize.jpg,Number7.jpg,7,Computer,,,,,0,3,3,5,0,2,2,2,,,,,,,,,,,,,,,,,,,,,,,,,,,,,631.6950598104668,None,631.6950598104668,None,632.1779327272998,None,632.1779327272998,None,v,4.479500588786323,632.1779327272998,None,t,4.17043681159339,632.1779327272998,None,4.479500588786323,4.17043681159339,7.25585611667887,False,False,False,636.7429607904705,None,636.7429607904705,None,636.7429607904705,None,636.7429607904705,None,636.7429607904705,None,636.7429607904705,None,636.7429607904705,None,636.7429607904705,None,637.742698715705,None,637.742698715705,None,638.7090511385832,None,638.7090511385832,None,c,,,,,,,,,,,,,,,,,,,,,,,,,,,,,,,,,,,,,,,,,,,,,,,35_36Exp,001,2021_May_10_1553,ComputerHuman,2020.1.3,60.00898951768544,
Computer.xlsx,c,Sychronize.jpg,Number9.jpg,9,Computer,,,,,0,3,3,5,0,3,3,6,,,,,,,,,,,,,,,,,,,,,,,,,,,,,639.7754712133174,None,639.7754712133174,None,640.2090474496472,None,640.2090474496472,None,v,6.127595125602966,640.2090474496472,None,t,5.767242963836907,640.2090474496472,None,6.127595125602966,5.767242963836907,8.74345315294034,False,False,False,646.4087917262659,None,646.4087917262659,None,646.4087917262659,None,646.4087917262659,None,646.4087917262659,None,646.4087917262659,None,646.4087917262659,None,646.4087917262659,None,647.4235015947415,None,647.4235015947415,None,648.4066938450269,None,648.4066938450269,None,c,,,,,,,,,,,,,,,,,,,,,,,,,,,,,,,,,,,,,,,,,,,,,,,35_36Exp,001,2021_May_10_1553,ComputerHuman,2020.1.3,60.00898951768544,
Computer.xlsx,c,Sychronize.jpg,Number10.jpg,10,Computer,,,,,0,3,3,5,0,4,4,9,,,,,,,,,,,,,,,,,,,,,,,,,,,,,649.4567109905547,None,649.4567109905547,None,649.9067870307299,None,649.9067870307299,None,v,5.353081431472674,649.9067870307299,None,t,6.7562210679243435,649.9067870307299,None,5.353081431472674,6.7562210679243435,9.329560380382738,False,False,False,656.7545061943638,None,656.7545061943638,None,656.7545061943638,None,656.7545061943638,None,656.7545061943638,None,656.7545061943638,None,656.7545061943638,None,656.7545061943638,None,657.7376371762512,None,657.7376371762512,None,658.7207784230013,None,658.7207784230013,None,c,,,,,,,,,,,,,,,,,,,,,,,,,,,,,,,,,,,,,,,,,,,,,,,35_36Exp,001,2021_May_10_1553,ComputerHuman,2020.1.3,60.00898951768544,
Computer.xlsx,c,Sychronize.jpg,Number7.jpg,7,Computer,,,,,0,3,3,5,0,5,5,3,,,,,,,,,,,,,,,,,,,,,,,,,,,,,659.7872116495928,None,659.7872116495928,None,660.2206409700811,None,660.2206409700811,None,v,3.662642733714165,660.2206409700811,None,t,5.1252874562414945,660.2206409700811,None,3.662642733714165,5.1252874562414945,7.4650100790056175,False,False,False,665.4358319398234,None,665.4358319398234,None,665.4358319398234,None,665.4358319398234,None,665.4358319398234,None,665.4358319398234,None,665.4358319398234,None,665.4358319398234,None,666.4355297679394,None,666.4355297679394,None,667.4186017268694,None,667.4186017268694,None,c,,,,,,,,,,,,,,,,,,,,,,,,,,,,,,,,,,,,,,,,,,,,,,,35_36Exp,001,2021_May_10_1553,ComputerHuman,2020.1.3,60.00898951768544,
Computer.xlsx,c,Sychronize.jpg,Number6.jpg,6,Computer,,,,,0,3,3,5,0,6,6,0,,,,,,,,,,,,,,,,,,,,,,,,,,,,,668.4851991912583,None,668.4851991912583,None,668.9188315635547,None,668.9188315635547,None,v,4.063778155792534,668.9188315635547,None,t,4.135390967756393,668.9188315635547,None,4.063778155792534,4.135390967756393,6.4229631696065645,False,False,False,673.1356530425219,None,673.1356530425219,None,673.1356530425219,None,673.1356530425219,None,673.1356530425219,None,673.1356530425219,None,673.1356530425219,None,673.1356530425219,None,674.1336571683532,None,674.1336571683532,None,675.1167066728995,None,675.1167066728995,None,c,,,,,,,,,,,,,,,,,,,,,,,,,,,,,,,,,,,,,,,,,,,,,,,35_36Exp,001,2021_May_10_1553,ComputerHuman,2020.1.3,60.00898951768544,
Computer.xlsx,c,Sychronize.jpg,Number9.jpg,9,Computer,,,,,0,3,3,5,0,7,7,7,,,,,,,,,,,,,,,,,,,,,,,,,,,,,676.166505369325,None,676.166505369325,None,676.6166577544136,None,676.6166577544136,None,v,5.99716080323924,676.6166577544136,None,t,6.452218830185302,676.6166577544136,None,5.99716080323924,6.452218830185302,8.449511267675163,False,False,False,683.149851592545,None,683.149851592545,None,683.149851592545,None,683.149851592545,None,683.149851592545,None,683.149851592545,None,683.149851592545,None,683.149851592545,None,684.164512702926,None,684.164512702926,None,685.147601342258,None,685.147601342258,None,c,,,,,,,,,,,,,,,,,,,,,,,,,,,,,,,,,,,,,,,,,,,,,,,35_36Exp,001,2021_May_10_1553,ComputerHuman,2020.1.3,60.00898951768544,
Computer.xlsx,c,Sychronize.jpg,Number10.jpg,10,Computer,,,,,0,3,3,5,0,8,8,8,,,,,,,,,,,,,,,,,,,,,,,,,,,,,686.1813817210386,None,686.1813817210386,None,686.6478032713494,None,686.6478032713494,None,v,6.941144487242127,686.6478032713494,None,t,6.5521684361265216,686.6478032713494,None,6.941144487242127,6.5521684361265216,10.706810427070725,False,False,False,693.6633314418177,None,693.6633314418177,None,693.6633314418177,None,693.6633314418177,None,693.6633314418177,None,693.6633314418177,None,693.6633314418177,None,693.6633314418177,None,694.6618289225953,None,694.6618289225953,None,695.6615463181079,None,695.6615463181079,None,c,,,,,,,,,,,,,,,,,,,,,,,,,,,,,,,,,,,,,,,,,,,,,,,35_36Exp,001,2021_May_10_1553,ComputerHuman,2020.1.3,60.00898951768544,
Computer.xlsx,c,Sychronize.jpg,Number6.jpg,6,Computer,,,,,0,3,3,5,0,9,9,1,,,,,,,,,,,,,,,,,,,,,,,,,,,,,696.7120362888563,None,696.7120362888563,None,697.1618140064675,None,697.1618140064675,None,v,5.222577179734799,697.1618140064675,None,t,4.2853349440592865,697.1618140064675,None,5.222577179734799,4.2853349440592865,6.125738730552368,False,False,False,702.4766892996195,None,702.4766892996195,None,702.4766892996195,None,702.4766892996195,None,702.4766892996195,None,702.4766892996195,None,702.4766892996195,None,702.4766892996195,None,703.4763858446277,None,703.4763858446277,None,704.4427889502622,None,704.4427889502622,None,c,,,,,,,,,,,,,,,,,,,,,,,,,,,,,,,,,,,,,,,,,,,,,,,35_36Exp,001,2021_May_10_1553,ComputerHuman,2020.1.3,60.00898951768544,
Computer.xlsx,c,,,,,,,,,0,3,3,5,,,,,,,,,,,,,,,,,,,,,,,,,,,,,,,,,,,,,,,,,,,,,,,,,,,,,,,,,,,,,,,,,,,,,,,,,,,,,,,c,705.4434519962124,None,705.4434519962124,None,q,0,1.8804175617660803,705.4434519962124,None,o,0,2.8314727735742053,705.4434519962124,None,h,h,708.3425089440643,None,708.3425089440643,None,710.3413493353983,None,None,None,None,None,None,None,None,,,,,,,,,,,,,,,,,,35_36Exp,001,2021_May_10_1553,ComputerHuman,2020.1.3,60.00898951768544,
Computer.xlsx,c,Sychronize.jpg,Number10.jpg,10,Computer,,,,,0,4,4,3,0,0,0,9,,,,,,,,,,,,,,,,,,,,,,,,,715.3596159786684,None,715.3596159786684,None,718.4393482967243,None,718.4393482967243,None,718.873165115765,None,718.873165115765,None,v,5.91732198723912,718.873165115765,None,t,7.016122890931001,718.873165115765,None,5.91732198723912,7.016122890931001,9.836790346918603,False,False,False,725.9723984267803,None,725.9723984267803,None,725.9723984267803,None,725.9723984267803,None,725.9723984267803,None,725.9723984267803,None,725.9723984267803,None,725.9723984267803,None,726.987226982732,None,726.987226982732,None,727.9703566815115,None,727.9703566815115,None,c,,,,,,,,,,,,,,,,,,,,,,,,,,,,,,,,,,,,,,,,,,,,,,,35_36Exp,001,2021_May_10_1553,ComputerHuman,2020.1.3,60.00898951768544,
Computer.xlsx,c,Sychronize.jpg,Number8.jpg,8,Computer,,,,,0,4,4,3,0,1,1,4,,,,,,,,,,,,,,,,,,,,,,,,,,,,,729.0377647492423,None,729.0377647492423,None,729.4870959453474,None,729.4870959453474,None,v,7.430457001293689,729.4870959453474,None,t,5.914261454381631,729.4870959453474,None,7.430457001293689,5.914261454381631,7.655036810652026,False,True,False,737.0014364391718,None,737.0014364391718,None,737.0014364391718,None,737.0014364391718,None,737.0014364391718,None,737.0014364391718,None,737.0014364391718,None,737.0014364391718,None,738.0011971395688,None,738.0011971395688,None,738.9676419462048,None,738.9676419462048,None,c,,,,,,,,,,,,,,,,,,,,,,,,,,,,,,,,,,,,,,,,,,,,,,,35_36Exp,001,2021_May_10_1553,ComputerHuman,2020.1.3,60.00898951768544,
Computer.xlsx,c,Sychronize.jpg,Number6.jpg,6,Computer,,,,,0,4,4,3,0,2,2,1,,,,,,,,,,,,,,,,,,,,,,,,,,,,,740.034221767859,None,740.034221767859,None,740.4674473949854,None,740.4674473949854,None,v,6.205447369968169,740.4674473949854,None,t,4.356398265110329,740.4674473949854,None,6.205447369968169,4.356398265110329,5.939175931839462,False,True,False,746.765732745971,None,746.765732745971,None,746.765732745971,None,746.765732745971,None,746.765732745971,None,746.765732745971,None,746.765732745971,None,746.765732745971,None,747.7651046647079,None,747.7651046647079,None,748.7485076654448,None,748.7485076654448,None,c,,,,,,,,,,,,,,,,,,,,,,,,,,,,,,,,,,,,,,,,,,,,,,,35_36Exp,001,2021_May_10_1553,ComputerHuman,2020.1.3,60.00898951768544,
Computer.xlsx,c,Sychronize.jpg,Number9.jpg,9,Computer,,,,,0,4,4,3,0,3,3,7,,,,,,,,,,,,,,,,,,,,,,,,,,,,,749.7987580158151,None,749.7987580158151,None,750.2487913926561,None,750.2487913926561,None,v,7.763140868231858,750.2487913926561,None,t,6.17024177921121,750.2487913926561,None,7.763140868231858,6.17024177921121,8.626414527454303,False,False,False,758.0809782157157,None,758.0809782157157,None,758.0809782157157,None,758.0809782157157,None,758.0809782157157,None,758.0809782157157,None,758.0809782157157,None,758.0809782157157,None,759.0792999107289,None,759.0792999107289,None,760.0624385912633,None,760.0624385912633,None,c,,,,,,,,,,,,,,,,,,,,,,,,,,,,,,,,,,,,,,,,,,,,,,,35_36Exp,001,2021_May_10_1553,ComputerHuman,2020.1.3,60.00898951768544,
Computer.xlsx,c,Sychronize.jpg,Number8.jpg,8,Computer,,,,,0,4,4,3,0,4,4,5,,,,,,,,,,,,,,,,,,,,,,,,,,,,,761.1125577438615,None,761.1125577438615,None,761.56281919311,None,761.56281919311,None,v,7.536233199705748,761.56281919311,None,t,6.099215989062941,761.56281919311,None,7.536233199705748,6.099215989062941,7.456276339559364,False,True,False,769.1779750698588,None,769.1779750698588,None,769.1779750698588,None,769.1779750698588,None,769.1779750698588,None,769.1779750698588,None,769.1779750698588,None,769.1779750698588,None,770.1932556005268,None,770.1932556005268,None,771.1596843683146,None,771.1596843683146,None,c,,,,,,,,,,,,,,,,,,,,,,,,,,,,,,,,,,,,,,,,,,,,,,,35_36Exp,001,2021_May_10_1553,ComputerHuman,2020.1.3,60.00898951768544,
Computer.xlsx,c,Sychronize.jpg,Number7.jpg,7,Computer,,,,,0,4,4,3,0,5,5,3,,,,,,,,,,,,,,,,,,,,,,,,,,,,,772.2101746598419,None,772.2101746598419,None,772.6597095493053,None,772.6597095493053,None,v,7.18649362247379,772.6597095493053,None,t,5.246307295976294,772.6597095493053,None,7.18649362247379,5.246307295976294,6.782305668779528,False,False,False,779.940792274152,None,779.940792274152,None,779.940792274152,None,779.940792274152,None,779.940792274152,None,779.940792274152,None,779.940792274152,None,779.940792274152,None,780.9405590693095,None,780.9405590693095,None,781.9237349599716,None,781.9237349599716,None,c,,,,,,,,,,,,,,,,,,,,,,,,,,,,,,,,,,,,,,,,,,,,,,,35_36Exp,001,2021_May_10_1553,ComputerHuman,2020.1.3,60.00898951768544,
Computer.xlsx,c,Sychronize.jpg,Number9.jpg,9,Computer,,,,,0,4,4,3,0,6,6,6,,,,,,,,,,,,,,,,,,,,,,,,,,,,,782.9740170672594,None,782.9740170672594,None,783.423743781339,None,783.423743781339,None,v,7.72958054244009,783.423743781339,None,t,7.429135400270752,783.423743781339,None,7.72958054244009,7.429135400270752,9.333234029085043,False,False,False,791.2381031047698,None,791.2381031047698,None,791.2381031047698,None,791.2381031047698,None,791.2381031047698,None,791.2381031047698,None,791.2381031047698,None,791.2381031047698,None,792.221155817082,None,792.221155817082,None,793.204351275137,None,793.204351275137,None,c,,,,,,,,,,,,,,,,,,,,,,,,,,,,,,,,,,,,,,,,,,,,,,,35_36Exp,001,2021_May_10_1553,ComputerHuman,2020.1.3,60.00898951768544,
Computer.xlsx,c,Sychronize.jpg,Number10.jpg,10,Computer,,,,,0,4,4,3,0,7,7,8,,,,,,,,,,,,,,,,,,,,,,,,,,,,,794.2543956867048,None,794.2543956867048,None,794.7041390811864,None,794.7041390811864,None,v,8.768210106332845,794.7041390811864,None,t,7.459127724076097,794.7041390811864,None,8.768210106332845,7.459127724076097,10.13280066941613,False,False,False,803.553556758754,None,803.553556758754,None,803.553556758754,None,803.553556758754,None,803.553556758754,None,803.553556758754,None,803.553556758754,None,803.553556758754,None,804.5681142581816,None,804.5681142581816,None,805.5344888146683,None,805.5344888146683,None,c,,,,,,,,,,,,,,,,,,,,,,,,,,,,,,,,,,,,,,,,,,,,,,,35_36Exp,001,2021_May_10_1553,ComputerHuman,2020.1.3,60.00898951768544,
Computer.xlsx,c,Sychronize.jpg,Number6.jpg,6,Computer,,,,,0,4,4,3,0,8,8,0,,,,,,,,,,,,,,,,,,,,,,,,,,,,,806.6015578211664,None,806.6015578211664,None,807.0343657967096,None,807.0343657967096,None,v,7.21716823884708,807.0343657967096,None,t,4.948278566549561,807.0343657967096,None,7.21716823884708,4.948278566549561,5.933769085978907,False,False,False,814.3488150980738,None,814.3488150980738,None,814.3488150980738,None,814.3488150980738,None,814.3488150980738,None,814.3488150980738,None,814.3488150980738,None,814.3488150980738,None,815.3487406778222,None,815.3487406778222,None,816.3318970010878,None,816.3318970010878,None,c,,,,,,,,,,,,,,,,,,,,,,,,,,,,,,,,,,,,,,,,,,,,,,,35_36Exp,001,2021_May_10_1553,ComputerHuman,2020.1.3,60.00898951768544,
Computer.xlsx,c,Sychronize.jpg,Number7.jpg,7,Computer,,,,,0,4,4,3,0,9,9,2,,,,,,,,,,,,,,,,,,,,,,,,,,,,,817.3816007475398,None,817.3816007475398,None,817.8316700513969,None,817.8316700513969,None,v,6.207110598439613,817.8316700513969,None,t,6.434139520650206,817.8316700513969,None,6.207110598439613,6.434139520650206,7.010973962393065,False,False,False,824.3631515821835,None,824.3631515821835,None,824.3631515821835,None,824.3631515821835,None,824.3631515821835,None,824.3631515821835,None,824.3631515821835,None,824.3631515821835,None,825.3462533733691,None,825.3462533733691,None,826.3294032810991,None,826.3294032810991,None,c,,,,,,,,,,,,,,,,,,,,,,,,,,,,,,,,,,,,,,,,,,,,,,,35_36Exp,001,2021_May_10_1553,ComputerHuman,2020.1.3,60.00898951768544,
Computer.xlsx,c,,,,,,,,,0,4,4,3,,,,,,,,,,,,,,,,,,,,,,,,,,,,,,,,,,,,,,,,,,,,,,,,,,,,,,,,,,,,,,,,,,,,,,,,,,,,,,,c,827.3295572540337,None,827.3295572540337,None,q,0,1.828817702778906,827.3295572540337,None,o,0,2.668530915358133,827.3295572540337,None,h,h,830.0954420482776,None,830.0954420482776,None,None,None,832.0946978457578,None,832.0946978457578,None,"['space', 'space']",833.0777807111044,None,"[7.595668356410897, 20.82669929181793]",,,,,,,,,,,,,,,,,35_36Exp,001,2021_May_10_1553,ComputerHuman,2020.1.3,60.00898951768544,
Computer.xlsx,c,Sychronize.jpg,Number7.jpg,7,Computer,,,,,0,5,5,7,0,0,0,2,,,,,,,,,,,,,,,,,,,,,,,,,853.9590585966471,None,853.9590585966471,None,857.0224531032109,None,857.0224531032109,None,857.4552934772255,None,857.4552934772255,None,v,4.828472546785633,857.4552934772255,None,t,5.8392307640497165,857.4552934772255,None,4.828472546785633,5.8392307640497165,6.999459353944048,False,False,False,863.3885644942893,None,863.3885644942893,None,863.3885644942893,None,863.3885644942893,None,863.3885644942893,None,863.3885644942893,None,863.3885644942893,None,863.3885644942893,None,864.4034498277579,None,864.4034498277579,None,865.3864483287689,None,865.3864483287689,None,c,,,,,,,,,,,,,,,,,,,,,,,,,,,,,,,,,,,,,,,,,,,,,,,35_36Exp,001,2021_May_10_1553,ComputerHuman,2020.1.3,60.00898951768544,
Computer.xlsx,c,Sychronize.jpg,Number9.jpg,9,Computer,,,,,0,5,5,7,0,1,1,7,,,,,,,,,,,,,,,,,,,,,,,,,,,,,866.4365049298613,None,866.4365049298613,None,866.8866813732202,None,866.8866813732202,None,v,9.216000931533927,866.8866813732202,None,t,7.219133318427339,866.8866813732202,None,9.216000931533927,7.219133318427339,9.2868633408181,False,True,False,876.2005070841988,None,876.2005070841988,None,876.2005070841988,None,876.2005070841988,None,876.2005070841988,None,876.2005070841988,None,876.2005070841988,None,876.2005070841988,None,877.183530926588,None,877.183530926588,None,878.1666198866951,None,878.1666198866951,None,c,,,,,,,,,,,,,,,,,,,,,,,,,,,,,,,,,,,,,,,,,,,,,,,35_36Exp,001,2021_May_10_1553,ComputerHuman,2020.1.3,60.00898951768544,
Computer.xlsx,c,Sychronize.jpg,Number9.jpg,9,Computer,,,,,0,5,5,7,0,2,2,6,,,,,,,,,,,,,,,,,,,,,,,,,,,,,879.2340282752048,None,879.2340282752048,None,879.6832725407548,None,879.6832725407548,None,v,9.246409944596962,879.6832725407548,None,t,7.734098364966485,879.6832725407548,None,9.246409944596962,7.734098364966485,8.874114580483644,False,False,False,889.0139300597184,None,889.0139300597184,None,889.0139300597184,None,889.0139300597184,None,889.0139300597184,None,889.0139300597184,None,889.0139300597184,None,889.0139300597184,None,889.9968342523061,None,889.9968342523061,None,890.9801875326193,None,890.9801875326193,None,c,,,,,,,,,,,,,,,,,,,,,,,,,,,,,,,,,,,,,,,,,,,,,,,35_36Exp,001,2021_May_10_1553,ComputerHuman,2020.1.3,60.00898951768544,
Computer.xlsx,c,Sychronize.jpg,Number6.jpg,6,Computer,,,,,0,5,5,7,0,3,3,0,,,,,,,,,,,,,,,,,,,,,,,,,,,,,892.0308773474062,None,892.0308773474062,None,892.47992048581,None,892.47992048581,None,v,5.265175396023551,892.47992048581,None,t,5.136304540501442,892.47992048581,None,5.265175396023551,5.136304540501442,5.633360599760511,False,False,False,897.8283564255325,None,897.8283564255325,None,897.8283564255325,None,897.8283564255325,None,897.8283564255325,None,897.8283564255325,None,897.8283564255325,None,897.8283564255325,None,898.828142146529,None,898.828142146529,None,899.8112384845081,None,899.8112384845081,None,c,,,,,,,,,,,,,,,,,,,,,,,,,,,,,,,,,,,,,,,,,,,,,,,35_36Exp,001,2021_May_10_1553,ComputerHuman,2020.1.3,60.00898951768544,
Computer.xlsx,c,Sychronize.jpg,Number10.jpg,10,Computer,,,,,0,5,5,7,0,4,4,9,,,,,,,,,,,,,,,,,,,,,,,,,,,,,900.8438159497346,None,900.8438159497346,None,901.3110561228132,None,901.3110561228132,None,v,9.468901156109496,901.3110561228132,None,t,8.731995992853626,901.3110561228132,None,9.468901156109496,8.731995992853626,10.682334040243324,False,False,False,910.8583641466321,None,910.8583641466321,None,910.8583641466321,None,910.8583641466321,None,910.8583641466321,None,910.8583641466321,None,910.8583641466321,None,910.8583641466321,None,911.8583076898904,None,911.8583076898904,None,912.8580658240717,None,912.8580658240717,None,c,,,,,,,,,,,,,,,,,,,,,,,,,,,,,,,,,,,,,,,,,,,,,,,35_36Exp,001,2021_May_10_1553,ComputerHuman,2020.1.3,60.00898951768544,
Computer.xlsx,c,Sychronize.jpg,Number8.jpg,8,Computer,,,,,0,5,5,7,0,5,5,4,,,,,,,,,,,,,,,,,,,,,,,,,,,,,913.9079068630563,None,913.9079068630563,None,914.3581057608026,None,914.3581057608026,None,v,9.248845283185801,914.3581057608026,None,t,7.140172468931269,914.3581057608026,None,9.248845283185801,7.140172468931269,7.756589144289972,False,False,False,923.6889778795412,None,923.6889778795412,None,923.6889778795412,None,923.6889778795412,None,923.6889778795412,None,923.6889778795412,None,923.6889778795412,None,923.6889778795412,None,924.688473938957,None,924.688473938957,None,925.6715465394409,None,925.6715465394409,None,c,,,,,,,,,,,,,,,,,,,,,,,,,,,,,,,,,,,,,,,,,,,,,,,35_36Exp,001,2021_May_10_1553,ComputerHuman,2020.1.3,60.00898951768544,
Computer.xlsx,c,Sychronize.jpg,Number6.jpg,6,Computer,,,,,0,5,5,7,0,6,6,1,,,,,,,,,,,,,,,,,,,,,,,,,,,,,926.7221122135488,None,926.7221122135488,None,927.1719181595363,None,927.1719181595363,None,v,5.634333526548289,927.1719181595363,None,t,5.689226160902763,927.1719181595363,None,5.634333526548289,5.689226160902763,6.403651758957719,False,False,False,932.9362221649826,None,932.9362221649826,None,932.9362221649826,None,932.9362221649826,None,932.9362221649826,None,932.9362221649826,None,932.9362221649826,None,932.9362221649826,None,933.9528072954963,None,933.9528072954963,None,934.9359446929229,None,934.9359446929229,None,c,,,,,,,,,,,,,,,,,,,,,,,,,,,,,,,,,,,,,,,,,,,,,,,35_36Exp,001,2021_May_10_1553,ComputerHuman,2020.1.3,60.00898951768544,
Computer.xlsx,c,Sychronize.jpg,Number8.jpg,8,Computer,,,,,0,5,5,7,0,7,7,5,,,,,,,,,,,,,,,,,,,,,,,,,,,,,935.9862454052709,None,935.9862454052709,None,936.4362120605074,None,936.4362120605074,None,v,7.421252627565991,936.4362120605074,None,t,6.860164346860984,936.4362120605074,None,7.421252627565991,6.860164346860984,8.031594392285987,False,False,False,943.93449061102,None,943.93449061102,None,943.93449061102,None,943.93449061102,None,943.93449061102,None,943.93449061102,None,943.93449061102,None,943.93449061102,None,944.9333634008253,None,944.9333634008253,None,945.9332504873419,None,945.9332504873419,None,c,,,,,,,,,,,,,,,,,,,,,,,,,,,,,,,,,,,,,,,,,,,,,,,35_36Exp,001,2021_May_10_1553,ComputerHuman,2020.1.3,60.00898951768544,
Computer.xlsx,c,Sychronize.jpg,Number7.jpg,7,Computer,,,,,0,5,5,7,0,8,8,3,,,,,,,,,,,,,,,,,,,,,,,,,,,,,946.9834398900894,None,946.9834398900894,None,947.4332978019411,None,947.4332978019411,None,v,7.383220029569202,947.4332978019411,None,t,6.6901705282325565,947.4332978019411,None,7.383220029569202,6.6901705282325565,6.689853988207841,False,False,True,954.9143419693974,None,954.9143419693974,None,954.9143419693974,None,954.9143419693974,None,954.9143419693974,None,954.9143419693974,None,954.9143419693974,None,954.9143419693974,None,955.9140057951554,None,955.9140057951554,None,956.8805186065074,None,956.8805186065074,None,c,,,,,,,,,,,,,,,,,,,,,,,,,,,,,,,,,,,,,,,,,,,,,,,35_36Exp,001,2021_May_10_1553,ComputerHuman,2020.1.3,60.00898951768544,
Computer.xlsx,c,Sychronize.jpg,Number10.jpg,10,Computer,,,,,0,5,5,7,0,9,9,8,,,,,,,,,,,,,,,,,,,,,,,,,,,,,957.9307833918392,None,957.9307833918392,None,958.3806804384767,None,958.3806804384767,None,v,8.81491651298711,958.3806804384767,None,t,9.070254321584798,958.3806804384767,None,8.81491651298711,9.070254321584798,9.827147258296314,False,False,False,967.5295219044128,None,967.5295219044128,None,967.5295219044128,None,967.5295219044128,None,967.5295219044128,None,967.5295219044128,None,967.5295219044128,None,967.5295219044128,None,968.5442616051478,None,968.5442616051478,None,969.5274025311228,None,969.5274025311228,None,c,,,,,,,,,,,,,,,,,,,,,,,,,,,,,,,,,,,,,,,,,,,,,,,35_36Exp,001,2021_May_10_1553,ComputerHuman,2020.1.3,60.00898951768544,
Computer.xlsx,c,,,,,,,,,0,5,5,7,,,,,,,,,,,,,,,,,,,,,,,,,,,,,,,,,,,,,,,,,,,,,,,,,,,,,,,,,,,,,,,,,,,,,,,,,,,,,,,c,970.5277553857668,None,970.5277553857668,None,q,0,1.4674271860385488,970.5277553857668,None,o,0,3.238710977082519,970.5277553857668,None,h,h,973.8610817689296,None,973.8610817689296,None,975.8425286718448,None,None,None,None,None,None,None,None,,,,,,,,,,,,,,,,,,35_36Exp,001,2021_May_10_1553,ComputerHuman,2020.1.3,60.00898951768544,
Human.xlsx,h,Sychronize.jpg,Number8.jpg,8,Human,,,,,0,6,6,2,0,0,0,5,,,,,,,,,,,,,,,,,,,,,,,,,980.8614894764323,None,980.8614894764323,None,983.9578348325922,None,983.9578348325922,None,984.3742934486763,None,984.3742934486763,None,v,6.363410449179355,984.3742934486763,None,t,6.666135673891404,984.3742934486763,None,6.363410449179355,6.666135673891404,7.957005376959855,False,False,False,991.1234186097463,None,991.1234186097463,None,991.1234186097463,None,991.1234186097463,None,991.1234186097463,None,991.1234186097463,None,991.1234186097463,None,991.1234186097463,None,992.1245884832751,None,992.1245884832751,None,993.1213534477574,None,993.1213534477574,None,h,,,,,,,,,,,,,,,,,,,,,,,,,,,,,,,,,,,,,,,,,,,,,,,35_36Exp,001,2021_May_10_1553,ComputerHuman,2020.1.3,60.00898951768544,
Human.xlsx,h,Sychronize.jpg,Number9.jpg,9,Human,,,,,0,6,6,2,0,1,1,7,,,,,,,,,,,,,,,,,,,,,,,,,,,,,994.171796585073,None,994.171796585073,None,994.621794355673,None,994.621794355673,None,v,9.102923529022519,994.621794355673,None,t,6.126223483373906,994.621794355673,None,9.102923529022519,6.126223483373906,8.657512978182423,False,False,False,1003.8189121106443,None,1003.8189121106443,None,1003.8189121106443,None,1003.8189121106443,None,1003.8189121106443,None,1003.8189121106443,None,1003.8189121106443,None,1003.8189121106443,None,1004.8045833251817,None,1004.8045833251817,None,1005.7851561109128,None,1005.7851561109128,None,h,,,,,,,,,,,,,,,,,,,,,,,,,,,,,,,,,,,,,,,,,,,,,,,35_36Exp,001,2021_May_10_1553,ComputerHuman,2020.1.3,60.00898951768544,
Human.xlsx,h,Sychronize.jpg,Number10.jpg,10,Human,,,,,0,6,6,2,0,2,2,8,,,,,,,,,,,,,,,,,,,,,,,,,,,,,1006.8523624099471,None,1006.8523624099471,None,1007.284952577942,None,1007.284952577942,None,v,7.014947564195609,1007.284952577942,None,t,8.594034960195131,1007.284952577942,None,7.014947564195609,8.594034960195131,9.28965759536067,False,False,False,1015.9659597918944,None,1015.9659597918944,None,1015.9659597918944,None,1015.9659597918944,None,1015.9659597918944,None,1015.9659597918944,None,1015.9659597918944,None,1015.9659597918944,None,1016.9513310799812,None,1016.9513310799812,None,1017.9488210003692,None,1017.9488210003692,None,h,,,,,,,,,,,,,,,,,,,,,,,,,,,,,,,,,,,,,,,,,,,,,,,35_36Exp,001,2021_May_10_1553,ComputerHuman,2020.1.3,60.00898951768544,
Human.xlsx,h,Sychronize.jpg,Number6.jpg,6,Human,,,,,0,6,6,2,0,3,3,1,,,,,,,,,,,,,,,,,,,,,,,,,,,,,1018.9825096369423,None,1018.9825096369423,None,1019.4489446598818,None,1019.4489446598818,None,v,6.190070285436377,1019.4489446598818,None,t,5.181292224271601,1019.4489446598818,None,6.190070285436377,5.181292224271601,5.750700206984414,False,False,False,1025.7151192760975,None,1025.7151192760975,None,1025.7151192760975,None,1025.7151192760975,None,1025.7151192760975,None,1025.7151192760975,None,1025.7151192760975,None,1025.7151192760975,None,1026.6988549225316,None,1026.6988549225316,None,1027.6962960848214,None,1027.6962960848214,None,h,,,,,,,,,,,,,,,,,,,,,,,,,,,,,,,,,,,,,,,,,,,,,,,35_36Exp,001,2021_May_10_1553,ComputerHuman,2020.1.3,60.00898951768544,
Human.xlsx,h,Sychronize.jpg,Number7.jpg,7,Human,,,,,0,6,6,2,0,4,4,3,,,,,,,,,,,,,,,,,,,,,,,,,,,,,1028.762987216076,None,1028.762987216076,None,1029.2131123351246,None,1029.2131123351246,None,v,4.441278732392675,1029.2131123351246,None,t,5.812238667029305,1029.2131123351246,None,4.441278732392675,5.812238667029305,7.231885844744319,False,False,False,1035.1112114430107,None,1035.1112114430107,None,1035.1112114430107,None,1035.1112114430107,None,1035.1112114430107,None,1035.1112114430107,None,1035.1112114430107,None,1035.1112114430107,None,1036.0969144144656,None,1036.0969144144656,None,1037.0940684813868,None,1037.0940684813868,None,h,,,,,,,,,,,,,,,,,,,,,,,,,,,,,,,,,,,,,,,,,,,,,,,35_36Exp,001,2021_May_10_1553,ComputerHuman,2020.1.3,60.00898951768544,
Human.xlsx,h,Sychronize.jpg,Number10.jpg,10,Human,,,,,0,6,6,2,0,5,5,9,,,,,,,,,,,,,,,,,,,,,,,,,,,,,1038.1441671042594,None,1038.1441671042594,None,1038.5773022722897,None,1038.5773022722897,None,v,6.73613561935781,1038.5773022722897,None,t,6.875163556145708,1038.5773022722897,None,6.73613561935781,6.875163556145708,10.387893961090766,True,False,False,1045.5417666020512,None,1045.5417666020512,None,1045.5417666020512,None,1045.5417666020512,None,1045.5417666020512,None,1045.5417666020512,None,1045.5417666020512,None,1045.5417666020512,None,1046.526966595251,None,1046.526966595251,None,1047.5247872366708,None,1047.5247872366708,None,h,,,,,,,,,,,,,,,,,,,,,,,,,,,,,,,,,,,,,,,,,,,,,,,35_36Exp,001,2021_May_10_1553,ComputerHuman,2020.1.3,60.00898951768544,
Human.xlsx,h,Sychronize.jpg,Number9.jpg,9,Human,,,,,0,6,6,2,0,6,6,6,,,,,,,,,,,,,,,,,,,,,,,,,,,,,1048.54090820294,None,1048.54090820294,None,1049.0246199514913,None,1049.0246199514913,None,v,5.728108497027279,1049.0246199514913,None,t,6.315190616889595,1049.0246199514913,None,5.728108497027279,6.315190616889595,9.377195781996258,False,False,False,1055.4077812788819,None,1055.4077812788819,None,1055.4077812788819,None,1055.4077812788819,None,1055.4077812788819,None,1055.4077812788819,None,1055.4077812788819,None,1055.4077812788819,None,1056.3915066604532,None,1056.3915066604532,None,1057.3890594531222,None,1057.3890594531222,None,h,,,,,,,,,,,,,,,,,,,,,,,,,,,,,,,,,,,,,,,,,,,,,,,35_36Exp,001,2021_May_10_1553,ComputerHuman,2020.1.3,60.00898951768544,
Human.xlsx,h,Sychronize.jpg,Number8.jpg,8,Human,,,,,0,6,6,2,0,7,7,4,,,,,,,,,,,,,,,,,,,,,,,,,,,,,1058.4558359110451,None,1058.4558359110451,None,1058.8892899313578,None,1058.8892899313578,None,v,6.210649730499426,1058.8892899313578,None,t,5.470201906631701,1058.8892899313578,None,6.210649730499426,5.470201906631701,7.800151139232408,False,False,False,1065.1871964447637,None,1065.1871964447637,None,1065.1871964447637,None,1065.1871964447637,None,1065.1871964447637,None,1065.1871964447637,None,1065.1871964447637,None,1065.1871964447637,None,1066.1722261054056,None,1066.1722261054056,None,1067.1699851576523,None,1067.1699851576523,None,h,,,,,,,,,,,,,,,,,,,,,,,,,,,,,,,,,,,,,,,,,,,,,,,35_36Exp,001,2021_May_10_1553,ComputerHuman,2020.1.3,60.00898951768544,
Human.xlsx,h,Sychronize.jpg,Number7.jpg,7,Human,,,,,0,6,6,2,0,8,8,2,,,,,,,,,,,,,,,,,,,,,,,,,,,,,1068.219756908813,None,1068.219756908813,None,1068.6698926135032,None,1068.6698926135032,None,v,6.173299745849363,1068.6698926135032,None,t,5.080301376357966,1068.6698926135032,None,6.173299745849363,5.080301376357966,7.241918302848328,False,False,False,1074.9347642337561,None,1074.9347642337561,None,1074.9347642337561,None,1074.9347642337561,None,1074.9347642337561,None,1074.9347642337561,None,1074.9347642337561,None,1074.9347642337561,None,1075.90267210405,None,1075.90267210405,None,1076.9009341345482,None,1076.9009341345482,None,h,,,,,,,,,,,,,,,,,,,,,,,,,,,,,,,,,,,,,,,,,,,,,,,35_36Exp,001,2021_May_10_1553,ComputerHuman,2020.1.3,60.00898951768544,
Human.xlsx,h,Sychronize.jpg,Number6.jpg,6,Human,,,,,0,6,6,2,0,9,9,0,,,,,,,,,,,,,,,,,,,,,,,,,,,,,1077.967213388205,None,1077.967213388205,None,1078.4011565933615,None,1078.4011565933615,None,v,3.173485796476598,1078.4011565933615,None,t,4.244363066896767,1078.4011565933615,None,3.173485796476598,4.244363066896767,6.053368285869236,False,False,False,1082.7176739437054,None,1082.7176739437054,None,1082.7176739437054,None,1082.7176739437054,None,1082.7176739437054,None,1082.7176739437054,None,1082.7176739437054,None,1082.7176739437054,None,1083.7184810185063,None,1083.7184810185063,None,1084.7156764656538,None,1084.7156764656538,None,h,,,,,,,,,,,,,,,,,,,,,,,,,,,,,,,,,,,,,,,,,,,,,,,35_36Exp,001,2021_May_10_1553,ComputerHuman,2020.1.3,60.00898951768544,
Human.xlsx,h,,,,,,,,,0,6,6,2,,,,,,,,,,,,,,,,,,,,,,,,,,,,,,,,,,,,,,,,,,,,,,,,,,,,,,,,,,,,,,,,,,,,,,,,,,,,,,,h,1085.7167180284014,None,1085.7167180284014,None,q,0,1.2334884076044546,1085.7167180284014,None,o,1,9.275971785740694,1085.7167180284014,None,h,h,1095.0632190415781,None,1095.0632190415781,None,1097.0793011938367,None,None,None,None,None,None,None,None,,,,,,,,,,,,,,,,,,35_36Exp,001,2021_May_10_1553,ComputerHuman,2020.1.3,60.00898951768544,
Human.xlsx,h,Sychronize.jpg,Number10.jpg,10,Human,,,,,0,7,7,0,0,0,0,9,,,,,,,,,,,,,,,,,,,,,,,,,1102.080549657716,None,1102.080549657716,None,1105.1439919600452,None,1105.1439919600452,None,1105.5777070927943,None,1105.5777070927943,None,v,5.666587007057387,1105.5777070927943,None,t,7.8382113349107385,1105.5777070927943,None,5.666587007057387,7.8382113349107385,9.522630108649873,False,False,False,1113.5084304993434,None,1113.5084304993434,None,1113.5084304993434,None,1113.5084304993434,None,1113.5084304993434,None,1113.5084304993434,None,1113.5084304993434,None,1113.5084304993434,None,1114.5106060086,None,1114.5106060086,None,1115.5080725122716,None,1115.5080725122716,None,h,,,,,,,,,,,,,,,,,,,,,,,,,,,,,,,,,,,,,,,,,,,,,,,35_36Exp,001,2021_May_10_1553,ComputerHuman,2020.1.3,60.00898951768544,
Human.xlsx,h,Sychronize.jpg,Number8.jpg,8,Human,,,,,0,7,7,0,0,1,1,4,,,,,,,,,,,,,,,,,,,,,,,,,,,,,1116.5581400197807,None,1116.5581400197807,None,1117.0081143736606,None,1117.0081143736606,None,v,5.943289843464299,1117.0081143736606,None,t,5.442301048522495,1117.0081143736606,None,5.943289843464299,5.442301048522495,8.466090127001426,False,False,False,1123.0244666201106,None,1123.0244666201106,None,1123.0244666201106,None,1123.0244666201106,None,1123.0244666201106,None,1123.0244666201106,None,1123.0244666201106,None,1123.0244666201106,None,1124.0075007273626,None,1124.0075007273626,None,1125.0057095088887,None,1125.0057095088887,None,h,,,,,,,,,,,,,,,,,,,,,,,,,,,,,,,,,,,,,,,,,,,,,,,35_36Exp,001,2021_May_10_1553,ComputerHuman,2020.1.3,60.00898951768544,
Human.xlsx,h,Sychronize.jpg,Number7.jpg,7,Human,,,,,0,7,7,0,0,2,2,3,,,,,,,,,,,,,,,,,,,,,,,,,,,,,1126.072394866158,None,1126.072394866158,None,1126.5052134273392,None,1126.5052134273392,None,v,4.7815011783714,1126.5052134273392,None,t,4.585453214520385,1126.5052134273392,None,4.7815011783714,4.585453214520385,7.3439020276894365,True,False,False,1131.3556239095597,None,1131.3556239095597,None,1131.3556239095597,None,1131.3556239095597,None,1131.3556239095597,None,1131.3556239095597,None,1131.3556239095597,None,1131.3556239095597,None,1132.3562112521504,None,1132.3562112521504,None,1133.3536601130872,None,1133.3536601130872,None,h,,,,,,,,,,,,,,,,,,,,,,,,,,,,,,,,,,,,,,,,,,,,,,,35_36Exp,001,2021_May_10_1553,ComputerHuman,2020.1.3,60.00898951768544,
Human.xlsx,h,Sychronize.jpg,Number7.jpg,7,Human,,,,,0,7,7,0,0,3,3,2,,,,,,,,,,,,,,,,,,,,,,,,,,,,,1134.3868088820564,None,1134.3868088820564,None,1134.8538168126252,None,1134.8538168126252,None,v,4.560312000488921,1134.8538168126252,None,t,4.935299610478978,1134.8538168126252,None,4.560312000488921,4.935299610478978,7.191400904383542,False,False,False,1139.8853709993891,None,1139.8853709993891,None,1139.8853709993891,None,1139.8853709993891,None,1139.8853709993891,None,1139.8853709993891,None,1139.8853709993891,None,1139.8853709993891,None,1140.8533504029438,None,1140.8533504029438,None,1141.851540579406,None,1141.851540579406,None,h,,,,,,,,,,,,,,,,,,,,,,,,,,,,,,,,,,,,,,,,,,,,,,,35_36Exp,001,2021_May_10_1553,ComputerHuman,2020.1.3,60.00898951768544,
Human.xlsx,h,Sychronize.jpg,Number6.jpg,6,Human,,,,,0,7,7,0,0,4,4,0,,,,,,,,,,,,,,,,,,,,,,,,,,,,,1142.9020311917084,None,1142.9020311917084,None,1143.3517328851885,None,1143.3517328851885,None,v,4.6337227672411245,1143.3517328851885,None,t,3.8894952286027547,1143.3517328851885,None,4.6337227672411245,3.8894952286027547,5.83699335470394,False,False,False,1148.0833452288134,None,1148.0833452288134,None,1148.0833452288134,None,1148.0833452288134,None,1148.0833452288134,None,1148.0833452288134,None,1148.0833452288134,None,1148.0833452288134,None,1149.0679325380406,None,1149.0679325380406,None,1150.066183341347,None,1150.066183341347,None,h,,,,,,,,,,,,,,,,,,,,,,,,,,,,,,,,,,,,,,,,,,,,,,,35_36Exp,001,2021_May_10_1553,ComputerHuman,2020.1.3,60.00898951768544,
Human.xlsx,h,Sychronize.jpg,Number9.jpg,9,Human,,,,,0,7,7,0,0,5,5,6,,,,,,,,,,,,,,,,,,,,,,,,,,,,,1151.1156423349858,None,1151.1156423349858,None,1151.5664815035198,None,1151.5664815035198,None,v,6.146192489908572,1151.5664815035198,None,t,6.313322091169539,1151.5664815035198,None,6.146192489908572,6.313322091169539,9.611847897804422,True,False,False,1157.9641842914898,None,1157.9641842914898,None,1157.9641842914898,None,1157.9641842914898,None,1157.9641842914898,None,1157.9641842914898,None,1157.9641842914898,None,1157.9641842914898,None,1158.93322514596,None,1158.93322514596,None,1159.9304619733375,None,1159.9304619733375,None,h,,,,,,,,,,,,,,,,,,,,,,,,,,,,,,,,,,,,,,,,,,,,,,,35_36Exp,001,2021_May_10_1553,ComputerHuman,2020.1.3,60.00898951768544,
Human.xlsx,h,Sychronize.jpg,Number9.jpg,9,Human,,,,,0,7,7,0,0,6,6,7,,,,,,,,,,,,,,,,,,,,,,,,,,,,,1160.9807174561356,None,1160.9807174561356,None,1161.4306946970137,None,1161.4306946970137,None,v,6.629195962959784,1161.4306946970137,None,t,6.252214082684077,1161.4306946970137,None,6.629195962959784,6.252214082684077,9.413078097026023,False,False,False,1168.145082280891,None,1168.145082280891,None,1168.145082280891,None,1168.145082280891,None,1168.145082280891,None,1168.145082280891,None,1168.145082280891,None,1168.145082280891,None,1169.1304558144184,None,1169.1304558144184,None,1170.1279319413952,None,1170.1279319413952,None,h,,,,,,,,,,,,,,,,,,,,,,,,,,,,,,,,,,,,,,,,,,,,,,,35_36Exp,001,2021_May_10_1553,ComputerHuman,2020.1.3,60.00898951768544,
Human.xlsx,h,Sychronize.jpg,Number10.jpg,10,Human,,,,,0,7,7,0,0,7,7,8,,,,,,,,,,,,,,,,,,,,,,,,,,,,,1171.1783452464551,None,1171.1783452464551,None,1171.6112802496682,None,1171.6112802496682,None,v,6.619804576268507,1171.6112802496682,None,t,6.707197689382156,1171.6112802496682,None,6.619804576268507,6.707197689382156,9.848309417896164,True,False,False,1178.3924680289638,None,1178.3924680289638,None,1178.3924680289638,None,1178.3924680289638,None,1178.3924680289638,None,1178.3924680289638,None,1178.3924680289638,None,1178.3924680289638,None,1179.3946316694746,None,1179.3946316694746,None,1180.392042037176,None,1180.392042037176,None,h,,,,,,,,,,,,,,,,,,,,,,,,,,,,,,,,,,,,,,,,,,,,,,,35_36Exp,001,2021_May_10_1553,ComputerHuman,2020.1.3,60.00898951768544,
Human.xlsx,h,Sychronize.jpg,Number8.jpg,8,Human,,,,,0,7,7,0,0,8,8,5,,,,,,,,,,,,,,,,,,,,,,,,,,,,,1181.4421477171418,None,1181.4421477171418,None,1181.892158639599,None,1181.892158639599,None,v,5.1742736246596905,1181.892158639599,None,t,5.545282638169738,1181.892158639599,None,5.1742736246596905,5.545282638169738,7.664360933754061,False,False,False,1187.5236539317157,None,1187.5236539317157,None,1187.5236539317157,None,1187.5236539317157,None,1187.5236539317157,None,1187.5236539317157,None,1187.5236539317157,None,1187.5236539317157,None,1188.4917982146217,None,1188.4917982146217,None,1189.4898806100282,None,1189.4898806100282,None,h,,,,,,,,,,,,,,,,,,,,,,,,,,,,,,,,,,,,,,,,,,,,,,,35_36Exp,001,2021_May_10_1553,ComputerHuman,2020.1.3,60.00898951768544,
Human.xlsx,h,Sychronize.jpg,Number6.jpg,6,Human,,,,,0,7,7,0,0,9,9,1,,,,,,,,,,,,,,,,,,,,,,,,,,,,,1190.5572213146006,None,1190.5572213146006,None,1190.9896421123667,None,1190.9896421123667,None,v,4.0402389018381655,1190.9896421123667,None,t,3.707457839482231,1190.9896421123667,None,4.0402389018381655,3.707457839482231,5.58104370893958,False,False,False,1195.1217515319513,None,1195.1217515319513,None,1195.1217515319513,None,1195.1217515319513,None,1195.1217515319513,None,1195.1217515319513,None,1195.1217515319513,None,1195.1217515319513,None,1196.107413443955,None,1196.107413443955,None,1197.1046101742104,None,1197.1046101742104,None,h,,,,,,,,,,,,,,,,,,,,,,,,,,,,,,,,,,,,,,,,,,,,,,,35_36Exp,001,2021_May_10_1553,ComputerHuman,2020.1.3,60.00898951768544,
Human.xlsx,h,,,,,,,,,0,7,7,0,,,,,,,,,,,,,,,,,,,,,,,,,,,,,,,,,,,,,,,,,,,,,,,,,,,,,,,,,,,,,,,,,,,,,,,,,,,,,,,h,1198.1048417751663,None,1198.1048417751663,None,q,0,1.0646574054080702,1198.1048417751663,None,o,1,2.2558055013869307,1198.1048417751663,None,h,h,1200.4539898397124,None,1200.4539898397124,None,1202.4533020939343,None,None,None,None,None,None,None,None,,,,,,,,,,,,,,,,,,35_36Exp,001,2021_May_10_1553,ComputerHuman,2020.1.3,60.00898951768544,
Computer.xlsx,c,Sychronize.jpg,Number7.jpg,7,Computer,,,,,0,8,8,9,0,0,0,2,,,,,,,,,,,,,,,,,,,,,,,,,1207.4383250182618,None,1207.4383250182618,None,1210.5179213268893,None,1210.5179213268893,None,1210.9514808828171,None,1210.9514808828171,None,v,4.212748894842662,1210.9514808828171,None,t,3.3484946419011976,1210.9514808828171,None,4.212748894842662,3.3484946419011976,7.163230523648386,False,False,False,1215.2348635783746,None,1215.2348635783746,None,1215.2348635783746,None,1215.2348635783746,None,1215.2348635783746,None,1215.2348635783746,None,1215.2348635783746,None,1215.2348635783746,None,1216.2664248222354,None,1216.2664248222354,None,1217.2496408100124,None,1217.2496408100124,None,c,,,,,,,,,,,,,,,,,,,,,,,,,,,,,,,,,,,,,,,,,,,,,,,35_36Exp,001,2021_May_10_1553,ComputerHuman,2020.1.3,60.00898951768544,
Computer.xlsx,c,Sychronize.jpg,Number7.jpg,7,Computer,,,,,0,8,8,9,0,1,1,3,,,,,,,,,,,,,,,,,,,,,,,,,,,,,1218.283218136985,None,1218.283218136985,None,1218.7496489898258,None,1218.7496489898258,None,v,5.429855544516613,1218.7496489898258,None,t,4.225352221106732,1218.7496489898258,None,5.429855544516613,4.225352221106732,7.174430243094051,False,False,False,1224.2646441893994,None,1224.2646441893994,None,1224.2646441893994,None,1224.2646441893994,None,1224.2646441893994,None,1224.2646441893994,None,1224.2646441893994,None,1224.2646441893994,None,1225.2477321871775,None,1225.2477321871775,None,1226.2306652496882,None,1226.2306652496882,None,c,,,,,,,,,,,,,,,,,,,,,,,,,,,,,,,,,,,,,,,,,,,,,,,35_36Exp,001,2021_May_10_1553,ComputerHuman,2020.1.3,60.00898951768544,
Computer.xlsx,c,Sychronize.jpg,Number10.jpg,10,Computer,,,,,0,8,8,9,0,2,2,9,,,,,,,,,,,,,,,,,,,,,,,,,,,,,1227.2979090796252,None,1227.2979090796252,None,1227.730625633736,None,1227.730625633736,None,v,7.907987057293212,1227.730625633736,None,t,5.755344705306925,1227.730625633736,None,7.907987057293212,5.755344705306925,9.530428581781104,False,False,False,1235.7283683263558,None,1235.7283683263558,None,1235.7283683263558,None,1235.7283683263558,None,1235.7283683263558,None,1235.7283683263558,None,1235.7283683263558,None,1235.7283683263558,None,1236.7281562927928,None,1236.7281562927928,None,1237.6945719087307,None,1237.6945719087307,None,c,,,,,,,,,,,,,,,,,,,,,,,,,,,,,,,,,,,,,,,,,,,,,,,35_36Exp,001,2021_May_10_1553,ComputerHuman,2020.1.3,60.00898951768544,
Computer.xlsx,c,Sychronize.jpg,Number8.jpg,8,Computer,,,,,0,8,8,9,0,3,3,5,,,,,,,,,,,,,,,,,,,,,,,,,,,,,1238.7614134843716,None,1238.7614134843716,None,1239.193654326271,None,1239.193654326271,None,v,8.008087107620668,1239.193654326271,None,t,5.711420717892906,1239.193654326271,None,8.008087107620668,5.711420717892906,8.26381121881705,False,True,False,1247.2920693352971,None,1247.2920693352971,None,1247.2920693352971,None,1247.2920693352971,None,1247.2920693352971,None,1247.2920693352971,None,1247.2920693352971,None,1247.2920693352971,None,1248.2918483199792,None,1248.2918483199792,None,1249.2749850758519,None,1249.2749850758519,None,c,,,,,,,,,,,,,,,,,,,,,,,,,,,,,,,,,,,,,,,,,,,,,,,35_36Exp,001,2021_May_10_1553,ComputerHuman,2020.1.3,60.00898951768544,
Computer.xlsx,c,Sychronize.jpg,Number6.jpg,6,Computer,,,,,0,8,8,9,0,4,4,0,,,,,,,,,,,,,,,,,,,,,,,,,,,,,1250.3246682925783,None,1250.3246682925783,None,1250.7748687942076,None,1250.7748687942076,None,v,5.610123207217839,1250.7748687942076,None,t,3.885348224226618,1250.7748687942076,None,5.610123207217839,3.885348224226618,6.232933050958148,False,False,False,1256.4579863996987,None,1256.4579863996987,None,1256.4579863996987,None,1256.4579863996987,None,1256.4579863996987,None,1256.4579863996987,None,1256.4579863996987,None,1256.4579863996987,None,1257.4562885273153,None,1257.4562885273153,None,1258.4393813367496,None,1258.4393813367496,None,c,,,,,,,,,,,,,,,,,,,,,,,,,,,,,,,,,,,,,,,,,,,,,,,35_36Exp,001,2021_May_10_1553,ComputerHuman,2020.1.3,60.00898951768544,
Computer.xlsx,c,Sychronize.jpg,Number10.jpg,10,Computer,,,,,0,8,8,9,0,5,5,8,,,,,,,,,,,,,,,,,,,,,,,,,,,,,1259.4897542239123,None,1259.4897542239123,None,1259.9392480539282,None,1259.9392480539282,None,v,9.016726272369851,1259.9392480539282,None,t,6.428215091207676,1259.9392480539282,None,9.016726272369851,6.428215091207676,10.038277957159996,False,False,False,1269.0534488173107,None,1269.0534488173107,None,1269.0534488173107,None,1269.0534488173107,None,1269.0534488173107,None,1269.0534488173107,None,1269.0534488173107,None,1269.0534488173107,None,1270.0532101592617,None,1270.0532101592617,None,1271.0196745332942,None,1271.0196745332942,None,c,,,,,,,,,,,,,,,,,,,,,,,,,,,,,,,,,,,,,,,,,,,,,,,35_36Exp,001,2021_May_10_1553,ComputerHuman,2020.1.3,60.00898951768544,
Computer.xlsx,c,Sychronize.jpg,Number9.jpg,9,Computer,,,,,0,8,8,9,0,6,6,6,,,,,,,,,,,,,,,,,,,,,,,,,,,,,1272.0700936123358,None,1272.0700936123358,None,1272.5198690845136,None,1272.5198690845136,None,v,0.3559061932719487,1272.5198690845136,None,t,6.390208476146654,1272.5198690845136,None,0.3559061932719487,6.390208476146654,9.628929770186417,False,False,False,1279.0012494262119,None,1279.0012494262119,None,1279.0012494262119,None,1279.0012494262119,None,1279.0012494262119,None,1279.0012494262119,None,1279.0012494262119,None,1279.0012494262119,None,1280.0007608829183,None,1280.0007608829183,None,1280.983887694707,None,1280.983887694707,None,c,,,,,,,,,,,,,,,,,,,,,,,,,,,,,,,,,,,,,,,,,,,,,,,35_36Exp,001,2021_May_10_1553,ComputerHuman,2020.1.3,60.00898951768544,
Computer.xlsx,c,Sychronize.jpg,Number9.jpg,9,Computer,,,,,0,8,8,9,0,7,7,7,,,,,,,,,,,,,,,,,,,,,,,,,,,,,1282.0340511145223,None,1282.0340511145223,None,1282.4840559422155,None,1282.4840559422155,None,v,8.274212324187829,1282.4840559422155,None,t,6.253265910294431,1282.4840559422155,None,8.274212324187829,6.253265910294431,8.611138104381032,False,False,False,1290.8480607910824,None,1290.8480607910824,None,1290.8480607910824,None,1290.8480607910824,None,1290.8480607910824,None,1290.8480607910824,None,1290.8480607910824,None,1290.8480607910824,None,1291.8311394863267,None,1291.8311394863267,None,1292.8143189055336,None,1292.8143189055336,None,c,,,,,,,,,,,,,,,,,,,,,,,,,,,,,,,,,,,,,,,,,,,,,,,35_36Exp,001,2021_May_10_1553,ComputerHuman,2020.1.3,60.00898951768544,
Computer.xlsx,c,Sychronize.jpg,Number8.jpg,8,Computer,,,,,0,8,8,9,0,8,8,4,,,,,,,,,,,,,,,,,,,,,,,,,,,,,1293.8642619515886,None,1293.8642619515886,None,1294.314283138905,None,1294.314283138905,None,v,8.295110942312022,1294.314283138905,None,t,5.29427114826467,1294.314283138905,None,8.295110942312022,5.29427114826467,7.595283303368288,False,False,False,1302.695180743376,None,1302.695180743376,None,1302.695180743376,None,1302.695180743376,None,1302.695180743376,None,1302.695180743376,None,1302.695180743376,None,1302.695180743376,None,1303.6948246809625,None,1303.6948246809625,None,1304.6614096671256,None,1304.6614096671256,None,c,,,,,,,,,,,,,,,,,,,,,,,,,,,,,,,,,,,,,,,,,,,,,,,35_36Exp,001,2021_May_10_1553,ComputerHuman,2020.1.3,60.00898951768544,
Computer.xlsx,c,Sychronize.jpg,Number6.jpg,6,Computer,,,,,0,8,8,9,0,9,9,1,,,,,,,,,,,,,,,,,,,,,,,,,,,,,1305.7283558160561,None,1305.7283558160561,None,1306.1612436650576,None,1306.1612436650576,None,v,5.823411007331742,1306.1612436650576,None,t,4.038524028277607,1306.1612436650576,None,5.823411007331742,4.038524028277607,5.887826546493696,False,True,False,1312.0763064202547,None,1312.0763064202547,None,1312.0763064202547,None,1312.0763064202547,None,1312.0763064202547,None,1312.0763064202547,None,1312.0763064202547,None,1312.0763064202547,None,1313.0758467468877,None,1313.0758467468877,None,1314.0590717164232,None,1314.0590717164232,None,c,,,,,,,,,,,,,,,,,,,,,,,,,,,,,,,,,,,,,,,,,,,,,,,35_36Exp,001,2021_May_10_1553,ComputerHuman,2020.1.3,60.00898951768544,
Computer.xlsx,c,,,,,,,,,0,8,8,9,,,,,,,,,,,,,,,,,,,,,,,,,,,,,,,,,,,,,,,,,,,,,,,,,,,,,,,,,,,,,,,,,,,,,,,,,,,,,,,c,1315.059807578742,None,1315.059807578742,None,q,0,0.5684940580867988,1315.059807578742,None,o,0,1.947604293407494,1315.059807578742,None,h,h,1317.0921383664936,None,1317.0921383664936,None,1319.0912296054012,None,None,None,None,None,None,None,None,,,,,,,,,,,,,,,,,,35_36Exp,001,2021_May_10_1553,ComputerHuman,2020.1.3,60.00898951768544,
Human.xlsx,h,Sychronize.jpg,Number6.jpg,6,Human,,,,,0,9,9,4,0,0,0,1,,,,,,,,,,,,,,,,,,,,,,,,,1324.0763904638152,None,1324.0763904638152,None,1327.1397795171724,None,1327.1397795171724,None,1327.589620748622,None,1327.589620748622,None,v,5.169384342425474,1327.589620748622,None,t,5.620353104848618,1327.589620748622,None,5.169384342425474,5.620353104848618,6.251038092764977,False,False,False,1333.288959402791,None,1333.288959402791,None,1333.288959402791,None,1333.288959402791,None,1333.288959402791,None,1333.288959402791,None,1333.288959402791,None,1333.288959402791,None,1334.3068231502148,None,1334.3068231502148,None,1335.303833829843,None,1335.303833829843,None,h,,,,,,,,,,,,,,,,,,,,,,,,,,,,,,,,,,,,,,,,,,,,,,,35_36Exp,001,2021_May_10_1553,ComputerHuman,2020.1.3,60.00898951768544,
Human.xlsx,h,Sychronize.jpg,Number8.jpg,8,Human,,,,,0,9,9,4,0,1,1,4,,,,,,,,,,,,,,,,,,,,,,,,,,,,,1336.3537964432908,None,1336.3537964432908,None,1336.8039924540426,None,1336.8039924540426,None,v,6.8341345806838945,1336.8039924540426,None,t,5.921374041638046,1336.8039924540426,None,6.8341345806838945,5.921374041638046,7.418874136407597,False,False,False,1343.735039845309,None,1343.735039845309,None,1343.735039845309,None,1343.735039845309,None,1343.735039845309,None,1343.735039845309,None,1343.735039845309,None,1343.735039845309,None,1344.7037384307805,None,1344.7037384307805,None,1345.7179312068183,None,1345.7179312068183,None,h,,,,,,,,,,,,,,,,,,,,,,,,,,,,,,,,,,,,,,,,,,,,,,,35_36Exp,001,2021_May_10_1553,ComputerHuman,2020.1.3,60.00898951768544,
Human.xlsx,h,Sychronize.jpg,Number9.jpg,9,Human,,,,,0,9,9,4,0,2,2,6,,,,,,,,,,,,,,,,,,,,,,,,,,,,,1346.7679627873076,None,1346.7679627873076,None,1347.2181299281365,None,1347.2181299281365,None,v,6.911212148719642,1347.2181299281365,None,t,6.334221030072513,1347.2181299281365,None,6.911212148719642,6.334221030072513,9.150003331567161,False,False,False,1354.2157295542384,None,1354.2157295542384,None,1354.2157295542384,None,1354.2157295542384,None,1354.2157295542384,None,1354.2157295542384,None,1354.2157295542384,None,1354.2157295542384,None,1355.2012015662913,None,1355.2012015662913,None,1356.18206240972,None,1356.18206240972,None,h,,,,,,,,,,,,,,,,,,,,,,,,,,,,,,,,,,,,,,,,,,,,,,,35_36Exp,001,2021_May_10_1553,ComputerHuman,2020.1.3,60.00898951768544,
Human.xlsx,h,Sychronize.jpg,Number10.jpg,10,Human,,,,,0,9,9,4,0,3,3,8,,,,,,,,,,,,,,,,,,,,,,,,,,,,,1357.2484491236537,None,1357.2484491236537,None,1357.682598588388,None,1357.682598588388,None,v,7.241901103825512,1357.682598588388,None,t,7.677120680458756,1357.682598588388,None,7.241901103825512,7.677120680458756,9.520830124732026,False,False,False,1365.4463790858572,None,1365.4463790858572,None,1365.4463790858572,None,1365.4463790858572,None,1365.4463790858572,None,1365.4463790858572,None,1365.4463790858572,None,1365.4463790858572,None,1366.4320631314695,None,1366.4320631314695,None,1367.4292133490671,None,1367.4292133490671,None,h,,,,,,,,,,,,,,,,,,,,,,,,,,,,,,,,,,,,,,,,,,,,,,,35_36Exp,001,2021_May_10_1553,ComputerHuman,2020.1.3,60.00898951768544,
Human.xlsx,h,Sychronize.jpg,Number9.jpg,9,Human,,,,,0,9,9,4,0,4,4,7,,,,,,,,,,,,,,,,,,,,,,,,,,,,,1368.4793478989595,None,1368.4793478989595,None,1368.9293738979322,None,1368.9293738979322,None,v,7.226279908038123,1368.9293738979322,None,t,7.1131941653256945,1368.9293738979322,None,7.226279908038123,7.1131941653256945,9.291930900653103,True,False,False,1376.2269583512825,None,1376.2269583512825,None,1376.2269583512825,None,1376.2269583512825,None,1376.2269583512825,None,1376.2269583512825,None,1376.2269583512825,None,1376.2269583512825,None,1377.2125375028336,None,1377.2125375028336,None,1378.2098240506384,None,1378.2098240506384,None,h,,,,,,,,,,,,,,,,,,,,,,,,,,,,,,,,,,,,,,,,,,,,,,,35_36Exp,001,2021_May_10_1553,ComputerHuman,2020.1.3,60.00898951768544,
Human.xlsx,h,Sychronize.jpg,Number8.jpg,8,Human,,,,,0,9,9,4,0,5,5,5,,,,,,,,,,,,,,,,,,,,,,,,,,,,,1379.2767525568343,None,1379.2767525568343,None,1379.7266781526196,None,1379.7266781526196,None,v,5.640252182005497,1379.7266781526196,None,t,6.0872866151657945,1379.7266781526196,None,5.640252182005497,6.0872866151657945,7.851110811926112,False,False,False,1385.9079864157393,None,1385.9079864157393,None,1385.9079864157393,None,1385.9079864157393,None,1385.9079864157393,None,1385.9079864157393,None,1385.9079864157393,None,1385.9079864157393,None,1386.8937753554128,None,1386.8937753554128,None,1387.8908328684738,None,1387.8908328684738,None,h,,,,,,,,,,,,,,,,,,,,,,,,,,,,,,,,,,,,,,,,,,,,,,,35_36Exp,001,2021_May_10_1553,ComputerHuman,2020.1.3,60.00898951768544,
Human.xlsx,h,Sychronize.jpg,Number7.jpg,7,Human,,,,,0,9,9,4,0,6,6,3,,,,,,,,,,,,,,,,,,,,,,,,,,,,,1388.940758913348,None,1388.940758913348,None,1389.373701935987,None,1389.373701935987,None,v,4.872575848512497,1389.373701935987,None,t,5.511291829712718,1389.373701935987,None,4.872575848512497,5.511291829712718,6.6882980649408355,False,False,False,1394.9572115629817,None,1394.9572115629817,None,1394.9572115629817,None,1394.9572115629817,None,1394.9572115629817,None,1394.9572115629817,None,1394.9572115629817,None,1394.9572115629817,None,1395.9579272163537,None,1395.9579272163537,None,1396.9552808065346,None,1396.9552808065346,None,h,,,,,,,,,,,,,,,,,,,,,,,,,,,,,,,,,,,,,,,,,,,,,,,35_36Exp,001,2021_May_10_1553,ComputerHuman,2020.1.3,60.00898951768544,
Human.xlsx,h,Sychronize.jpg,Number7.jpg,7,Human,,,,,0,9,9,4,0,7,7,2,,,,,,,,,,,,,,,,,,,,,,,,,,,,,1398.0051240909597,None,1398.0051240909597,None,1398.4551635625612,None,1398.4551635625612,None,v,4.778344412432489,1398.4551635625612,None,t,5.577276610129047,1398.4551635625612,None,4.778344412432489,5.577276610129047,7.201419974738254,False,False,False,1404.1201768379142,None,1404.1201768379142,None,1404.1201768379142,None,1404.1201768379142,None,1404.1201768379142,None,1404.1201768379142,None,1404.1201768379142,None,1404.1201768379142,None,1405.104931592712,None,1405.104931592712,None,1406.0864150641974,None,1406.0864150641974,None,h,,,,,,,,,,,,,,,,,,,,,,,,,,,,,,,,,,,,,,,,,,,,,,,35_36Exp,001,2021_May_10_1553,ComputerHuman,2020.1.3,60.00898951768544,
Human.xlsx,h,Sychronize.jpg,Number10.jpg,10,Human,,,,,0,9,9,4,0,8,8,9,,,,,,,,,,,,,,,,,,,,,,,,,,,,,1407.1533031524996,None,1407.1533031524996,None,1407.5860768049097,None,1407.5860768049097,None,v,7.8824958756085834,1407.5860768049097,None,t,7.61014277461436,1407.5860768049097,None,7.8824958756085834,7.61014277461436,9.637463274903142,True,False,False,1415.5519320235144,None,1415.5519320235144,None,1415.5519320235144,None,1415.5519320235144,None,1415.5519320235144,None,1415.5519320235144,None,1415.5519320235144,None,1415.5519320235144,None,1416.551729292485,None,1416.551729292485,None,1417.5501770528354,None,1417.5501770528354,None,h,,,,,,,,,,,,,,,,,,,,,,,,,,,,,,,,,,,,,,,,,,,,,,,35_36Exp,001,2021_May_10_1553,ComputerHuman,2020.1.3,60.00898951768544,
Human.xlsx,h,Sychronize.jpg,Number6.jpg,6,Human,,,,,0,9,9,4,0,9,9,0,,,,,,,,,,,,,,,,,,,,,,,,,,,,,1418.6004030241565,None,1418.6004030241565,None,1419.050165665256,None,1419.050165665256,None,v,4.881767711940483,1419.050165665256,None,t,4.545333641704929,1419.050165665256,None,4.881767711940483,4.545333641704929,6.239843309165029,False,False,False,1423.999919805763,None,1423.999919805763,None,1423.999919805763,None,1423.999919805763,None,1423.999919805763,None,1423.999919805763,None,1423.999919805763,None,1423.999919805763,None,1424.9834677976833,None,1424.9834677976833,None,1425.981396540934,None,1425.981396540934,None,h,,,,,,,,,,,,,,,,,,,,,,,,,,,,,,,,,,,,,,,,,,,,,,,35_36Exp,001,2021_May_10_1553,ComputerHuman,2020.1.3,60.00898951768544,
Human.xlsx,h,,,,,,,,,0,9,9,4,,,,,,,,,,,,,,,,,,,,,,,,,,,,,,,,,,,,,,,,,,,,,,,,,,,,,,,,,,,,,,,,,,,,,,,,,,,,,,,h,1426.9821000047814,None,1426.9821000047814,None,q,0,1.4774360683550185,1426.9821000047814,None,o,1,2.176584501790785,1426.9821000047814,None,h,h,1429.2484500859828,None,1429.2484500859828,None,None,None,1431.2467846120744,None,1431.2467846120744,None,"['space', 'space']",1432.2298498346863,None,"[178.49142258481515, 179.25142368828529]",,,,,,,,,,,,,,,,,35_36Exp,001,2021_May_10_1553,ComputerHuman,2020.1.3,60.00898951768544,
Computer.xlsx,c,Sychronize.jpg,Number9.jpg,9,Computer,,,,,1,0,10,1,0,0,0,6,,,,,,,,,,,,,,,,,,,,,,,,,1611.5229466185447,None,1611.5229466185447,None,1614.618374552636,None,1614.618374552636,None,1615.0520027548337,None,1615.0520027548337,None,v,5.792519866517978,1615.0520027548337,None,t,8.712101727353001,1615.0520027548337,None,5.792519866517978,8.712101727353001,9.645806826029032,False,False,False,1623.833228706586,None,1623.833228706586,None,1623.833228706586,None,1623.833228706586,None,1623.833228706586,None,1623.833228706586,None,1623.833228706586,None,1623.833228706586,None,1624.8490619359327,None,1624.8490619359327,None,1625.8321242715574,None,1625.8321242715574,None,c,,,,,,,,,,,,,,,,,,,,,,,,,,,,,,,,,,,,,,,,,,,,,,,35_36Exp,001,2021_May_10_1553,ComputerHuman,2020.1.3,60.00898951768544,
Computer.xlsx,c,Sychronize.jpg,Number10.jpg,10,Computer,,,,,1,0,10,1,0,1,1,8,,,,,,,,,,,,,,,,,,,,,,,,,,,,,1626.8823351663596,None,1626.8823351663596,None,1627.3323220305429,None,1627.3323220305429,None,v,8.275058533770789,1627.3323220305429,None,t,7.1060976169173955,1627.3323220305429,None,8.275058533770789,7.1060976169173955,10.574644908124803,False,False,False,1635.68137322045,None,1635.68137322045,None,1635.68137322045,None,1635.68137322045,None,1635.68137322045,None,1635.68137322045,None,1635.68137322045,None,1635.68137322045,None,1636.6961459612103,None,1636.6961459612103,None,1637.6624935724321,None,1637.6624935724321,None,c,,,,,,,,,,,,,,,,,,,,,,,,,,,,,,,,,,,,,,,,,,,,,,,35_36Exp,001,2021_May_10_1553,ComputerHuman,2020.1.3,60.00898951768544,
Computer.xlsx,c,Sychronize.jpg,Number9.jpg,9,Computer,,,,,1,0,10,1,0,2,2,7,,,,,,,,,,,,,,,,,,,,,,,,,,,,,1638.7290637707774,None,1638.7290637707774,None,1639.1623856309889,None,1639.1623856309889,None,v,8.716004941245046,1639.1623856309889,None,t,6.323191756287997,1639.1623856309889,None,8.716004941245046,6.323191756287997,8.818363123230863,False,True,False,1647.976593226922,None,1647.976593226922,None,1647.976593226922,None,1647.976593226922,None,1647.976593226922,None,1647.976593226922,None,1647.976593226922,None,1647.976593226922,None,1648.9761701221287,None,1648.9761701221287,None,1649.9595092882555,None,1649.9595092882555,None,c,,,,,,,,,,,,,,,,,,,,,,,,,,,,,,,,,,,,,,,,,,,,,,,35_36Exp,001,2021_May_10_1553,ComputerHuman,2020.1.3,60.00898951768544,
Computer.xlsx,c,Sychronize.jpg,Number10.jpg,10,Computer,,,,,1,0,10,1,0,3,3,9,,,,,,,,,,,,,,,,,,,,,,,,,,,,,1651.0094266721535,None,1651.0094266721535,None,1651.4595469795495,None,1651.4595469795495,None,v,8.557900078623788,1651.4595469795495,None,t,7.621197389773442,1651.4595469795495,None,8.557900078623788,7.621197389773442,10.075487919512529,False,False,False,1660.1069630731217,None,1660.1069630731217,None,1660.1069630731217,None,1660.1069630731217,None,1660.1069630731217,None,1660.1069630731217,None,1660.1069630731217,None,1660.1069630731217,None,1661.0901023952101,None,1661.0901023952101,None,1662.0897642963064,None,1662.0897642963064,None,c,,,,,,,,,,,,,,,,,,,,,,,,,,,,,,,,,,,,,,,,,,,,,,,35_36Exp,001,2021_May_10_1553,ComputerHuman,2020.1.3,60.00898951768544,
Computer.xlsx,c,Sychronize.jpg,Number8.jpg,8,Computer,,,,,1,0,10,1,0,4,4,5,,,,,,,,,,,,,,,,,,,,,,,,,,,,,1663.1402905148498,None,1663.1402905148498,None,1663.5899899628894,None,1663.5899899628894,None,v,8.582504953596072,1663.5899899628894,None,t,6.2101923025729775,1663.5899899628894,None,8.582504953596072,6.2101923025729775,8.060725719798207,False,False,False,1672.255775348356,None,1672.255775348356,None,1672.255775348356,None,1672.255775348356,None,1672.255775348356,None,1672.255775348356,None,1672.255775348356,None,1672.255775348356,None,1673.253709865592,None,1673.253709865592,None,1674.2367058003838,None,1674.2367058003838,None,c,,,,,,,,,,,,,,,,,,,,,,,,,,,,,,,,,,,,,,,,,,,,,,,35_36Exp,001,2021_May_10_1553,ComputerHuman,2020.1.3,60.00898951768544,
Computer.xlsx,c,Sychronize.jpg,Number6.jpg,6,Computer,,,,,1,0,10,1,0,5,5,0,,,,,,,,,,,,,,,,,,,,,,,,,,,,,1675.286605220772,None,1675.286605220772,None,1675.7366591273385,None,1675.7366591273385,None,v,5.699105770101596,1675.7366591273385,None,t,4.01039221076644,1675.7366591273385,None,5.699105770101596,4.01039221076644,5.767714289963474,False,True,False,1681.5184150026107,None,1681.5184150026107,None,1681.5184150026107,None,1681.5184150026107,None,1681.5184150026107,None,1681.5184150026107,None,1681.5184150026107,None,1681.5184150026107,None,1682.5179803498468,None,1682.5179803498468,None,1683.5012774941933,None,1683.5012774941933,None,c,,,,,,,,,,,,,,,,,,,,,,,,,,,,,,,,,,,,,,,,,,,,,,,35_36Exp,001,2021_May_10_1553,ComputerHuman,2020.1.3,60.00898951768544,
Computer.xlsx,c,Sychronize.jpg,Number7.jpg,7,Computer,,,,,1,0,10,1,0,6,6,2,,,,,,,,,,,,,,,,,,,,,,,,,,,,,1684.5507874913674,None,1684.5507874913674,None,1685.0013017128513,None,1685.0013017128513,None,v,6.109728491184796,1685.0013017128513,None,t,5.429208216635743,1685.0013017128513,None,6.109728491184796,5.429208216635743,7.161372501449708,False,False,False,1691.1842161061468,None,1691.1842161061468,None,1691.1842161061468,None,1691.1842161061468,None,1691.1842161061468,None,1691.1842161061468,None,1691.1842161061468,None,1691.1842161061468,None,1692.1823270507048,None,1692.1823270507048,None,1693.1652944363486,None,1693.1652944363486,None,c,,,,,,,,,,,,,,,,,,,,,,,,,,,,,,,,,,,,,,,,,,,,,,,35_36Exp,001,2021_May_10_1553,ComputerHuman,2020.1.3,60.00898951768544,
Computer.xlsx,c,Sychronize.jpg,Number7.jpg,7,Computer,,,,,1,0,10,1,0,7,7,3,,,,,,,,,,,,,,,,,,,,,,,,,,,,,1694.2156807961437,None,1694.2156807961437,None,1694.665631412532,None,1694.665631412532,None,v,6.352455595650099,1694.665631412532,None,t,4.768325586035644,1694.665631412532,None,6.352455595650099,4.768325586035644,7.260324432702932,False,False,False,1701.0806555141062,None,1701.0806555141062,None,1701.0806555141062,None,1701.0806555141062,None,1701.0806555141062,None,1701.0806555141062,None,1701.0806555141062,None,1701.0806555141062,None,1702.1132952100634,None,1702.1132952100634,None,1703.0963761507483,None,1703.0963761507483,None,c,,,,,,,,,,,,,,,,,,,,,,,,,,,,,,,,,,,,,,,,,,,,,,,35_36Exp,001,2021_May_10_1553,ComputerHuman,2020.1.3,60.00898951768544,
Computer.xlsx,c,Sychronize.jpg,Number6.jpg,6,Computer,,,,,1,0,10,1,0,8,8,1,,,,,,,,,,,,,,,,,,,,,,,,,,,,,1704.146324970785,None,1704.146324970785,None,1704.5801045797016,None,1704.5801045797016,None,v,7.101309379424492,1704.5801045797016,None,t,4.144331021281687,1704.5801045797016,None,7.101309379424492,4.144331021281687,5.586165257875013,False,False,False,1711.7626109447156,None,1711.7626109447156,None,1711.7626109447156,None,1711.7626109447156,None,1711.7626109447156,None,1711.7626109447156,None,1711.7626109447156,None,1711.7626109447156,None,1712.7773060574546,None,1712.7773060574546,None,1713.7604107356347,None,1713.7604107356347,None,c,,,,,,,,,,,,,,,,,,,,,,,,,,,,,,,,,,,,,,,,,,,,,,,35_36Exp,001,2021_May_10_1553,ComputerHuman,2020.1.3,60.00898951768544,
Computer.xlsx,c,Sychronize.jpg,Number8.jpg,8,Computer,,,,,1,0,10,1,0,9,9,4,,,,,,,,,,,,,,,,,,,,,,,,,,,,,1714.8104670159519,None,1714.8104670159519,None,1715.260421160885,None,1715.260421160885,None,v,6.544203223740624,1715.260421160885,None,t,6.035221629605076,1715.260421160885,None,6.544203223740624,6.035221629605076,7.53573267450915,False,False,False,1721.8766532442896,None,1721.8766532442896,None,1721.8766532442896,None,1721.8766532442896,None,1721.8766532442896,None,1721.8766532442896,None,1721.8766532442896,None,1721.8766532442896,None,1722.8748424584228,None,1722.8748424584228,None,1723.8579115303583,None,1723.8579115303583,None,c,,,,,,,,,,,,,,,,,,,,,,,,,,,,,,,,,,,,,,,,,,,,,,,35_36Exp,001,2021_May_10_1553,ComputerHuman,2020.1.3,60.00898951768544,
Computer.xlsx,c,,,,,,,,,1,0,10,1,,,,,,,,,,,,,,,,,,,,,,,,,,,,,,,,,,,,,,,,,,,,,,,,,,,,,,,,,,,,,,,,,,,,,,,,,,,,,,,c,1724.8587240583693,None,1724.8587240583693,None,q,0,1.5215810710833466,1724.8587240583693,None,o,0,2.2445109450709424,1724.8587240583693,None,h,h,1727.1743294398511,None,1727.1743294398511,None,1729.189933313679,None,None,None,None,None,None,None,None,,,,,,,,,,,,,,,,,,35_36Exp,001,2021_May_10_1553,ComputerHuman,2020.1.3,60.00898951768544,
Computer.xlsx,c,Sychronize.jpg,Number10.jpg,10,Computer,,,,,1,1,11,9,0,0,0,9,,,,,,,,,,,,,,,,,,,,,,,,,1734.1917460242112,None,1734.1917460242112,None,1737.271580670109,None,1737.271580670109,None,1737.7048399788146,None,1737.7048399788146,None,v,7.629930862945912,1737.7048399788146,None,t,7.985063021442329,1737.7048399788146,None,7.629930862945912,7.985063021442329,10.269650306957232,False,False,False,1745.8025245787321,None,1745.8025245787321,None,1745.8025245787321,None,1745.8025245787321,None,1745.8025245787321,None,1745.8025245787321,None,1745.8025245787321,None,1745.8025245787321,None,1746.8023468683023,None,1746.8023468683023,None,1747.7853383122201,None,1747.7853383122201,None,c,,,,,,,,,,,,,,,,,,,,,,,,,,,,,,,,,,,,,,,,,,,,,,,35_36Exp,001,2021_May_10_1553,ComputerHuman,2020.1.3,60.00898951768544,
Computer.xlsx,c,Sychronize.jpg,Number8.jpg,8,Computer,,,,,1,1,11,9,0,1,1,4,,,,,,,,,,,,,,,,,,,,,,,,,,,,,1748.8355716614096,None,1748.8355716614096,None,1749.2854090435358,None,1749.2854090435358,None,v,8.124423603923788,1749.2854090435358,None,t,6.760144811545615,1749.2854090435358,None,8.124423603923788,6.760144811545615,7.5701117749574856,False,False,False,1757.484615697991,None,1757.484615697991,None,1757.484615697991,None,1757.484615697991,None,1757.484615697991,None,1757.484615697991,None,1757.484615697991,None,1757.484615697991,None,1758.4826833376574,None,1758.4826833376574,None,1759.4658040546856,None,1759.4658040546856,None,c,,,,,,,,,,,,,,,,,,,,,,,,,,,,,,,,,,,,,,,,,,,,,,,35_36Exp,001,2021_May_10_1553,ComputerHuman,2020.1.3,60.00898951768544,
Computer.xlsx,c,Sychronize.jpg,Number10.jpg,10,Computer,,,,,1,1,11,9,0,2,2,8,,,,,,,,,,,,,,,,,,,,,,,,,,,,,1760.515915187858,None,1760.515915187858,None,1760.9659976435723,None,1760.9659976435723,None,v,7.642967879641219,1760.9659976435723,None,t,6.942190220088378,1760.9659976435723,None,7.642967879641219,6.942190220088378,9.655970780593107,False,False,False,1768.6968843897412,None,1768.6968843897412,None,1768.6968843897412,None,1768.6968843897412,None,1768.6968843897412,None,1768.6968843897412,None,1768.6968843897412,None,1768.6968843897412,None,1769.6966361083869,None,1769.6966361083869,None,1770.6797006894449,None,1770.6797006894449,None,c,,,,,,,,,,,,,,,,,,,,,,,,,,,,,,,,,,,,,,,,,,,,,,,35_36Exp,001,2021_May_10_1553,ComputerHuman,2020.1.3,60.00898951768544,
Computer.xlsx,c,Sychronize.jpg,Number9.jpg,9,Computer,,,,,1,1,11,9,0,3,3,6,,,,,,,,,,,,,,,,,,,,,,,,,,,,,1771.7300283470577,None,1771.7300283470577,None,1772.1631510047846,None,1772.1631510047846,None,v,7.321024266457243,1772.1631510047846,None,t,7.248131554475549,1772.1631510047846,None,7.321024266457243,7.248131554475549,8.36780030457142,False,False,False,1779.5623611236297,None,1779.5623611236297,None,1779.5623611236297,None,1779.5623611236297,None,1779.5623611236297,None,1779.5623611236297,None,1779.5623611236297,None,1779.5623611236297,None,1780.5772855918876,None,1780.5772855918876,None,1781.5603678156804,None,1781.5603678156804,None,c,,,,,,,,,,,,,,,,,,,,,,,,,,,,,,,,,,,,,,,,,,,,,,,35_36Exp,001,2021_May_10_1553,ComputerHuman,2020.1.3,60.00898951768544,
Computer.xlsx,c,Sychronize.jpg,Number6.jpg,6,Computer,,,,,1,1,11,9,0,4,4,1,,,,,,,,,,,,,,,,,,,,,,,,,,,,,1782.5942896570923,None,1782.5942896570923,None,1783.0602005305009,None,1783.0602005305009,None,v,5.287209243764664,1783.0602005305009,None,t,5.734214486223209,1783.0602005305009,None,5.287209243764664,5.734214486223209,5.8035487985692935,False,False,True,1788.8755103160256,None,1788.8755103160256,None,1788.8755103160256,None,1788.8755103160256,None,1788.8755103160256,None,1788.8755103160256,None,1788.8755103160256,None,1788.8755103160256,None,1789.8749463901513,None,1789.8749463901513,None,1790.8580834668028,None,1790.8580834668028,None,c,,,,,,,,,,,,,,,,,,,,,,,,,,,,,,,,,,,,,,,,,,,,,,,35_36Exp,001,2021_May_10_1553,ComputerHuman,2020.1.3,60.00898951768544,
Computer.xlsx,c,Sychronize.jpg,Number7.jpg,7,Computer,,,,,1,1,11,9,0,5,5,3,,,,,,,,,,,,,,,,,,,,,,,,,,,,,1791.9244246304079,None,1791.9244246304079,None,1792.3579761669134,None,1792.3579761669134,None,v,5.79270431326222,1792.3579761669134,None,t,5.94024053780231,1792.3579761669134,None,5.79270431326222,5.94024053780231,6.831511878734595,False,False,False,1798.3895114278384,None,1798.3895114278384,None,1798.3895114278384,None,1798.3895114278384,None,1798.3895114278384,None,1798.3895114278384,None,1798.3895114278384,None,1798.3895114278384,None,1799.3892371635484,None,1799.3892371635484,None,1800.3723864297244,None,1800.3723864297244,None,c,,,,,,,,,,,,,,,,,,,,,,,,,,,,,,,,,,,,,,,,,,,,,,,35_36Exp,001,2021_May_10_1553,ComputerHuman,2020.1.3,60.00898951768544,
Computer.xlsx,c,Sychronize.jpg,Number6.jpg,6,Computer,,,,,1,1,11,9,0,6,6,0,,,,,,,,,,,,,,,,,,,,,,,,,,,,,1801.4225245081616,None,1801.4225245081616,None,1801.8723189061748,None,1801.8723189061748,None,v,4.849669808249018,1801.8723189061748,None,t,6.0212213197337405,1801.8723189061748,None,4.849669808249018,6.0212213197337405,6.270645766951799,False,False,True,1807.971920789907,None,1807.971920789907,None,1807.971920789907,None,1807.971920789907,None,1807.971920789907,None,1807.971920789907,None,1807.971920789907,None,1807.971920789907,None,1808.9701844242918,None,1808.9701844242918,None,1809.9533003296638,None,1809.9533003296638,None,c,,,,,,,,,,,,,,,,,,,,,,,,,,,,,,,,,,,,,,,,,,,,,,,35_36Exp,001,2021_May_10_1553,ComputerHuman,2020.1.3,60.00898951768544,
Computer.xlsx,c,Sychronize.jpg,Number8.jpg,8,Computer,,,,,1,1,11,9,0,7,7,5,,,,,,,,,,,,,,,,,,,,,,,,,,,,,1811.003012737092,None,1811.003012737092,None,1811.4531554988716,None,1811.4531554988716,None,v,6.56399099130067,1811.4531554988716,None,t,6.583191416262707,1811.4531554988716,None,6.56399099130067,6.583191416262707,8.17731616908148,False,False,False,1818.101748843841,None,1818.101748843841,None,1818.101748843841,None,1818.101748843841,None,1818.101748843841,None,1818.101748843841,None,1818.101748843841,None,1818.101748843841,None,1819.1177514434166,None,1819.1177514434166,None,1820.100830138661,None,1820.100830138661,None,c,,,,,,,,,,,,,,,,,,,,,,,,,,,,,,,,,,,,,,,,,,,,,,,35_36Exp,001,2021_May_10_1553,ComputerHuman,2020.1.3,60.00898951768544,
Computer.xlsx,c,Sychronize.jpg,Number7.jpg,7,Computer,,,,,1,1,11,9,0,8,8,2,,,,,,,,,,,,,,,,,,,,,,,,,,,,,1821.16776570195,None,1821.16776570195,None,1821.60102789765,None,1821.60102789765,None,v,5.931371696759015,1821.60102789765,None,t,5.694261717417248,1821.60102789765,None,5.931371696759015,5.694261717417248,7.400392946089011,False,False,False,1827.5989104490218,None,1827.5989104490218,None,1827.5989104490218,None,1827.5989104490218,None,1827.5989104490218,None,1827.5989104490218,None,1827.5989104490218,None,1827.5989104490218,None,1828.61536983497,None,1828.61536983497,None,1829.598491835106,None,1829.598491835106,None,c,,,,,,,,,,,,,,,,,,,,,,,,,,,,,,,,,,,,,,,,,,,,,,,35_36Exp,001,2021_May_10_1553,ComputerHuman,2020.1.3,60.00898951768544,
Computer.xlsx,c,Sychronize.jpg,Number9.jpg,9,Computer,,,,,1,1,11,9,0,9,9,7,,,,,,,,,,,,,,,,,,,,,,,,,,,,,1830.6489763526442,None,1830.6489763526442,None,1831.0984640878996,None,1831.0984640878996,None,v,6.349112779080315,1831.0984640878996,None,t,8.032060693563835,1831.0984640878996,None,6.349112779080315,8.032060693563835,9.442310913885287,False,False,False,1839.197466439513,None,1839.197466439513,None,1839.197466439513,None,1839.197466439513,None,1839.197466439513,None,1839.197466439513,None,1839.197466439513,None,1839.197466439513,None,1840.195779794325,None,1840.195779794325,None,1841.1789470240074,None,1841.1789470240074,None,c,,,,,,,,,,,,,,,,,,,,,,,,,,,,,,,,,,,,,,,,,,,,,,,35_36Exp,001,2021_May_10_1553,ComputerHuman,2020.1.3,60.00898951768544,
Computer.xlsx,c,,,,,,,,,1,1,11,9,,,,,,,,,,,,,,,,,,,,,,,,,,,,,,,,,,,,,,,,,,,,,,,,,,,,,,,,,,,,,,,,,,,,,,,,,,,,,,,c,1842.1796703760228,None,1842.1796703760228,None,a,0,1.187454670209263,1842.1796703760228,None,o,0,1.6545832129086193,1842.1796703760228,None,c,h,1843.9288577678235,None,1843.9288577678235,None,1845.927833847807,None,None,None,None,None,None,None,None,,,,,,,,,,,,,,,,,,35_36Exp,001,2021_May_10_1553,ComputerHuman,2020.1.3,60.00898951768544,
