Condition,CorrectTuringReply,Sychronize,NumberImage,Number,Partner,trials.thisRepN,trials.thisTrialN,trials.thisN,trials.thisIndex,Block.thisRepN,Block.thisTrialN,Block.thisN,Block.thisIndex,trials_loop.thisRepN,trials_loop.thisTrialN,trials_loop.thisN,trials_loop.thisIndex,key_resp_Istr.keys,key_resp_Istr.rt,key_resp_Istr.started,key_resp_Istr.stopped,key_respPrLeft.keys,key_respPrLeft.rt,key_respPrRight.keys,key_respPrRight.rt,RTPrLeft,RTPrRight,CompPr,SychronizedRTsPr,SychronizedRTsLeftCPr,SychronizedRTsRightCPr,CreditLeftPr.started,CreditLeftPr.stopped,CreditRightPr.started,CreditRightPr.stopped,text_StartExp.started,text_StartExp.stopped,key_startExp.keys,key_startExp.rt,key_startExp.started,key_startExp.stopped,SychroLeft.started,SychroLeft.stopped,SychroRight.started,SychroRight.stopped,NumberLeft.started,NumberLeft.stopped,NumberRight.started,NumberRight.stopped,CrossLeft.started,CrossLeft.stopped,CrossRight.started,CrossRight.stopped,key_respLeft.keys,key_respLeft.rt,key_respLeft.started,key_respLeft.stopped,key_respRight.keys,key_respRight.rt,key_respRight.started,key_respRight.stopped,RTLeft,RTRight,Comp,SychronizedRTs,SychronizedRTsLeftC,SychronizedRTsRightC,FeedbackLeftLeft.started,FeedbackLeftLeft.stopped,FeedbackLeftRight.started,FeedbackLeftRight.stopped,FeedbackRightLeft.started,FeedbackRightLeft.stopped,FeedbackRightRight.started,FeedbackRightRight.stopped,textLeftLeft.started,textLeftLeft.stopped,textLeftRight.started,textLeftRight.stopped,textRightLeft.started,textRightLeft.stopped,textRightRight.started,textRightRight.stopped,CreditLeft.started,CreditLeft.stopped,CreditRight.started,CreditRight.stopped,BlankLeft.started,BlankLeft.stopped,BlankRight.started,BlankRight.stopped,CorrectTuringReply,TuringtextLeft.started,TuringtextLeft.stopped,TuringtextRight.started,TuringtextRight.stopped,keyTuringLeft.keys,keyTuringLeft.corr,keyTuringLeft.rt,keyTuringLeft.started,keyTuringLeft.stopped,keyTuringRight.keys,keyTuringRight.corr,keyTuringRight.rt,keyTuringRight.started,keyTuringRight.stopped,RespTuringLeft,RespTuringRight,ScoreLeft.started,ScoreLeft.stopped,ScoreRight.started,ScoreRight.stopped,BlockText.started,BlockText.stopped,text_Pause.started,text_Pause.stopped,text_LongPause.started,text_LongPause.stopped,key_respPause.keys,key_respPause.started,key_respPause.stopped,key_respPause.rt,QuestImageLeft.started,QuestImageLeft.stopped,QuestImageRight.started,QuestImageRight.stopped,respQuestLeft.keys,respQuestLeft.rt,respQuestLeft.started,respQuestLeft.stopped,respQuestRight.keys,respQuestRight.rt,respQuestRight.started,respQuestRight.stopped,RespInclusionLeft,RespInclusionRight,EndText.started,EndText.stopped,participant,session,date,expName,psychopyVersion,frameRate,
,,,,,,,,,,,,,,,,,,"['v', 'v', 'v', 't']","[89.16090781159232, 167.61496565601612, 317.24709608648914, 318.3630251960669]",20.110607099242998,None,,,,,,,,,,,,,,,,,,,,,,,,,,,,,,,,,,,,,,,,,,,,,,,,,,,,,,,,,,,,,,,,,,,,,,,,,,,,,,,,,,,,,,,,,,,,,,,,,,,,,,,,,,,,,,,,,,,,,,37_38Exp,001,2021_May_11_1040,ComputerHuman,2020.1.3,60.01083780258909,
,,,,,,,,,,,,,,,,,,,,,,v,5.108810106783267,t,6.588392172914155,5.108810106783267,6.588392172914155,6,False,False,False,411.7640220425088,None,411.7640220425088,None,412.763794611653,None,"['space', 'space']","[1.4047897130681122, 18.41950439320067]",413.7467988866473,None,,,,,,,,,,,,,,,,,,,,,,,,,,,,,,,,,,,,,,,,,,,,,,,,,,,,,,,,,,,,,,,,,,,,,,,,,,,,,,,,,,,,,,,,,,,,,,,,,,37_38Exp,001,2021_May_11_1040,ComputerHuman,2020.1.3,60.01083780258909,
Human.xlsx,h,Sychronize.jpg,Number6.jpg,6,Human,,,,,0,0,0,2,0,0,0,1,,,,,,,,,,,,,,,,,,,,,,,,,432.2612314434547,None,432.2612314434547,None,435.2921136025144,None,435.2921136025144,None,435.7253000948539,None,435.7253000948539,None,v,4.884273621453076,435.7253000948539,None,t,6.3433439264574645,435.7253000948539,None,4.884273621453076,6.3433439264574645,6.2188045810176975,False,False,False,442.141432480783,None,442.141432480783,None,442.141432480783,None,442.141432480783,None,442.141432480783,None,442.141432480783,None,442.141432480783,None,442.141432480783,None,443.16072144018597,None,443.16072144018597,None,444.15596784660204,None,444.15596784660204,None,h,,,,,,,,,,,,,,,,,,,,,,,,,,,,,,,,,,,,,,,,,,,,,,,37_38Exp,001,2021_May_11_1040,ComputerHuman,2020.1.3,60.01083780258909,
Human.xlsx,h,Sychronize.jpg,Number10.jpg,10,Human,,,,,0,0,0,2,0,1,1,9,,,,,,,,,,,,,,,,,,,,,,,,,,,,,445.2231327654084,None,445.2231327654084,None,445.65621725067865,None,445.65621725067865,None,v,9.168300437122753,445.65621725067865,None,t,9.399094959920603,445.65621725067865,None,9.168300437122753,9.399094959920603,10.626533918008034,True,False,False,455.12175538127383,None,455.12175538127383,None,455.12175538127383,None,455.12175538127383,None,455.12175538127383,None,455.12175538127383,None,455.12175538127383,None,455.12175538127383,None,456.12196741483615,None,456.12196741483615,None,457.1188664640853,None,457.1188664640853,None,h,,,,,,,,,,,,,,,,,,,,,,,,,,,,,,,,,,,,,,,,,,,,,,,37_38Exp,001,2021_May_11_1040,ComputerHuman,2020.1.3,60.01083780258909,
Human.xlsx,h,Sychronize.jpg,Number6.jpg,6,Human,,,,,0,0,0,2,0,2,2,0,,,,,,,,,,,,,,,,,,,,,,,,,,,,,458.1862206412908,None,458.1862206412908,None,458.63633517469987,None,458.63633517469987,None,v,5.219484248408435,458.63633517469987,None,t,5.218475404908759,458.63633517469987,None,5.219484248408435,5.218475404908759,6.072795377857022,True,False,False,463.9678504512209,None,463.9678504512209,None,463.9678504512209,None,463.9678504512209,None,463.9678504512209,None,463.9678504512209,None,463.9678504512209,None,463.9678504512209,None,464.9532127575559,None,464.9532127575559,None,465.9339209111605,None,465.9339209111605,None,h,,,,,,,,,,,,,,,,,,,,,,,,,,,,,,,,,,,,,,,,,,,,,,,37_38Exp,001,2021_May_11_1040,ComputerHuman,2020.1.3,60.01083780258909,
Human.xlsx,h,Sychronize.jpg,Number7.jpg,7,Human,,,,,0,0,0,2,0,3,3,2,,,,,,,,,,,,,,,,,,,,,,,,,,,,,467.00067106537415,None,467.00067106537415,None,467.43385210450526,None,467.43385210450526,None,v,5.929182394093004,467.43385210450526,None,t,6.176358354042122,467.43385210450526,None,5.929182394093004,6.176358354042122,7.223879681658629,True,False,False,473.66602532662307,None,473.66602532662307,None,473.66602532662307,None,473.66602532662307,None,473.66602532662307,None,473.66602532662307,None,473.66602532662307,None,473.66602532662307,None,474.6848119493262,None,474.6848119493262,None,475.6815618372949,None,475.6815618372949,None,h,,,,,,,,,,,,,,,,,,,,,,,,,,,,,,,,,,,,,,,,,,,,,,,37_38Exp,001,2021_May_11_1040,ComputerHuman,2020.1.3,60.01083780258909,
Human.xlsx,h,Sychronize.jpg,Number8.jpg,8,Human,,,,,0,0,0,2,0,4,4,4,,,,,,,,,,,,,,,,,,,,,,,,,,,,,476.7316582147288,None,476.7316582147288,None,477.1814994461787,None,477.1814994461787,None,v,6.628700362574136,477.1814994461787,None,t,7.592240533952463,477.1814994461787,None,6.628700362574136,7.592240533952463,8.093908211506694,False,False,False,484.8625785141677,None,484.8625785141677,None,484.8625785141677,None,484.8625785141677,None,484.8625785141677,None,484.8625785141677,None,484.8625785141677,None,484.8625785141677,None,485.83184102551115,None,485.83184102551115,None,486.82874360330663,None,486.82874360330663,None,h,,,,,,,,,,,,,,,,,,,,,,,,,,,,,,,,,,,,,,,,,,,,,,,37_38Exp,001,2021_May_11_1040,ComputerHuman,2020.1.3,60.01083780258909,
Human.xlsx,h,Sychronize.jpg,Number10.jpg,10,Human,,,,,0,0,0,2,0,5,5,8,,,,,,,,,,,,,,,,,,,,,,,,,,,,,487.89581998767574,None,487.89581998767574,None,488.32903534994045,None,488.32903534994045,None,v,8.500162473523915,488.32903534994045,None,t,8.999123637379626,488.32903534994045,None,8.500162473523915,8.999123637379626,9.693664439763175,False,False,False,497.411228668734,None,497.411228668734,None,497.411228668734,None,497.411228668734,None,497.411228668734,None,497.411228668734,None,497.411228668734,None,497.411228668734,None,498.41193277413356,None,498.41193277413356,None,499.3923060366052,None,499.3923060366052,None,h,,,,,,,,,,,,,,,,,,,,,,,,,,,,,,,,,,,,,,,,,,,,,,,37_38Exp,001,2021_May_11_1040,ComputerHuman,2020.1.3,60.01083780258909,
Human.xlsx,h,Sychronize.jpg,Number7.jpg,7,Human,,,,,0,0,0,2,0,6,6,3,,,,,,,,,,,,,,,,,,,,,,,,,,,,,500.4759049999824,None,500.4759049999824,None,500.89237773025286,None,500.89237773025286,None,v,6.383992460458558,500.89237773025286,None,t,6.755388010191837,500.89237773025286,None,6.383992460458558,6.755388010191837,7.197685175992803,False,False,False,507.72529207543005,None,507.72529207543005,None,507.72529207543005,None,507.72529207543005,None,507.72529207543005,None,507.72529207543005,None,507.72529207543005,None,507.72529207543005,None,508.7257697123049,None,508.7257697123049,None,509.72321151614904,None,509.72321151614904,None,h,,,,,,,,,,,,,,,,,,,,,,,,,,,,,,,,,,,,,,,,,,,,,,,37_38Exp,001,2021_May_11_1040,ComputerHuman,2020.1.3,60.01083780258909,
Human.xlsx,h,Sychronize.jpg,Number9.jpg,9,Human,,,,,0,0,0,2,0,7,7,6,,,,,,,,,,,,,,,,,,,,,,,,,,,,,510.77303362929285,None,510.77303362929285,None,511.2233524976174,None,511.2233524976174,None,v,8.448050333752235,511.2233524976174,None,t,8.563152480359577,511.2233524976174,None,8.448050333752235,8.563152480359577,8.50183462181424,True,False,False,519.8552702529743,None,519.8552702529743,None,519.8552702529743,None,519.8552702529743,None,519.8552702529743,None,519.8552702529743,None,519.8552702529743,None,519.8552702529743,None,520.8386148723099,None,520.8386148723099,None,521.8367758580704,None,521.8367758580704,None,h,,,,,,,,,,,,,,,,,,,,,,,,,,,,,,,,,,,,,,,,,,,,,,,37_38Exp,001,2021_May_11_1040,ComputerHuman,2020.1.3,60.01083780258909,
Human.xlsx,h,Sychronize.jpg,Number9.jpg,9,Human,,,,,0,0,0,2,0,8,8,7,,,,,,,,,,,,,,,,,,,,,,,,,,,,,522.8870576445798,None,522.8870576445798,None,523.3368953474832,None,523.3368953474832,None,v,8.253605292306474,523.3368953474832,None,t,8.333157975268705,523.3368953474832,None,8.253605292306474,8.333157975268705,8.33198925156044,True,False,False,531.767615065097,None,531.767615065097,None,531.767615065097,None,531.767615065097,None,531.767615065097,None,531.767615065097,None,531.767615065097,None,531.767615065097,None,532.7529379158674,None,532.7529379158674,None,533.7337567375188,None,533.7337567375188,None,h,,,,,,,,,,,,,,,,,,,,,,,,,,,,,,,,,,,,,,,,,,,,,,,37_38Exp,001,2021_May_11_1040,ComputerHuman,2020.1.3,60.01083780258909,
Human.xlsx,h,Sychronize.jpg,Number8.jpg,8,Human,,,,,0,0,0,2,0,9,9,5,,,,,,,,,,,,,,,,,,,,,,,,,,,,,534.8008690489061,None,534.8008690489061,None,535.233776786078,None,535.233776786078,None,v,6.843875293470774,535.233776786078,None,t,7.64734680575134,535.233776786078,None,6.843875293470774,7.64734680575134,7.5124009670005005,False,False,False,542.964829694707,None,542.964829694707,None,542.964829694707,None,542.964829694707,None,542.964829694707,None,542.964829694707,None,542.964829694707,None,542.964829694707,None,543.9503735607942,None,543.9503735607942,None,544.9477480014795,None,544.9477480014795,None,h,,,,,,,,,,,,,,,,,,,,,,,,,,,,,,,,,,,,,,,,,,,,,,,37_38Exp,001,2021_May_11_1040,ComputerHuman,2020.1.3,60.01083780258909,
Human.xlsx,h,,,,,,,,,0,0,0,2,,,,,,,,,,,,,,,,,,,,,,,,,,,,,,,,,,,,,,,,,,,,,,,,,,,,,,,,,,,,,,,,,,,,,,,,,,,,,,,h,545.9487456177859,None,545.9487456177859,None,q,0,6.92807763828614,545.9487456177859,None,l,0,15.14263892288227,545.9487456177859,None,h,c,561.2106824497479,None,561.2106824497479,None,563.1766383923174,None,None,None,None,None,None,None,None,,,,,,,,,,,,,,,,,,37_38Exp,001,2021_May_11_1040,ComputerHuman,2020.1.3,60.01083780258909,
Computer.xlsx,c,Sychronize.jpg,Number8.jpg,8,Computer,,,,,0,1,1,9,0,0,0,5,,,,,,,,,,,,,,,,,,,,,,,,,568.1780411499084,None,568.1780411499084,None,571.2414497706606,None,571.2414497706606,None,571.6747045884898,None,571.6747045884898,None,v,7.560063719132813,571.6747045884898,None,t,7.691203750780687,571.6747045884898,None,7.560063719132813,7.691203750780687,7.47873716906638,False,True,True,579.4408601184758,None,579.4408601184758,None,579.4408601184758,None,579.4408601184758,None,579.4408601184758,None,579.4408601184758,None,579.4408601184758,None,579.4408601184758,None,580.4723469420816,None,580.4723469420816,None,581.45544745016,None,581.45544745016,None,c,,,,,,,,,,,,,,,,,,,,,,,,,,,,,,,,,,,,,,,,,,,,,,,37_38Exp,001,2021_May_11_1040,ComputerHuman,2020.1.3,60.01083780258909,
Computer.xlsx,c,Sychronize.jpg,Number6.jpg,6,Computer,,,,,0,1,1,9,0,1,1,1,,,,,,,,,,,,,,,,,,,,,,,,,,,,,582.5056852902277,None,582.5056852902277,None,582.9385060968472,None,582.9385060968472,None,v,5.667529128952765,582.9385060968472,None,t,6.070510943145109,582.9385060968472,None,5.667529128952765,6.070510943145109,5.794443694578558,False,True,True,589.1035073430654,None,589.1035073430654,None,589.1035073430654,None,589.1035073430654,None,589.1035073430654,None,589.1035073430654,None,589.1035073430654,None,589.1035073430654,None,590.0865683955795,None,590.0865683955795,None,591.0863448140473,None,591.0863448140473,None,c,,,,,,,,,,,,,,,,,,,,,,,,,,,,,,,,,,,,,,,,,,,,,,,37_38Exp,001,2021_May_11_1040,ComputerHuman,2020.1.3,60.01083780258909,
Computer.xlsx,c,Sychronize.jpg,Number9.jpg,9,Computer,,,,,0,1,1,9,0,2,2,6,,,,,,,,,,,,,,,,,,,,,,,,,,,,,592.1371145022937,None,592.1371145022937,None,592.5866445801047,None,592.5866445801047,None,v,7.8584404915459345,592.5866445801047,None,t,8.417252539029732,592.5866445801047,None,7.8584404915459345,8.417252539029732,9.257536898137639,False,False,False,601.1005773664277,None,601.1005773664277,None,601.1005773664277,None,601.1005773664277,None,601.1005773664277,None,601.1005773664277,None,601.1005773664277,None,601.1005773664277,None,602.0836159645554,None,602.0836159645554,None,603.0668980323863,None,603.0668980323863,None,c,,,,,,,,,,,,,,,,,,,,,,,,,,,,,,,,,,,,,,,,,,,,,,,37_38Exp,001,2021_May_11_1040,ComputerHuman,2020.1.3,60.01083780258909,
Computer.xlsx,c,Sychronize.jpg,Number8.jpg,8,Computer,,,,,0,1,1,9,0,3,3,4,,,,,,,,,,,,,,,,,,,,,,,,,,,,,604.1331859470187,None,604.1331859470187,None,604.5666614593875,None,604.5666614593875,None,v,7.797677639056019,604.5666614593875,None,t,8.245178481897483,604.5666614593875,None,7.797677639056019,8.245178481897483,7.408469062525809,False,False,False,612.8976519448225,None,612.8976519448225,None,612.8976519448225,None,612.8976519448225,None,612.8976519448225,None,612.8976519448225,None,612.8976519448225,None,612.8976519448225,None,613.8973247523362,None,613.8973247523362,None,614.8805356076847,None,614.8805356076847,None,c,,,,,,,,,,,,,,,,,,,,,,,,,,,,,,,,,,,,,,,,,,,,,,,37_38Exp,001,2021_May_11_1040,ComputerHuman,2020.1.3,60.01083780258909,
Computer.xlsx,c,Sychronize.jpg,Number10.jpg,10,Computer,,,,,0,1,1,9,0,4,4,8,,,,,,,,,,,,,,,,,,,,,,,,,,,,,615.931142020465,None,615.931142020465,None,616.3640548900681,None,616.3640548900681,None,v,9.159094780285386,616.3640548900681,None,t,9.882054165753743,616.3640548900681,None,9.159094780285386,9.882054165753743,10.625681630398573,False,False,False,626.329075126282,None,626.329075126282,None,626.329075126282,None,626.329075126282,None,626.329075126282,None,626.329075126282,None,626.329075126282,None,626.329075126282,None,627.3441086587001,None,627.3441086587001,None,628.3271196700103,None,628.3271196700103,None,c,,,,,,,,,,,,,,,,,,,,,,,,,,,,,,,,,,,,,,,,,,,,,,,37_38Exp,001,2021_May_11_1040,ComputerHuman,2020.1.3,60.01083780258909,
Computer.xlsx,c,Sychronize.jpg,Number10.jpg,10,Computer,,,,,0,1,1,9,0,5,5,9,,,,,,,,,,,,,,,,,,,,,,,,,,,,,629.3774094759436,None,629.3774094759436,None,629.8271243212761,None,629.8271243212761,None,v,9.914905253717052,629.8271243212761,None,t,10.046237430756264,629.8271243212761,None,9.914905253717052,10.046237430756264,10.218778136963609,False,False,True,639.9262103956752,None,639.9262103956752,None,639.9262103956752,None,639.9262103956752,None,639.9262103956752,None,639.9262103956752,None,639.9262103956752,None,639.9262103956752,None,640.9573947266196,None,640.9573947266196,None,641.9406520946253,None,641.9406520946253,None,c,,,,,,,,,,,,,,,,,,,,,,,,,,,,,,,,,,,,,,,,,,,,,,,37_38Exp,001,2021_May_11_1040,ComputerHuman,2020.1.3,60.01083780258909,
Computer.xlsx,c,Sychronize.jpg,Number7.jpg,7,Computer,,,,,0,1,1,9,0,6,6,3,,,,,,,,,,,,,,,,,,,,,,,,,,,,,642.9907160735876,None,642.9907160735876,None,643.4406618783222,None,643.4406618783222,None,v,6.540564330052575,643.4406618783222,None,t,7.596185769628846,643.4406618783222,None,6.540564330052575,7.596185769628846,7.445048936137668,False,False,True,651.1214307550032,None,651.1214307550032,None,651.1214307550032,None,651.1214307550032,None,651.1214307550032,None,651.1214307550032,None,651.1214307550032,None,651.1214307550032,None,652.1046095326568,None,652.1046095326568,None,653.0877520625155,None,653.0877520625155,None,c,,,,,,,,,,,,,,,,,,,,,,,,,,,,,,,,,,,,,,,,,,,,,,,37_38Exp,001,2021_May_11_1040,ComputerHuman,2020.1.3,60.01083780258909,
Computer.xlsx,c,Sychronize.jpg,Number7.jpg,7,Computer,,,,,0,1,1,9,0,7,7,2,,,,,,,,,,,,,,,,,,,,,,,,,,,,,654.1378911032836,None,654.1378911032836,None,654.5879482176189,None,654.5879482176189,None,v,6.764429108455033,654.5879482176189,None,t,7.531252175268719,654.5879482176189,None,6.764429108455033,7.531252175268719,6.488056513984132,False,True,False,662.2021513868311,None,662.2021513868311,None,662.2021513868311,None,662.2021513868311,None,662.2021513868311,None,662.2021513868311,None,662.2021513868311,None,662.2021513868311,None,663.2019236351983,None,663.2019236351983,None,664.1850526924253,None,664.1850526924253,None,c,,,,,,,,,,,,,,,,,,,,,,,,,,,,,,,,,,,,,,,,,,,,,,,37_38Exp,001,2021_May_11_1040,ComputerHuman,2020.1.3,60.01083780258909,
Computer.xlsx,c,Sychronize.jpg,Number6.jpg,6,Computer,,,,,0,1,1,9,0,8,8,0,,,,,,,,,,,,,,,,,,,,,,,,,,,,,665.2352263771035,None,665.2352263771035,None,665.6851866168009,None,665.6851866168009,None,v,6.146337160309258,665.6851866168009,None,t,6.513396126490079,665.6851866168009,None,6.146337160309258,6.513396126490079,6.128783920108033,False,True,False,672.2830051410921,None,672.2830051410921,None,672.2830051410921,None,672.2830051410921,None,672.2830051410921,None,672.2830051410921,None,672.2830051410921,None,672.2830051410921,None,673.2660232094953,None,673.2660232094953,None,674.2658365173119,None,674.2658365173119,None,c,,,,,,,,,,,,,,,,,,,,,,,,,,,,,,,,,,,,,,,,,,,,,,,37_38Exp,001,2021_May_11_1040,ComputerHuman,2020.1.3,60.01083780258909,
Computer.xlsx,c,Sychronize.jpg,Number9.jpg,9,Computer,,,,,0,1,1,9,0,9,9,7,,,,,,,,,,,,,,,,,,,,,,,,,,,,,675.3329879634867,None,675.3329879634867,None,675.7657503887016,None,675.7657503887016,None,v,8.800771532713952,675.7657503887016,None,t,9.72406157505975,675.7657503887016,None,8.800771532713952,9.72406157505975,9.227477981595941,False,False,False,685.5796837203453,None,685.5796837203453,None,685.5796837203453,None,685.5796837203453,None,685.5796837203453,None,685.5796837203453,None,685.5796837203453,None,685.5796837203453,None,686.5628114944647,None,686.5628114944647,None,687.545954665877,None,687.545954665877,None,c,,,,,,,,,,,,,,,,,,,,,,,,,,,,,,,,,,,,,,,,,,,,,,,37_38Exp,001,2021_May_11_1040,ComputerHuman,2020.1.3,60.01083780258909,
Computer.xlsx,c,,,,,,,,,0,1,1,9,,,,,,,,,,,,,,,,,,,,,,,,,,,,,,,,,,,,,,,,,,,,,,,,,,,,,,,,,,,,,,,,,,,,,,,,,,,,,,,c,688.5464778530785,None,688.5464778530785,None,a,0,3.0834940693155204,688.5464778530785,None,o,0,3.850544887761771,688.5464778530785,None,c,h,692.4953572348514,None,692.4953572348514,None,694.4941806250082,None,None,None,None,None,None,None,None,,,,,,,,,,,,,,,,,,37_38Exp,001,2021_May_11_1040,ComputerHuman,2020.1.3,60.01083780258909,
Human.xlsx,h,Sychronize.jpg,Number6.jpg,6,Human,,,,,0,2,2,6,0,0,0,1,,,,,,,,,,,,,,,,,,,,,,,,,699.495908971201,None,699.495908971201,None,702.5592819857119,None,702.5592819857119,None,702.9925063297311,None,702.9925063297311,None,v,5.832118497570491,702.9925063297311,None,t,6.119285078001667,702.9925063297311,None,5.832118497570491,6.119285078001667,5.860334692030778,True,False,False,709.1918262184473,None,709.1918262184473,None,709.1918262184473,None,709.1918262184473,None,709.1918262184473,None,709.1918262184473,None,709.1918262184473,None,709.1918262184473,None,710.2093797745644,None,710.2093797745644,None,711.2067628762273,None,711.2067628762273,None,h,,,,,,,,,,,,,,,,,,,,,,,,,,,,,,,,,,,,,,,,,,,,,,,37_38Exp,001,2021_May_11_1040,ComputerHuman,2020.1.3,60.01083780258909,
Human.xlsx,h,Sychronize.jpg,Number7.jpg,7,Human,,,,,0,2,2,6,0,1,1,2,,,,,,,,,,,,,,,,,,,,,,,,,,,,,712.2565452130297,None,712.2565452130297,None,712.7065526069383,None,712.7065526069383,None,v,5.925334674608621,712.7065526069383,None,t,7.168382876798205,712.7065526069383,None,5.925334674608621,7.168382876798205,6.963285975312976,False,False,False,719.9713065020525,None,719.9713065020525,None,719.9713065020525,None,719.9713065020525,None,719.9713065020525,None,719.9713065020525,None,719.9713065020525,None,719.9713065020525,None,720.9405154436457,None,720.9405154436457,None,721.9374356641734,None,721.9374356641734,None,h,,,,,,,,,,,,,,,,,,,,,,,,,,,,,,,,,,,,,,,,,,,,,,,37_38Exp,001,2021_May_11_1040,ComputerHuman,2020.1.3,60.01083780258909,
Human.xlsx,h,Sychronize.jpg,Number10.jpg,10,Human,,,,,0,2,2,6,0,2,2,8,,,,,,,,,,,,,,,,,,,,,,,,,,,,,723.0043452445299,None,723.0043452445299,None,723.4380052036437,None,723.4380052036437,None,v,10.500662564784989,723.4380052036437,None,t,10.160034656741345,723.4380052036437,None,10.500662564784989,10.160034656741345,9.599875959585665,False,False,False,734.0344315559831,None,734.0344315559831,None,734.0344315559831,None,734.0344315559831,None,734.0344315559831,None,734.0344315559831,None,734.0344315559831,None,734.0344315559831,None,735.0030541173165,None,735.0030541173165,None,736.0006511772034,None,736.0006511772034,None,h,,,,,,,,,,,,,,,,,,,,,,,,,,,,,,,,,,,,,,,,,,,,,,,37_38Exp,001,2021_May_11_1040,ComputerHuman,2020.1.3,60.01083780258909,
Human.xlsx,h,Sychronize.jpg,Number10.jpg,10,Human,,,,,0,2,2,6,0,3,3,9,,,,,,,,,,,,,,,,,,,,,,,,,,,,,737.050656774761,None,737.050656774761,None,737.5005230268129,None,737.5005230268129,None,v,8.849162659895228,737.5005230268129,None,t,9.856061930480564,737.5005230268129,None,8.849162659895228,9.856061930480564,10.09544706628694,False,False,False,747.447790183648,None,747.447790183648,None,747.447790183648,None,747.447790183648,None,747.447790183648,None,747.447790183648,None,747.447790183648,None,747.447790183648,None,748.4334273958269,None,748.4334273958269,None,749.4139719531885,None,749.4139719531885,None,h,,,,,,,,,,,,,,,,,,,,,,,,,,,,,,,,,,,,,,,,,,,,,,,37_38Exp,001,2021_May_11_1040,ComputerHuman,2020.1.3,60.01083780258909,
Human.xlsx,h,Sychronize.jpg,Number8.jpg,8,Human,,,,,0,2,2,6,0,4,4,5,,,,,,,,,,,,,,,,,,,,,,,,,,,,,750.4645437220585,None,750.4645437220585,None,750.9139089205183,None,750.9139089205183,None,v,7.91073515340031,750.9139089205183,None,t,7.898155243852898,750.9139089205183,None,7.91073515340031,7.898155243852898,8.399686340688765,True,False,False,758.9116015719354,None,758.9116015719354,None,758.9116015719354,None,758.9116015719354,None,758.9116015719354,None,758.9116015719354,None,758.9116015719354,None,758.9116015719354,None,759.8970774333096,None,759.8970774333096,None,760.8944804231434,None,760.8944804231434,None,h,,,,,,,,,,,,,,,,,,,,,,,,,,,,,,,,,,,,,,,,,,,,,,,37_38Exp,001,2021_May_11_1040,ComputerHuman,2020.1.3,60.01083780258909,
Human.xlsx,h,Sychronize.jpg,Number7.jpg,7,Human,,,,,0,2,2,6,0,5,5,3,,,,,,,,,,,,,,,,,,,,,,,,,,,,,761.9446175392494,None,761.9446175392494,None,762.3946528407527,None,762.3946528407527,None,v,6.589417055261265,762.3946528407527,None,t,6.5683817861565785,762.3946528407527,None,6.589417055261265,6.5683817861565785,7.4828255943140976,True,False,False,769.0757880447073,None,769.0757880447073,None,769.0757880447073,None,769.0757880447073,None,769.0757880447073,None,769.0757880447073,None,769.0757880447073,None,769.0757880447073,None,770.0446252058185,None,770.0446252058185,None,771.0419582662777,None,771.0419582662777,None,h,,,,,,,,,,,,,,,,,,,,,,,,,,,,,,,,,,,,,,,,,,,,,,,37_38Exp,001,2021_May_11_1040,ComputerHuman,2020.1.3,60.01083780258909,
Human.xlsx,h,Sychronize.jpg,Number9.jpg,9,Human,,,,,0,2,2,6,0,6,6,7,,,,,,,,,,,,,,,,,,,,,,,,,,,,,772.1088486000173,None,772.1088486000173,None,772.5586128449996,None,772.5586128449996,None,v,8.340405609618983,772.5586128449996,None,t,8.399163926964093,772.5586128449996,None,8.340405609618983,8.399163926964093,9.622627812783247,True,False,False,781.0561767044725,None,781.0561767044725,None,781.0561767044725,None,781.0561767044725,None,781.0561767044725,None,781.0561767044725,None,781.0561767044725,None,781.0561767044725,None,782.0417205705595,None,782.0417205705595,None,783.0223331326339,None,783.0223331326339,None,h,,,,,,,,,,,,,,,,,,,,,,,,,,,,,,,,,,,,,,,,,,,,,,,37_38Exp,001,2021_May_11_1040,ComputerHuman,2020.1.3,60.01083780258909,
Human.xlsx,h,Sychronize.jpg,Number8.jpg,8,Human,,,,,0,2,2,6,0,7,7,4,,,,,,,,,,,,,,,,,,,,,,,,,,,,,784.0891160060961,None,784.0891160060961,None,784.5221966420428,None,784.5221966420428,None,v,7.875917381972613,784.5221966420428,None,t,9.923105595600873,784.5221966420428,None,7.875917381972613,9.923105595600873,8.57707158637387,False,False,False,794.5199069361921,None,794.5199069361921,None,794.5199069361921,None,794.5199069361921,None,794.5199069361921,None,794.5199069361921,None,794.5199069361921,None,794.5199069361921,None,795.5217032870977,None,795.5217032870977,None,796.5189600026432,None,796.5189600026432,None,h,,,,,,,,,,,,,,,,,,,,,,,,,,,,,,,,,,,,,,,,,,,,,,,37_38Exp,001,2021_May_11_1040,ComputerHuman,2020.1.3,60.01083780258909,
Human.xlsx,h,Sychronize.jpg,Number9.jpg,9,Human,,,,,0,2,2,6,0,8,8,6,,,,,,,,,,,,,,,,,,,,,,,,,,,,,797.5856870609165,None,797.5856870609165,None,798.0187417139306,None,798.0187417139306,None,v,9.018225904598921,798.0187417139306,None,t,9.281072780760951,798.0187417139306,None,9.018225904598921,9.281072780760951,9.247455665719837,True,False,False,807.3830641319729,None,807.3830641319729,None,807.3830641319729,None,807.3830641319729,None,807.3830641319729,None,807.3830641319729,None,807.3830641319729,None,807.3830641319729,None,808.368143833817,None,808.368143833817,None,809.365910584709,None,809.365910584709,None,h,,,,,,,,,,,,,,,,,,,,,,,,,,,,,,,,,,,,,,,,,,,,,,,37_38Exp,001,2021_May_11_1040,ComputerHuman,2020.1.3,60.01083780258909,
Human.xlsx,h,Sychronize.jpg,Number6.jpg,6,Human,,,,,0,2,2,6,0,9,9,0,,,,,,,,,,,,,,,,,,,,,,,,,,,,,810.4166485160378,None,810.4166485160378,None,810.8658308716375,None,810.8658308716375,None,v,6.038551935872874,810.8658308716375,None,t,5.77740229053984,810.8658308716375,None,6.038551935872874,5.77740229053984,6.349997657900398,True,False,False,816.981957259038,None,816.981957259038,None,816.981957259038,None,816.981957259038,None,816.981957259038,None,816.981957259038,None,816.981957259038,None,816.981957259038,None,817.9829648194299,None,817.9829648194299,None,818.9635395298245,None,818.9635395298245,None,h,,,,,,,,,,,,,,,,,,,,,,,,,,,,,,,,,,,,,,,,,,,,,,,37_38Exp,001,2021_May_11_1040,ComputerHuman,2020.1.3,60.01083780258909,
Human.xlsx,h,,,,,,,,,0,2,2,6,,,,,,,,,,,,,,,,,,,,,,,,,,,,,,,,,,,,,,,,,,,,,,,,,,,,,,,,,,,,,,,,,,,,,,,,,,,,,,,h,819.9642718635954,None,819.9642718635954,None,q,1,2.63545945363353,819.9642718635954,None,o,0,1.8786702897355099,819.9642718635954,None,h,h,822.6962874238435,None,822.6962874238435,None,824.6953754549821,None,None,None,None,None,None,None,None,,,,,,,,,,,,,,,,,,37_38Exp,001,2021_May_11_1040,ComputerHuman,2020.1.3,60.01083780258909,
Human.xlsx,h,Sychronize.jpg,Number6.jpg,6,Human,,,,,0,3,3,4,0,0,0,0,,,,,,,,,,,,,,,,,,,,,,,,,829.697688256773,None,829.697688256773,None,832.7604177927275,None,832.7604177927275,None,833.1935070896517,None,833.1935070896517,None,v,6.268950299140442,833.1935070896517,None,t,5.904732454383293,833.1935070896517,None,6.268950299140442,5.904732454383293,5.977575733419457,False,False,False,839.5435058546606,None,839.5435058546606,None,839.5435058546606,None,839.5435058546606,None,839.5435058546606,None,839.5435058546606,None,839.5435058546606,None,839.5435058546606,None,840.5598487985782,None,840.5598487985782,None,841.5578856436599,None,841.5578856436599,None,h,,,,,,,,,,,,,,,,,,,,,,,,,,,,,,,,,,,,,,,,,,,,,,,37_38Exp,001,2021_May_11_1040,ComputerHuman,2020.1.3,60.01083780258909,
Human.xlsx,h,Sychronize.jpg,Number10.jpg,10,Human,,,,,0,3,3,4,0,1,1,9,,,,,,,,,,,,,,,,,,,,,,,,,,,,,842.6085696844613,None,842.6085696844613,None,843.0580962337259,None,843.0580962337259,None,v,10.011266969501548,843.0580962337259,None,t,10.018051401939601,843.0580962337259,None,10.011266969501548,10.018051401939601,10.188025400620074,True,False,False,853.1716390835917,None,853.1716390835917,None,853.1716390835917,None,853.1716390835917,None,853.1716390835917,None,853.1716390835917,None,853.1716390835917,None,853.1716390835917,None,854.1411110622818,None,854.1411110622818,None,855.1375254175633,None,855.1375254175633,None,h,,,,,,,,,,,,,,,,,,,,,,,,,,,,,,,,,,,,,,,,,,,,,,,37_38Exp,001,2021_May_11_1040,ComputerHuman,2020.1.3,60.01083780258909,
Human.xlsx,h,Sychronize.jpg,Number9.jpg,9,Human,,,,,0,3,3,4,0,2,2,6,,,,,,,,,,,,,,,,,,,,,,,,,,,,,856.2221017882995,None,856.2221017882995,None,856.6379005662035,None,856.6379005662035,None,v,8.954678387428658,856.6379005662035,None,t,8.454441814429856,856.6379005662035,None,8.954678387428658,8.454441814429856,8.555122849203999,False,False,False,865.6853335326429,None,865.6853335326429,None,865.6853335326429,None,865.6853335326429,None,865.6853335326429,None,865.6853335326429,None,865.6853335326429,None,865.6853335326429,None,866.6711436435963,None,866.6711436435963,None,867.6514238807532,None,867.6514238807532,None,h,,,,,,,,,,,,,,,,,,,,,,,,,,,,,,,,,,,,,,,,,,,,,,,37_38Exp,001,2021_May_11_1040,ComputerHuman,2020.1.3,60.01083780258909,
Human.xlsx,h,Sychronize.jpg,Number6.jpg,6,Human,,,,,0,3,3,4,0,3,3,1,,,,,,,,,,,,,,,,,,,,,,,,,,,,,868.7183321780018,None,868.7183321780018,None,869.151257237129,None,869.151257237129,None,v,5.7964057584592865,869.151257237129,None,t,5.8075360769812505,869.151257237129,None,5.7964057584592865,5.8075360769812505,5.970384309060162,True,False,False,875.0496501767001,None,875.0496501767001,None,875.0496501767001,None,875.0496501767001,None,875.0496501767001,None,875.0496501767001,None,875.0496501767001,None,875.0496501767001,None,876.0354432864752,None,876.0354432864752,None,877.032522612369,None,877.032522612369,None,h,,,,,,,,,,,,,,,,,,,,,,,,,,,,,,,,,,,,,,,,,,,,,,,37_38Exp,001,2021_May_11_1040,ComputerHuman,2020.1.3,60.01083780258909,
Human.xlsx,h,Sychronize.jpg,Number9.jpg,9,Human,,,,,0,3,3,4,0,4,4,7,,,,,,,,,,,,,,,,,,,,,,,,,,,,,878.0827354318347,None,878.0827354318347,None,878.5319036732488,None,878.5319036732488,None,v,8.414913754305871,878.5319036732488,None,t,8.454686567240742,878.5319036732488,None,8.414913754305871,8.454686567240742,9.43183694249937,True,False,False,887.0798827624413,None,887.0798827624413,None,887.0798827624413,None,887.0798827624413,None,887.0798827624413,None,887.0798827624413,None,887.0798827624413,None,887.0798827624413,None,888.0481790936191,None,888.0481790936191,None,889.0463291729633,None,889.0463291729633,None,h,,,,,,,,,,,,,,,,,,,,,,,,,,,,,,,,,,,,,,,,,,,,,,,37_38Exp,001,2021_May_11_1040,ComputerHuman,2020.1.3,60.01083780258909,
Human.xlsx,h,Sychronize.jpg,Number8.jpg,8,Human,,,,,0,3,3,4,0,5,5,4,,,,,,,,,,,,,,,,,,,,,,,,,,,,,890.1126568639371,None,890.1126568639371,None,890.5626321801509,None,890.5626321801509,None,v,7.403196413970136,890.5626321801509,None,t,7.634219329954703,890.5626321801509,None,7.403196413970136,7.634219329954703,8.461565148405388,True,False,False,898.2939462012151,None,898.2939462012151,None,898.2939462012151,None,898.2939462012151,None,898.2939462012151,None,898.2939462012151,None,898.2939462012151,None,898.2939462012151,None,899.2794730661241,None,899.2794730661241,None,900.2600740802283,None,900.2600740802283,None,h,,,,,,,,,,,,,,,,,,,,,,,,,,,,,,,,,,,,,,,,,,,,,,,37_38Exp,001,2021_May_11_1040,ComputerHuman,2020.1.3,60.01083780258909,
Human.xlsx,h,Sychronize.jpg,Number7.jpg,7,Human,,,,,0,3,3,4,0,6,6,2,,,,,,,,,,,,,,,,,,,,,,,,,,,,,901.3269002585783,None,901.3269002585783,None,901.7598888315412,None,901.7598888315412,None,v,6.317191302710626,901.7598888315412,None,t,6.724314668071202,901.7598888315412,None,6.317191302710626,6.724314668071202,7.441051535922456,False,False,False,908.5746786376347,None,908.5746786376347,None,908.5746786376347,None,908.5746786376347,None,908.5746786376347,None,908.5746786376347,None,908.5746786376347,None,908.5746786376347,None,909.5597313942154,None,909.5597313942154,None,910.5575712822514,None,910.5575712822514,None,h,,,,,,,,,,,,,,,,,,,,,,,,,,,,,,,,,,,,,,,,,,,,,,,37_38Exp,001,2021_May_11_1040,ComputerHuman,2020.1.3,60.01083780258909,
Human.xlsx,h,Sychronize.jpg,Number10.jpg,10,Human,,,,,0,3,3,4,0,7,7,8,,,,,,,,,,,,,,,,,,,,,,,,,,,,,911.6077975743489,None,911.6077975743489,None,912.0578482731454,None,912.0578482731454,None,v,8.36624707972669,912.0578482731454,None,t,9.5090932245173,912.0578482731454,None,8.36624707972669,9.5090932245173,9.693703096552609,False,False,False,921.639165389707,None,921.639165389707,None,921.639165389707,None,921.639165389707,None,921.639165389707,None,921.639165389707,None,921.639165389707,None,921.639165389707,None,922.623728640666,None,922.623728640666,None,923.6376147539432,None,923.6376147539432,None,h,,,,,,,,,,,,,,,,,,,,,,,,,,,,,,,,,,,,,,,,,,,,,,,37_38Exp,001,2021_May_11_1040,ComputerHuman,2020.1.3,60.01083780258909,
Human.xlsx,h,Sychronize.jpg,Number7.jpg,7,Human,,,,,0,3,3,4,0,8,8,3,,,,,,,,,,,,,,,,,,,,,,,,,,,,,924.6875738388436,None,924.6875738388436,None,925.1378750644361,None,925.1378750644361,None,v,7.04532129179438,925.1378750644361,None,t,6.808303696216626,925.1378750644361,None,7.04532129179438,6.808303696216626,6.999275326713609,True,False,False,932.2688184598152,None,932.2688184598152,None,932.2688184598152,None,932.2688184598152,None,932.2688184598152,None,932.2688184598152,None,932.2688184598152,None,932.2688184598152,None,933.2531090503688,None,933.2531090503688,None,934.2350983871014,None,934.2350983871014,None,h,,,,,,,,,,,,,,,,,,,,,,,,,,,,,,,,,,,,,,,,,,,,,,,37_38Exp,001,2021_May_11_1040,ComputerHuman,2020.1.3,60.01083780258909,
Human.xlsx,h,Sychronize.jpg,Number8.jpg,8,Human,,,,,0,3,3,4,0,9,9,5,,,,,,,,,,,,,,,,,,,,,,,,,,,,,935.2847986050052,None,935.2847986050052,None,935.7351335121772,None,935.7351335121772,None,v,8.391176580973251,935.7351335121772,None,t,7.470546421075596,935.7351335121772,None,8.391176580973251,7.470546421075596,7.544435349531686,False,False,False,944.2158399015087,None,944.2158399015087,None,944.2158399015087,None,944.2158399015087,None,944.2158399015087,None,944.2158399015087,None,944.2158399015087,None,944.2158399015087,None,945.201761001286,None,945.201761001286,None,946.1987681523666,None,946.1987681523666,None,h,,,,,,,,,,,,,,,,,,,,,,,,,,,,,,,,,,,,,,,,,,,,,,,37_38Exp,001,2021_May_11_1040,ComputerHuman,2020.1.3,60.01083780258909,
Human.xlsx,h,,,,,,,,,0,3,3,4,,,,,,,,,,,,,,,,,,,,,,,,,,,,,,,,,,,,,,,,,,,,,,,,,,,,,,,,,,,,,,,,,,,,,,,,,,,,,,,h,947.1989275785094,None,947.1989275785094,None,q,1,3.27882541746726,947.1989275785094,None,l,0,1.814782749000642,947.1989275785094,None,h,c,950.5647262120636,None,950.5647262120636,None,952.5471848454705,None,None,None,None,None,None,None,None,,,,,,,,,,,,,,,,,,37_38Exp,001,2021_May_11_1040,ComputerHuman,2020.1.3,60.01083780258909,
Computer.xlsx,c,Sychronize.jpg,Number7.jpg,7,Computer,,,,,0,4,4,3,0,0,0,2,,,,,,,,,,,,,,,,,,,,,,,,,957.5656118772157,None,957.5656118772157,None,960.645852947507,None,960.645852947507,None,961.0790705552105,None,961.0790705552105,None,v,5.937585787784883,961.0790705552105,None,t,6.760307766234291,961.0790705552105,None,5.937585787784883,6.760307766234291,7.0645245998690305,False,False,False,967.9267104869363,None,967.9267104869363,None,967.9267104869363,None,967.9267104869363,None,967.9267104869363,None,967.9267104869363,None,967.9267104869363,None,967.9267104869363,None,968.9264339772075,None,968.9264339772075,None,969.909566242204,None,969.909566242204,None,c,,,,,,,,,,,,,,,,,,,,,,,,,,,,,,,,,,,,,,,,,,,,,,,37_38Exp,001,2021_May_11_1040,ComputerHuman,2020.1.3,60.01083780258909,
Computer.xlsx,c,Sychronize.jpg,Number10.jpg,10,Computer,,,,,0,4,4,3,0,1,1,8,,,,,,,,,,,,,,,,,,,,,,,,,,,,,970.9591038261955,None,970.9591038261955,None,971.4095336833437,None,971.4095336833437,None,v,8.677921660495258,971.4095336833437,None,t,9.417053978099148,971.4095336833437,None,8.677921660495258,9.417053978099148,9.294908733552996,False,False,True,980.9085394351952,None,980.9085394351952,None,980.9085394351952,None,980.9085394351952,None,980.9085394351952,None,980.9085394351952,None,980.9085394351952,None,980.9085394351952,None,981.9233256485869,None,981.9233256485869,None,982.889704054396,None,982.889704054396,None,c,,,,,,,,,,,,,,,,,,,,,,,,,,,,,,,,,,,,,,,,,,,,,,,37_38Exp,001,2021_May_11_1040,ComputerHuman,2020.1.3,60.01083780258909,
Computer.xlsx,c,Sychronize.jpg,Number6.jpg,6,Computer,,,,,0,4,4,3,0,2,2,1,,,,,,,,,,,,,,,,,,,,,,,,,,,,,983.9406209792616,None,983.9406209792616,None,984.3895213719246,None,984.3895213719246,None,v,6.109117411099078,984.3895213719246,None,t,5.456443462581774,984.3895213719246,None,6.109117411099078,5.456443462581774,6.435817366006136,False,False,False,990.6044720797348,None,990.6044720797348,None,990.6044720797348,None,990.6044720797348,None,990.6044720797348,None,990.6044720797348,None,990.6044720797348,None,990.6044720797348,None,991.5875697008211,None,991.5875697008211,None,992.5706737374461,None,992.5706737374461,None,c,,,,,,,,,,,,,,,,,,,,,,,,,,,,,,,,,,,,,,,,,,,,,,,37_38Exp,001,2021_May_11_1040,ComputerHuman,2020.1.3,60.01083780258909,
Computer.xlsx,c,Sychronize.jpg,Number8.jpg,8,Computer,,,,,0,4,4,3,0,3,3,5,,,,,,,,,,,,,,,,,,,,,,,,,,,,,993.6220121632203,None,993.6220121632203,None,994.0705224911154,None,994.0705224911154,None,v,6.887274810573217,994.0705224911154,None,t,7.770362840428561,994.0705224911154,None,6.887274810573217,7.770362840428561,7.879271935757459,False,False,True,1001.9349207729057,None,1001.9349207729057,None,1001.9349207729057,None,1001.9349207729057,None,1001.9349207729057,None,1001.9349207729057,None,1001.9349207729057,None,1001.9349207729057,None,1002.9181415723396,None,1002.9181415723396,None,1003.9011705471588,None,1003.9011705471588,None,c,,,,,,,,,,,,,,,,,,,,,,,,,,,,,,,,,,,,,,,,,,,,,,,37_38Exp,001,2021_May_11_1040,ComputerHuman,2020.1.3,60.01083780258909,
Computer.xlsx,c,Sychronize.jpg,Number10.jpg,10,Computer,,,,,0,4,4,3,0,4,4,9,,,,,,,,,,,,,,,,,,,,,,,,,,,,,1004.9507382841833,None,1004.9507382841833,None,1005.4014186681278,None,1005.4014186681278,None,v,6.87951649932279,1005.4014186681278,None,t,9.906143552174854,1005.4014186681278,None,6.87951649932279,9.906143552174854,10.715781478406646,False,False,False,1015.398372891012,None,1015.398372891012,None,1015.398372891012,None,1015.398372891012,None,1015.398372891012,None,1015.398372891012,None,1015.398372891012,None,1015.398372891012,None,1016.3980995890528,None,1016.3980995890528,None,1017.364629401581,None,1017.364629401581,None,c,,,,,,,,,,,,,,,,,,,,,,,,,,,,,,,,,,,,,,,,,,,,,,,37_38Exp,001,2021_May_11_1040,ComputerHuman,2020.1.3,60.01083780258909,
Computer.xlsx,c,Sychronize.jpg,Number7.jpg,7,Computer,,,,,0,4,4,3,0,5,5,3,,,,,,,,,,,,,,,,,,,,,,,,,,,,,1018.4313500443153,None,1018.4313500443153,None,1018.8642866514127,None,1018.8642866514127,None,v,6.599634121813779,1018.8642866514127,None,t,7.595201625954132,1018.8642866514127,None,6.599634121813779,7.595201625954132,6.6868601085099595,False,True,False,1026.5455902632648,None,1026.5455902632648,None,1026.5455902632648,None,1026.5455902632648,None,1026.5455902632648,None,1026.5455902632648,None,1026.5455902632648,None,1026.5455902632648,None,1027.5453589830859,None,1027.5453589830859,None,1028.5284594911645,None,1028.5284594911645,None,c,,,,,,,,,,,,,,,,,,,,,,,,,,,,,,,,,,,,,,,,,,,,,,,37_38Exp,001,2021_May_11_1040,ComputerHuman,2020.1.3,60.01083780258909,
Computer.xlsx,c,Sychronize.jpg,Number6.jpg,6,Computer,,,,,0,4,4,3,0,6,6,0,,,,,,,,,,,,,,,,,,,,,,,,,,,,,1029.578935668504,None,1029.578935668504,None,1030.0287146692262,None,1030.0287146692262,None,v,6.086348021816775,1030.0287146692262,None,t,6.185333051477301,1030.0287146692262,None,6.086348021816775,6.185333051477301,5.889905129337506,False,True,True,1036.295076939955,None,1036.295076939955,None,1036.295076939955,None,1036.295076939955,None,1036.295076939955,None,1036.295076939955,None,1036.295076939955,None,1036.295076939955,None,1037.2928526726014,None,1037.2928526726014,None,1038.2760301671474,None,1038.2760301671474,None,c,,,,,,,,,,,,,,,,,,,,,,,,,,,,,,,,,,,,,,,,,,,,,,,37_38Exp,001,2021_May_11_1040,ComputerHuman,2020.1.3,60.01083780258909,
Computer.xlsx,c,Sychronize.jpg,Number9.jpg,9,Computer,,,,,0,4,4,3,0,7,7,6,,,,,,,,,,,,,,,,,,,,,,,,,,,,,1039.3427931524388,None,1039.3427931524388,None,1039.7760550273606,None,1039.7760550273606,None,v,8.638064483223616,1039.7760550273606,None,t,9.10509839672477,1039.7760550273606,None,8.638064483223616,9.10509839672477,8.421878306755975,False,True,False,1048.9733097540893,None,1048.9733097540893,None,1048.9733097540893,None,1048.9733097540893,None,1048.9733097540893,None,1048.9733097540893,None,1048.9733097540893,None,1048.9733097540893,None,1049.973171178448,None,1049.973171178448,None,1050.9396143812005,None,1050.9396143812005,None,c,,,,,,,,,,,,,,,,,,,,,,,,,,,,,,,,,,,,,,,,,,,,,,,37_38Exp,001,2021_May_11_1040,ComputerHuman,2020.1.3,60.01083780258909,
Computer.xlsx,c,Sychronize.jpg,Number8.jpg,8,Computer,,,,,0,4,4,3,0,8,8,4,,,,,,,,,,,,,,,,,,,,,,,,,,,,,1052.005907428264,None,1052.005907428264,None,1052.439795459787,None,1052.439795459787,None,v,8.033357273986212,1052.439795459787,None,t,8.372227003580747,1052.439795459787,None,8.033357273986212,8.372227003580747,7.928831140784149,False,True,False,1060.9037669157715,None,1060.9037669157715,None,1060.9037669157715,None,1060.9037669157715,None,1060.9037669157715,None,1060.9037669157715,None,1060.9037669157715,None,1060.9037669157715,None,1061.9035587315325,None,1061.9035587315325,None,1062.8866383891095,None,1062.8866383891095,None,c,,,,,,,,,,,,,,,,,,,,,,,,,,,,,,,,,,,,,,,,,,,,,,,37_38Exp,001,2021_May_11_1040,ComputerHuman,2020.1.3,60.01083780258909,
Computer.xlsx,c,Sychronize.jpg,Number9.jpg,9,Computer,,,,,0,4,4,3,0,9,9,7,,,,,,,,,,,,,,,,,,,,,,,,,,,,,1063.936286641148,None,1063.936286641148,None,1064.3866231522047,None,1064.3866231522047,None,v,9.221519257362843,1064.3866231522047,None,t,9.241093066695157,1064.3866231522047,None,9.221519257362843,9.241093066695157,9.32765661526309,False,True,True,1073.733963959427,None,1073.733963959427,None,1073.733963959427,None,1073.733963959427,None,1073.733963959427,None,1073.733963959427,None,1073.733963959427,None,1073.733963959427,None,1074.7170683168288,None,1074.7170683168288,None,1075.7001341809973,None,1075.7001341809973,None,c,,,,,,,,,,,,,,,,,,,,,,,,,,,,,,,,,,,,,,,,,,,,,,,37_38Exp,001,2021_May_11_1040,ComputerHuman,2020.1.3,60.01083780258909,
Computer.xlsx,c,,,,,,,,,0,4,4,3,,,,,,,,,,,,,,,,,,,,,,,,,,,,,,,,,,,,,,,,,,,,,,,,,,,,,,,,,,,,,,,,,,,,,,,,,,,,,,,c,1076.7009495959974,None,1076.7009495959974,None,a,0,2.390834311970366,1076.7009495959974,None,o,0,3.401552111337878,1076.7009495959974,None,c,h,1080.199313793954,None,1080.199313793954,None,None,None,1082.1985378345184,None,1082.1985378345184,None,"['space', 'space']",1083.181612359664,None,"[5.5773465395063795, 9.781022258391658]",,,,,,,,,,,,,,,,,37_38Exp,001,2021_May_11_1040,ComputerHuman,2020.1.3,60.01083780258909,
Computer.xlsx,c,Sychronize.jpg,Number6.jpg,6,Computer,,,,,0,5,5,1,0,0,0,0,,,,,,,,,,,,,,,,,,,,,,,,,1093.016047508349,None,1093.016047508349,None,1096.0783808847732,None,1096.0783808847732,None,1096.5285916512667,None,1096.5285916512667,None,v,6.941225323030494,1096.5285916512667,None,t,6.6562640841129905,1096.5285916512667,None,6.941225323030494,6.6562640841129905,5.67124452254463,False,False,False,1103.544528491569,None,1103.544528491569,None,1103.544528491569,None,1103.544528491569,None,1103.544528491569,None,1103.544528491569,None,1103.544528491569,None,1103.544528491569,None,1104.5597499992782,None,1104.5597499992782,None,1105.5427975791604,None,1105.5427975791604,None,c,,,,,,,,,,,,,,,,,,,,,,,,,,,,,,,,,,,,,,,,,,,,,,,37_38Exp,001,2021_May_11_1040,ComputerHuman,2020.1.3,60.01083780258909,
Computer.xlsx,c,Sychronize.jpg,Number9.jpg,9,Computer,,,,,0,5,5,1,0,1,1,6,,,,,,,,,,,,,,,,,,,,,,,,,,,,,1106.609701064755,None,1106.609701064755,None,1107.0597164780875,None,1107.0597164780875,None,v,8.86911370291773,1107.0597164780875,None,t,9.57609839640395,1107.0597164780875,None,8.86911370291773,9.57609839640395,9.558964410537799,False,False,True,1116.7232817663007,None,1116.7232817663007,None,1116.7232817663007,None,1116.7232817663007,None,1116.7232817663007,None,1116.7232817663007,None,1116.7232817663007,None,1116.7232817663007,None,1117.7230992442173,None,1117.7230992442173,None,1118.6896197542142,None,1118.6896197542142,None,c,,,,,,,,,,,,,,,,,,,,,,,,,,,,,,,,,,,,,,,,,,,,,,,37_38Exp,001,2021_May_11_1040,ComputerHuman,2020.1.3,60.01083780258909,
Computer.xlsx,c,Sychronize.jpg,Number8.jpg,8,Computer,,,,,0,5,5,1,0,2,2,4,,,,,,,,,,,,,,,,,,,,,,,,,,,,,1119.7224650681924,None,1119.7224650681924,None,1120.1897934549315,None,1120.1897934549315,None,v,8.054100636068597,1120.1897934549315,None,t,8.793156929535826,1120.1897934549315,None,8.054100636068597,8.793156929535826,8.1704438725886,False,True,False,1129.070304362791,None,1129.070304362791,None,1129.070304362791,None,1129.070304362791,None,1129.070304362791,None,1129.070304362791,None,1129.070304362791,None,1129.070304362791,None,1130.0700586476491,None,1130.0700586476491,None,1131.053109756078,None,1131.053109756078,None,c,,,,,,,,,,,,,,,,,,,,,,,,,,,,,,,,,,,,,,,,,,,,,,,37_38Exp,001,2021_May_11_1040,ComputerHuman,2020.1.3,60.01083780258909,
Computer.xlsx,c,Sychronize.jpg,Number7.jpg,7,Computer,,,,,0,5,5,1,0,3,3,2,,,,,,,,,,,,,,,,,,,,,,,,,,,,,1132.103455697977,None,1132.103455697977,None,1132.5533171383745,None,1132.5533171383745,None,v,6.973672873593614,1132.5533171383745,None,t,7.341202740333301,1132.5533171383745,None,6.973672873593614,7.341202740333301,6.694861082402906,False,True,False,1139.9842979684236,None,1139.9842979684236,None,1139.9842979684236,None,1139.9842979684236,None,1139.9842979684236,None,1139.9842979684236,None,1139.9842979684236,None,1139.9842979684236,None,1140.983958265636,None,1140.983958265636,None,1141.9671254953196,None,1141.9671254953196,None,c,,,,,,,,,,,,,,,,,,,,,,,,,,,,,,,,,,,,,,,,,,,,,,,37_38Exp,001,2021_May_11_1040,ComputerHuman,2020.1.3,60.01083780258909,
Computer.xlsx,c,Sychronize.jpg,Number8.jpg,8,Computer,,,,,0,5,5,1,0,4,4,5,,,,,,,,,,,,,,,,,,,,,,,,,,,,,1143.0168286002158,None,1143.0168286002158,None,1143.467060217211,None,1143.467060217211,None,v,7.763035332618301,1143.467060217211,None,t,7.874244209414883,1143.467060217211,None,7.763035332618301,7.874244209414883,8.436320935546966,False,False,False,1151.4312894174723,None,1151.4312894174723,None,1151.4312894174723,None,1151.4312894174723,None,1151.4312894174723,None,1151.4312894174723,None,1151.4312894174723,None,1151.4312894174723,None,1152.4144457407397,None,1152.4144457407397,None,1153.3976363871407,None,1153.3976363871407,None,c,,,,,,,,,,,,,,,,,,,,,,,,,,,,,,,,,,,,,,,,,,,,,,,37_38Exp,001,2021_May_11_1040,ComputerHuman,2020.1.3,60.01083780258909,
Computer.xlsx,c,Sychronize.jpg,Number10.jpg,10,Computer,,,,,0,5,5,1,0,5,5,9,,,,,,,,,,,,,,,,,,,,,,,,,,,,,1154.463931038089,None,1154.463931038089,None,1154.897880979563,None,1154.897880979563,None,v,9.191200703399772,1154.897880979563,None,t,10.230047754064117,1154.897880979563,None,9.191200703399772,10.230047754064117,10.35088551706728,False,False,True,1165.211371478631,None,1165.211371478631,None,1165.211371478631,None,1165.211371478631,None,1165.211371478631,None,1165.211371478631,None,1165.211371478631,None,1165.211371478631,None,1166.2111013844415,None,1166.2111013844415,None,1167.1776000816058,None,1167.1776000816058,None,c,,,,,,,,,,,,,,,,,,,,,,,,,,,,,,,,,,,,,,,,,,,,,,,37_38Exp,001,2021_May_11_1040,ComputerHuman,2020.1.3,60.01083780258909,
Computer.xlsx,c,Sychronize.jpg,Number6.jpg,6,Computer,,,,,0,5,5,1,0,6,6,1,,,,,,,,,,,,,,,,,,,,,,,,,,,,,1168.2277689546295,None,1168.2277689546295,None,1168.6775213308651,None,1168.6775213308651,None,v,5.7947396429945,1168.6775213308651,None,t,6.530310374150986,1168.6775213308651,None,5.7947396429945,6.530310374150986,5.834864545639352,False,True,False,1175.2922541028174,None,1175.2922541028174,None,1175.2922541028174,None,1175.2922541028174,None,1175.2922541028174,None,1175.2922541028174,None,1175.2922541028174,None,1175.2922541028174,None,1176.2919105507067,None,1176.2919105507067,None,1177.2751230099398,None,1177.2751230099398,None,c,,,,,,,,,,,,,,,,,,,,,,,,,,,,,,,,,,,,,,,,,,,,,,,37_38Exp,001,2021_May_11_1040,ComputerHuman,2020.1.3,60.01083780258909,
Computer.xlsx,c,Sychronize.jpg,Number9.jpg,9,Computer,,,,,0,5,5,1,0,7,7,7,,,,,,,,,,,,,,,,,,,,,,,,,,,,,1178.3250073538115,None,1178.3250073538115,None,1178.7751180378973,None,1178.7751180378973,None,v,8.780161613841756,1178.7751180378973,None,t,9.81918862037378,1178.7751180378973,None,8.780161613841756,9.81918862037378,8.802844191036039,False,True,False,1188.657123445555,None,1188.657123445555,None,1188.657123445555,None,1188.657123445555,None,1188.657123445555,None,1188.657123445555,None,1188.657123445555,None,1188.657123445555,None,1189.671875977367,None,1189.671875977367,None,1190.6717803858369,None,1190.6717803858369,None,c,,,,,,,,,,,,,,,,,,,,,,,,,,,,,,,,,,,,,,,,,,,,,,,37_38Exp,001,2021_May_11_1040,ComputerHuman,2020.1.3,60.01083780258909,
Computer.xlsx,c,Sychronize.jpg,Number10.jpg,10,Computer,,,,,0,5,5,1,0,8,8,8,,,,,,,,,,,,,,,,,,,,,,,,,,,,,1191.7213118750665,None,1191.7213118750665,None,1192.1719723708402,None,1192.1719723708402,None,v,8.838335154811602,1192.1719723708402,None,t,9.793069036652241,1192.1719723708402,None,8.838335154811602,9.793069036652241,10.196178073619825,False,False,False,1202.052261301052,None,1202.052261301052,None,1202.052261301052,None,1202.052261301052,None,1202.052261301052,None,1202.052261301052,None,1202.052261301052,None,1202.052261301052,None,1203.0352889927635,None,1203.0352889927635,None,1204.018444674477,None,1204.018444674477,None,c,,,,,,,,,,,,,,,,,,,,,,,,,,,,,,,,,,,,,,,,,,,,,,,37_38Exp,001,2021_May_11_1040,ComputerHuman,2020.1.3,60.01083780258909,
Computer.xlsx,c,Sychronize.jpg,Number7.jpg,7,Computer,,,,,0,5,5,1,0,9,9,3,,,,,,,,,,,,,,,,,,,,,,,,,,,,,1205.0683681531364,None,1205.0683681531364,None,1205.5184419478733,None,1205.5184419478733,None,v,7.0188879882184665,1205.5184419478733,None,t,7.290260153312147,1205.5184419478733,None,7.0188879882184665,7.290260153312147,6.938718087019983,False,True,False,1212.899595853124,None,1212.899595853124,None,1212.899595853124,None,1212.899595853124,None,1212.899595853124,None,1212.899595853124,None,1212.899595853124,None,1212.899595853124,None,1213.8995082810175,None,1213.8995082810175,None,1214.8824262670128,None,1214.8824262670128,None,c,,,,,,,,,,,,,,,,,,,,,,,,,,,,,,,,,,,,,,,,,,,,,,,37_38Exp,001,2021_May_11_1040,ComputerHuman,2020.1.3,60.01083780258909,
Computer.xlsx,c,,,,,,,,,0,5,5,1,,,,,,,,,,,,,,,,,,,,,,,,,,,,,,,,,,,,,,,,,,,,,,,,,,,,,,,,,,,,,,,,,,,,,,,,,,,,,,,c,1215.8833318203356,None,1215.8833318203356,None,q,0,3.757428472354377,1215.8833318203356,None,o,0,2.492635763229373,1215.8833318203356,None,h,h,1219.714729852882,None,1219.714729852882,None,1221.714101130065,None,None,None,None,None,None,None,None,,,,,,,,,,,,,,,,,,37_38Exp,001,2021_May_11_1040,ComputerHuman,2020.1.3,60.01083780258909,
Computer.xlsx,c,Sychronize.jpg,Number8.jpg,8,Computer,,,,,0,6,6,7,0,0,0,5,,,,,,,,,,,,,,,,,,,,,,,,,1226.73263433898,None,1226.73263433898,None,1229.796446176355,None,1229.796446176355,None,1230.2460583730644,None,1230.2460583730644,None,v,7.645275228224818,1230.2460583730644,None,t,8.376203033844149,1230.2460583730644,None,7.645275228224818,8.376203033844149,7.850769679474118,False,True,False,1238.7098755353368,None,1238.7098755353368,None,1238.7098755353368,None,1238.7098755353368,None,1238.7098755353368,None,1238.7098755353368,None,1238.7098755353368,None,1238.7098755353368,None,1239.7096371980647,None,1239.7096371980647,None,1240.7094479396656,None,1240.7094479396656,None,c,,,,,,,,,,,,,,,,,,,,,,,,,,,,,,,,,,,,,,,,,,,,,,,37_38Exp,001,2021_May_11_1040,ComputerHuman,2020.1.3,60.01083780258909,
Computer.xlsx,c,Sychronize.jpg,Number7.jpg,7,Computer,,,,,0,6,6,7,0,1,1,3,,,,,,,,,,,,,,,,,,,,,,,,,,,,,1241.7591151175438,None,1241.7591151175438,None,1242.209302146543,None,1242.209302146543,None,v,6.605321176314874,1242.209302146543,None,t,7.536211066098986,1242.209302146543,None,6.605321176314874,7.536211066098986,6.6203297351496255,False,True,False,1249.8253693505967,None,1249.8253693505967,None,1249.8253693505967,None,1249.8253693505967,None,1249.8253693505967,None,1249.8253693505967,None,1249.8253693505967,None,1249.8253693505967,None,1250.8236127760324,None,1250.8236127760324,None,1251.806660035138,None,1251.806660035138,None,c,,,,,,,,,,,,,,,,,,,,,,,,,,,,,,,,,,,,,,,,,,,,,,,37_38Exp,001,2021_May_11_1040,ComputerHuman,2020.1.3,60.01083780258909,
Computer.xlsx,c,Sychronize.jpg,Number10.jpg,10,Computer,,,,,0,6,6,7,0,2,2,8,,,,,,,,,,,,,,,,,,,,,,,,,,,,,1252.8566252148003,None,1252.8566252148003,None,1253.3067211431462,None,1253.3067211431462,None,v,8.722671006992641,1253.3067211431462,None,t,9.902052042210471,1253.3067211431462,None,8.722671006992641,9.902052042210471,10.42646853371898,False,False,False,1263.3038351129503,None,1263.3038351129503,None,1263.3038351129503,None,1263.3038351129503,None,1263.3038351129503,None,1263.3038351129503,None,1263.3038351129503,None,1263.3038351129503,None,1264.3035592447754,None,1264.3035592447754,None,1265.2694564851636,None,1265.2694564851636,None,c,,,,,,,,,,,,,,,,,,,,,,,,,,,,,,,,,,,,,,,,,,,,,,,37_38Exp,001,2021_May_11_1040,ComputerHuman,2020.1.3,60.01083780258909,
Computer.xlsx,c,Sychronize.jpg,Number9.jpg,9,Computer,,,,,0,6,6,7,0,3,3,6,,,,,,,,,,,,,,,,,,,,,,,,,,,,,1266.3371064187145,None,1266.3371064187145,None,1266.7697873665848,None,1266.7697873665848,None,v,7.958661154007814,1266.7697873665848,None,t,8.770210471378732,1266.7697873665848,None,7.958661154007814,8.770210471378732,8.351602039471132,False,False,False,1275.634133040956,None,1275.634133040956,None,1275.634133040956,None,1275.634133040956,None,1275.634133040956,None,1275.634133040956,None,1275.634133040956,None,1275.634133040956,None,1276.6337721668901,None,1276.6337721668901,None,1277.61699970264,None,1277.61699970264,None,c,,,,,,,,,,,,,,,,,,,,,,,,,,,,,,,,,,,,,,,,,,,,,,,37_38Exp,001,2021_May_11_1040,ComputerHuman,2020.1.3,60.01083780258909,
Computer.xlsx,c,Sychronize.jpg,Number8.jpg,8,Computer,,,,,0,6,6,7,0,4,4,4,,,,,,,,,,,,,,,,,,,,,,,,,,,,,1278.6676340230147,None,1278.6676340230147,None,1279.1171522320783,None,1279.1171522320783,None,v,9.366220455240182,1279.1171522320783,None,t,7.537375807195076,1279.1171522320783,None,9.366220455240182,7.537375807195076,8.42482916361867,False,False,False,1288.564250499851,None,1288.564250499851,None,1288.564250499851,None,1288.564250499851,None,1288.564250499851,None,1288.564250499851,None,1288.564250499851,None,1288.564250499851,None,1289.5640445610507,None,1289.5640445610507,None,1290.5637327658574,None,1290.5637327658574,None,c,,,,,,,,,,,,,,,,,,,,,,,,,,,,,,,,,,,,,,,,,,,,,,,37_38Exp,001,2021_May_11_1040,ComputerHuman,2020.1.3,60.01083780258909,
Computer.xlsx,c,Sychronize.jpg,Number6.jpg,6,Computer,,,,,0,6,6,7,0,5,5,1,,,,,,,,,,,,,,,,,,,,,,,,,,,,,1291.6145037372116,None,1291.6145037372116,None,1292.0639988503353,None,1292.0639988503353,None,v,5.598640675607612,1292.0639988503353,None,t,5.738477291077061,1292.0639988503353,None,5.598640675607612,5.738477291077061,6.153732619710986,False,False,False,1297.8952541371405,None,1297.8952541371405,None,1297.8952541371405,None,1297.8952541371405,None,1297.8952541371405,None,1297.8952541371405,None,1297.8952541371405,None,1297.8952541371405,None,1298.8950526892177,None,1298.8950526892177,None,1299.861568708337,None,1299.861568708337,None,c,,,,,,,,,,,,,,,,,,,,,,,,,,,,,,,,,,,,,,,,,,,,,,,37_38Exp,001,2021_May_11_1040,ComputerHuman,2020.1.3,60.01083780258909,
Computer.xlsx,c,Sychronize.jpg,Number10.jpg,10,Computer,,,,,0,6,6,7,0,6,6,9,,,,,,,,,,,,,,,,,,,,,,,,,,,,,1300.9284038684418,None,1300.9284038684418,None,1301.3616051165209,None,1301.3616051165209,None,v,7.756145364564645,1301.3616051165209,None,t,9.811083228465804,1301.3616051165209,None,7.756145364564645,9.811083228465804,10.200527586936134,False,False,False,1311.2436451680887,None,1311.2436451680887,None,1311.2436451680887,None,1311.2436451680887,None,1311.2436451680887,None,1311.2436451680887,None,1311.2436451680887,None,1311.2436451680887,None,1312.2583999453395,None,1312.2583999453395,None,1313.2415103975036,None,1313.2415103975036,None,c,,,,,,,,,,,,,,,,,,,,,,,,,,,,,,,,,,,,,,,,,,,,,,,37_38Exp,001,2021_May_11_1040,ComputerHuman,2020.1.3,60.01083780258909,
Computer.xlsx,c,Sychronize.jpg,Number6.jpg,6,Computer,,,,,0,6,6,7,0,7,7,0,,,,,,,,,,,,,,,,,,,,,,,,,,,,,1314.2918534524101,None,1314.2918534524101,None,1314.741608394861,None,1314.741608394861,None,v,5.571598537385398,1314.741608394861,None,t,5.950350785630917,1314.741608394861,None,5.571598537385398,5.950350785630917,6.24251443792148,False,False,True,1320.7896210052445,None,1320.7896210052445,None,1320.7896210052445,None,1320.7896210052445,None,1320.7896210052445,None,1320.7896210052445,None,1320.7896210052445,None,1320.7896210052445,None,1321.7727481378097,None,1321.7727481378097,None,1322.7558345317025,None,1322.7558345317025,None,c,,,,,,,,,,,,,,,,,,,,,,,,,,,,,,,,,,,,,,,,,,,,,,,37_38Exp,001,2021_May_11_1040,ComputerHuman,2020.1.3,60.01083780258909,
Computer.xlsx,c,Sychronize.jpg,Number9.jpg,9,Computer,,,,,0,6,6,7,0,8,8,7,,,,,,,,,,,,,,,,,,,,,,,,,,,,,1323.8227142798028,None,1323.8227142798028,None,1324.2726357054898,None,1324.2726357054898,None,v,8.57928146605309,1324.2726357054898,None,t,9.166098624155893,1324.2726357054898,None,8.57928146605309,9.166098624155893,9.649592693750302,False,False,False,1333.5364930290361,None,1333.5364930290361,None,1333.5364930290361,None,1333.5364930290361,None,1333.5364930290361,None,1333.5364930290361,None,1333.5364930290361,None,1333.5364930290361,None,1334.5362084998837,None,1334.5362084998837,None,1335.5193317831254,None,1335.5193317831254,None,c,,,,,,,,,,,,,,,,,,,,,,,,,,,,,,,,,,,,,,,,,,,,,,,37_38Exp,001,2021_May_11_1040,ComputerHuman,2020.1.3,60.01083780258909,
Computer.xlsx,c,Sychronize.jpg,Number7.jpg,7,Computer,,,,,0,6,6,7,0,9,9,2,,,,,,,,,,,,,,,,,,,,,,,,,,,,,1336.5697120481577,None,1336.5697120481577,None,1337.019472443817,None,1337.019472443817,None,v,6.731565510190649,1337.019472443817,None,t,7.327190882492687,1337.019472443817,None,6.731565510190649,7.327190882492687,7.301651107813058,False,False,True,1344.418919296049,None,1344.418919296049,None,1344.418919296049,None,1344.418919296049,None,1344.418919296049,None,1344.418919296049,None,1344.418919296049,None,1344.418919296049,None,1345.4334912304394,None,1345.4334912304394,None,1346.4166879716022,None,1346.4166879716022,None,c,,,,,,,,,,,,,,,,,,,,,,,,,,,,,,,,,,,,,,,,,,,,,,,37_38Exp,001,2021_May_11_1040,ComputerHuman,2020.1.3,60.01083780258909,
Computer.xlsx,c,,,,,,,,,0,6,6,7,,,,,,,,,,,,,,,,,,,,,,,,,,,,,,,,,,,,,,,,,,,,,,,,,,,,,,,,,,,,,,,,,,,,,,,,,,,,,,,c,1347.4170729039392,None,1347.4170729039392,None,a,1,2.709472318713779,1347.4170729039392,None,o,0,1.4087413642837419,1347.4170729039392,None,c,h,1350.1994000829532,None,1350.1994000829532,None,1352.1985506655965,None,None,None,None,None,None,None,None,,,,,,,,,,,,,,,,,,37_38Exp,001,2021_May_11_1040,ComputerHuman,2020.1.3,60.01083780258909,
Computer.xlsx,c,Sychronize.jpg,Number9.jpg,9,Computer,,,,,0,7,7,5,0,0,0,7,,,,,,,,,,,,,,,,,,,,,,,,,1357.217718371313,None,1357.217718371313,None,1360.2965233232107,None,1360.2965233232107,None,1360.729240839653,None,1360.729240839653,None,v,8.911802057527439,1360.729240839653,None,t,9.9271884445875,1360.729240839653,None,8.911802057527439,9.9271884445875,9.398957399390538,False,False,False,1370.7288822110258,None,1370.7288822110258,None,1370.7288822110258,None,1370.7288822110258,None,1370.7288822110258,None,1370.7288822110258,None,1370.7288822110258,None,1370.7288822110258,None,1371.7270005334522,None,1371.7270005334522,None,1372.7101584606044,None,1372.7101584606044,None,c,,,,,,,,,,,,,,,,,,,,,,,,,,,,,,,,,,,,,,,,,,,,,,,37_38Exp,001,2021_May_11_1040,ComputerHuman,2020.1.3,60.01083780258909,
Computer.xlsx,c,Sychronize.jpg,Number8.jpg,8,Computer,,,,,0,7,7,5,0,1,1,5,,,,,,,,,,,,,,,,,,,,,,,,,,,,,1373.77666354123,None,1373.77666354123,None,1374.2269506526368,None,1374.2269506526368,None,v,8.40100262042688,1374.2269506526368,None,t,8.588194574314457,1374.2269506526368,None,8.40100262042688,8.588194574314457,7.801178662345371,False,False,False,1382.9076284286648,None,1382.9076284286648,None,1382.9076284286648,None,1382.9076284286648,None,1382.9076284286648,None,1382.9076284286648,None,1382.9076284286648,None,1382.9076284286648,None,1383.890723804312,None,1383.890723804312,None,1384.8738467667772,None,1384.8738467667772,None,c,,,,,,,,,,,,,,,,,,,,,,,,,,,,,,,,,,,,,,,,,,,,,,,37_38Exp,001,2021_May_11_1040,ComputerHuman,2020.1.3,60.01083780258909,
Computer.xlsx,c,Sychronize.jpg,Number10.jpg,10,Computer,,,,,0,7,7,5,0,2,2,8,,,,,,,,,,,,,,,,,,,,,,,,,,,,,1385.924046434388,None,1385.924046434388,None,1386.3740204674941,None,1386.3740204674941,None,v,8.844954707898978,1386.3740204674941,None,t,10.324023851690526,1386.3740204674941,None,8.844954707898978,10.324023851690526,10.722956617548869,False,False,False,1396.7875949780446,None,1396.7875949780446,None,1396.7875949780446,None,1396.7875949780446,None,1396.7875949780446,None,1396.7875949780446,None,1396.7875949780446,None,1396.7875949780446,None,1397.7873049956843,None,1397.7873049956843,None,1398.770453299528,None,1398.770453299528,None,c,,,,,,,,,,,,,,,,,,,,,,,,,,,,,,,,,,,,,,,,,,,,,,,37_38Exp,001,2021_May_11_1040,ComputerHuman,2020.1.3,60.01083780258909,
Computer.xlsx,c,Sychronize.jpg,Number6.jpg,6,Computer,,,,,0,7,7,5,0,3,3,0,,,,,,,,,,,,,,,,,,,,,,,,,,,,,1399.8204938617728,None,1399.8204938617728,None,1400.2536155571688,None,1400.2536155571688,None,v,5.888753913077835,1400.2536155571688,None,t,6.1833487252802115,1400.2536155571688,None,5.888753913077835,6.1833487252802115,6.433100065959586,False,False,True,1406.518479157999,None,1406.518479157999,None,1406.518479157999,None,1406.518479157999,None,1406.518479157999,None,1406.518479157999,None,1406.518479157999,None,1406.518479157999,None,1407.5348692561279,None,1407.5348692561279,None,1408.5179691226526,None,1408.5179691226526,None,c,,,,,,,,,,,,,,,,,,,,,,,,,,,,,,,,,,,,,,,,,,,,,,,37_38Exp,001,2021_May_11_1040,ComputerHuman,2020.1.3,60.01083780258909,
Computer.xlsx,c,Sychronize.jpg,Number9.jpg,9,Computer,,,,,0,7,7,5,0,4,4,6,,,,,,,,,,,,,,,,,,,,,,,,,,,,,1409.5848690797006,None,1409.5848690797006,None,1410.0180533266016,None,1410.0180533266016,None,v,8.151133417226902,1410.0180533266016,None,t,9.822099029617675,1410.0180533266016,None,8.151133417226902,9.822099029617675,8.651927765445544,False,False,False,1419.9318400311026,None,1419.9318400311026,None,1419.9318400311026,None,1419.9318400311026,None,1419.9318400311026,None,1419.9318400311026,None,1419.9318400311026,None,1419.9318400311026,None,1420.9148054920865,None,1420.9148054920865,None,1421.8980654263078,None,1421.8980654263078,None,c,,,,,,,,,,,,,,,,,,,,,,,,,,,,,,,,,,,,,,,,,,,,,,,37_38Exp,001,2021_May_11_1040,ComputerHuman,2020.1.3,60.01083780258909,
Computer.xlsx,c,Sychronize.jpg,Number7.jpg,7,Computer,,,,,0,7,7,5,0,5,5,2,,,,,,,,,,,,,,,,,,,,,,,,,,,,,1422.9657788736945,None,1422.9657788736945,None,1423.3979908456677,None,1423.3979908456677,None,v,7.538428917913734,1423.3979908456677,None,t,7.477303587473216,1423.3979908456677,None,7.538428917913734,7.477303587473216,7.003085873605174,False,False,False,1431.0141793034072,None,1431.0141793034072,None,1431.0141793034072,None,1431.0141793034072,None,1431.0141793034072,None,1431.0141793034072,None,1431.0141793034072,None,1431.0141793034072,None,1432.0287752960694,None,1432.0287752960694,None,1432.995266615364,None,1432.995266615364,None,c,,,,,,,,,,,,,,,,,,,,,,,,,,,,,,,,,,,,,,,,,,,,,,,37_38Exp,001,2021_May_11_1040,ComputerHuman,2020.1.3,60.01083780258909,
Computer.xlsx,c,Sychronize.jpg,Number6.jpg,6,Computer,,,,,0,7,7,5,0,6,6,1,,,,,,,,,,,,,,,,,,,,,,,,,,,,,1434.062429288732,None,1434.062429288732,None,1434.4952642095368,None,1434.4952642095368,None,v,5.836333185882722,1434.4952642095368,None,t,7.875226749205012,1434.4952642095368,None,5.836333185882722,7.875226749205012,5.909682618905107,False,True,False,1442.4596088894991,None,1442.4596088894991,None,1442.4596088894991,None,1442.4596088894991,None,1442.4596088894991,None,1442.4596088894991,None,1442.4596088894991,None,1442.4596088894991,None,1443.4593375122017,None,1443.4593375122017,None,1444.4424742680753,None,1444.4424742680753,None,c,,,,,,,,,,,,,,,,,,,,,,,,,,,,,,,,,,,,,,,,,,,,,,,37_38Exp,001,2021_May_11_1040,ComputerHuman,2020.1.3,60.01083780258909,
Computer.xlsx,c,Sychronize.jpg,Number8.jpg,8,Computer,,,,,0,7,7,5,0,7,7,4,,,,,,,,,,,,,,,,,,,,,,,,,,,,,1445.4925953453344,None,1445.4925953453344,None,1445.9427050670893,None,1445.9427050670893,None,v,8.215724421807408,1445.9427050670893,None,t,8.559164260572288,1445.9427050670893,None,8.215724421807408,8.559164260572288,8.334136587717818,False,True,True,1454.5899225997305,None,1454.5899225997305,None,1454.5899225997305,None,1454.5899225997305,None,1454.5899225997305,None,1454.5899225997305,None,1454.5899225997305,None,1454.5899225997305,None,1455.5730304856788,None,1455.5730304856788,None,1456.556158580575,None,1456.556158580575,None,c,,,,,,,,,,,,,,,,,,,,,,,,,,,,,,,,,,,,,,,,,,,,,,,37_38Exp,001,2021_May_11_1040,ComputerHuman,2020.1.3,60.01083780258909,
Computer.xlsx,c,Sychronize.jpg,Number10.jpg,10,Computer,,,,,0,7,7,5,0,8,8,9,,,,,,,,,,,,,,,,,,,,,,,,,,,,,1457.62324907913,None,1457.62324907913,None,1458.072856784962,None,1458.072856784962,None,v,9.824472137474459,1458.072856784962,None,t,10.568100464773579,1458.072856784962,None,9.824472137474459,10.568100464773579,10.249411149371452,False,False,False,1468.7364262432757,None,1468.7364262432757,None,1468.7364262432757,None,1468.7364262432757,None,1468.7364262432757,None,1468.7364262432757,None,1468.7364262432757,None,1468.7364262432757,None,1469.7194625959646,None,1469.7194625959646,None,1470.7026442606107,None,1470.7026442606107,None,c,,,,,,,,,,,,,,,,,,,,,,,,,,,,,,,,,,,,,,,,,,,,,,,37_38Exp,001,2021_May_11_1040,ComputerHuman,2020.1.3,60.01083780258909,
Computer.xlsx,c,Sychronize.jpg,Number7.jpg,7,Computer,,,,,0,7,7,5,0,9,9,3,,,,,,,,,,,,,,,,,,,,,,,,,,,,,1471.7706935614615,None,1471.7706935614615,None,1472.2027589383697,None,1472.2027589383697,None,v,7.441666872498445,1472.2027589383697,None,t,7.457227762218281,1472.2027589383697,None,7.441666872498445,7.457227762218281,6.677594623084064,False,False,False,1479.7505003318438,None,1479.7505003318438,None,1479.7505003318438,None,1479.7505003318438,None,1479.7505003318438,None,1479.7505003318438,None,1479.7505003318438,None,1479.7505003318438,None,1480.750103851537,None,1480.750103851537,None,1481.7332800629752,None,1481.7332800629752,None,c,,,,,,,,,,,,,,,,,,,,,,,,,,,,,,,,,,,,,,,,,,,,,,,37_38Exp,001,2021_May_11_1040,ComputerHuman,2020.1.3,60.01083780258909,
Computer.xlsx,c,,,,,,,,,0,7,7,5,,,,,,,,,,,,,,,,,,,,,,,,,,,,,,,,,,,,,,,,,,,,,,,,,,,,,,,,,,,,,,,,,,,,,,,,,,,,,,,c,1482.7343585150725,None,1482.7343585150725,None,q,0,2.29370754316642,1482.7343585150725,None,l,1,3.0048931315564005,1482.7343585150725,None,h,c,1485.8158977696703,None,1485.8158977696703,None,1487.8150762599075,None,None,None,None,None,None,None,None,,,,,,,,,,,,,,,,,,37_38Exp,001,2021_May_11_1040,ComputerHuman,2020.1.3,60.01083780258909,
Human.xlsx,h,Sychronize.jpg,Number10.jpg,10,Human,,,,,0,8,8,0,0,0,0,8,,,,,,,,,,,,,,,,,,,,,,,,,1492.8336697748887,None,1492.8336697748887,None,1495.8965285839527,None,1495.8965285839527,None,1496.346478238011,None,1496.346478238011,None,v,10.104029567935868,1496.346478238011,None,t,11.158973847376274,1496.346478238011,None,10.104029567935868,11.158973847376274,10.418459798952474,False,False,False,1507.5934912432708,None,1507.5934912432708,None,1507.5934912432708,None,1507.5934912432708,None,1507.5934912432708,None,1507.5934912432708,None,1507.5934912432708,None,1507.5934912432708,None,1508.578289944509,None,1508.578289944509,None,1509.5930767994546,None,1509.5930767994546,None,h,,,,,,,,,,,,,,,,,,,,,,,,,,,,,,,,,,,,,,,,,,,,,,,37_38Exp,001,2021_May_11_1040,ComputerHuman,2020.1.3,60.01083780258909,
Human.xlsx,h,Sychronize.jpg,Number9.jpg,9,Human,,,,,0,8,8,0,0,1,1,7,,,,,,,,,,,,,,,,,,,,,,,,,,,,,1510.6431532887177,None,1510.6431532887177,None,1511.0931776838047,None,1511.0931776838047,None,v,9.140074952741543,1511.0931776838047,None,t,9.719489862005048,1511.0931776838047,None,9.140074952741543,9.719489862005048,8.400963945693146,False,False,False,1520.8738968079806,None,1520.8738968079806,None,1520.8738968079806,None,1520.8738968079806,None,1520.8738968079806,None,1520.8738968079806,None,1520.8738968079806,None,1520.8738968079806,None,1521.8756084737724,None,1521.8756084737724,None,1522.873211307644,None,1522.873211307644,None,h,,,,,,,,,,,,,,,,,,,,,,,,,,,,,,,,,,,,,,,,,,,,,,,37_38Exp,001,2021_May_11_1040,ComputerHuman,2020.1.3,60.01083780258909,
Human.xlsx,h,Sychronize.jpg,Number6.jpg,6,Human,,,,,0,8,8,0,0,2,2,1,,,,,,,,,,,,,,,,,,,,,,,,,,,,,1523.9563063304367,None,1523.9563063304367,None,1524.390056107096,None,1524.390056107096,None,v,6.850336061969301,1524.390056107096,None,t,6.437418502606761,1524.390056107096,None,6.850336061969301,6.437418502606761,6.368176018478966,False,False,False,1531.3377011391754,None,1531.3377011391754,None,1531.3377011391754,None,1531.3377011391754,None,1531.3377011391754,None,1531.3377011391754,None,1531.3377011391754,None,1531.3377011391754,None,1532.3231577539327,None,1532.3231577539327,None,1533.303882267162,None,1533.303882267162,None,h,,,,,,,,,,,,,,,,,,,,,,,,,,,,,,,,,,,,,,,,,,,,,,,37_38Exp,001,2021_May_11_1040,ComputerHuman,2020.1.3,60.01083780258909,
Human.xlsx,h,Sychronize.jpg,Number6.jpg,6,Human,,,,,0,8,8,0,0,3,3,0,,,,,,,,,,,,,,,,,,,,,,,,,,,,,1534.3536209782992,None,1534.3536209782992,None,1534.804024531738,None,1534.804024531738,None,v,6.079600157950608,1534.804024531738,None,t,6.275400161222478,1534.804024531738,None,6.079600157950608,6.275400161222478,5.697691157134796,True,False,False,1541.153635477417,None,1541.153635477417,None,1541.153635477417,None,1541.153635477417,None,1541.153635477417,None,1541.153635477417,None,1541.153635477417,None,1541.153635477417,None,1542.1543536970025,None,1542.1543536970025,None,1543.1514387968814,None,1543.1514387968814,None,h,,,,,,,,,,,,,,,,,,,,,,,,,,,,,,,,,,,,,,,,,,,,,,,37_38Exp,001,2021_May_11_1040,ComputerHuman,2020.1.3,60.01083780258909,
Human.xlsx,h,Sychronize.jpg,Number8.jpg,8,Human,,,,,0,8,8,0,0,4,4,5,,,,,,,,,,,,,,,,,,,,,,,,,,,,,1544.2014402243385,None,1544.2014402243385,None,1544.6515509084243,None,1544.6515509084243,None,v,8.515130888221847,1544.6515509084243,None,t,7.926235095500488,1544.6515509084243,None,8.515130888221847,7.926235095500488,7.859967232880724,False,False,False,1553.248916816443,None,1553.248916816443,None,1553.248916816443,None,1553.248916816443,None,1553.248916816443,None,1553.248916816443,None,1553.248916816443,None,1553.248916816443,None,1554.2167130563598,None,1554.2167130563598,None,1555.2151357961093,None,1555.2151357961093,None,h,,,,,,,,,,,,,,,,,,,,,,,,,,,,,,,,,,,,,,,,,,,,,,,37_38Exp,001,2021_May_11_1040,ComputerHuman,2020.1.3,60.01083780258909,
Human.xlsx,h,Sychronize.jpg,Number10.jpg,10,Human,,,,,0,8,8,0,0,5,5,9,,,,,,,,,,,,,,,,,,,,,,,,,,,,,1556.281542398212,None,1556.281542398212,None,1556.7152232078274,None,1556.7152232078274,None,v,10.670519411656642,1556.7152232078274,None,t,10.13011675318512,1556.7152232078274,None,10.670519411656642,10.13011675318512,9.55085892442177,False,False,False,1567.4633613382302,None,1567.4633613382302,None,1567.4633613382302,None,1567.4633613382302,None,1567.4633613382302,None,1567.4633613382302,None,1567.4633613382302,None,1567.4633613382302,None,1568.447258977023,None,1568.447258977023,None,1569.444954194656,None,1569.444954194656,None,h,,,,,,,,,,,,,,,,,,,,,,,,,,,,,,,,,,,,,,,,,,,,,,,37_38Exp,001,2021_May_11_1040,ComputerHuman,2020.1.3,60.01083780258909,
Human.xlsx,h,Sychronize.jpg,Number7.jpg,7,Human,,,,,0,8,8,0,0,6,6,3,,,,,,,,,,,,,,,,,,,,,,,,,,,,,1570.5114589545046,None,1570.5114589545046,None,1570.945127574596,None,1570.945127574596,None,v,6.679658026112065,1570.945127574596,None,t,7.575215618244329,1570.945127574596,None,6.679658026112065,7.575215618244329,6.780856605651999,False,False,False,1578.5931727117618,None,1578.5931727117618,None,1578.5931727117618,None,1578.5931727117618,None,1578.5931727117618,None,1578.5931727117618,None,1578.5931727117618,None,1578.5931727117618,None,1579.5954864758837,None,1579.5954864758837,None,1580.5922030030497,None,1580.5922030030497,None,h,,,,,,,,,,,,,,,,,,,,,,,,,,,,,,,,,,,,,,,,,,,,,,,37_38Exp,001,2021_May_11_1040,ComputerHuman,2020.1.3,60.01083780258909,
Human.xlsx,h,Sychronize.jpg,Number8.jpg,8,Human,,,,,0,8,8,0,0,7,7,4,,,,,,,,,,,,,,,,,,,,,,,,,,,,,1581.6425284152242,None,1581.6425284152242,None,1582.0924633135428,None,1582.0924633135428,None,v,8.491298764912244,1582.0924633135428,None,t,8.746200958417376,1582.0924633135428,None,8.491298764912244,8.746200958417376,8.439081457071392,True,False,False,1590.922995889885,None,1590.922995889885,None,1590.922995889885,None,1590.922995889885,None,1590.922995889885,None,1590.922995889885,None,1590.922995889885,None,1590.922995889885,None,1591.9081185758405,None,1591.9081185758405,None,1592.9057544497377,None,1592.9057544497377,None,h,,,,,,,,,,,,,,,,,,,,,,,,,,,,,,,,,,,,,,,,,,,,,,,37_38Exp,001,2021_May_11_1040,ComputerHuman,2020.1.3,60.01083780258909,
Human.xlsx,h,Sychronize.jpg,Number9.jpg,9,Human,,,,,0,8,8,0,0,8,8,6,,,,,,,,,,,,,,,,,,,,,,,,,,,,,1593.9556156976691,None,1593.9556156976691,None,1594.4057148337847,None,1594.4057148337847,None,v,9.129040546526994,1594.4057148337847,None,t,9.53198932069381,1594.4057148337847,None,9.129040546526994,9.53198932069381,8.754074866795825,False,False,False,1604.004533540598,None,1604.004533540598,None,1604.004533540598,None,1604.004533540598,None,1604.004533540598,None,1604.004533540598,None,1604.004533540598,None,1604.004533540598,None,1605.0055337231202,None,1605.0055337231202,None,1606.0026213892147,None,1606.0026213892147,None,h,,,,,,,,,,,,,,,,,,,,,,,,,,,,,,,,,,,,,,,,,,,,,,,37_38Exp,001,2021_May_11_1040,ComputerHuman,2020.1.3,60.01083780258909,
Human.xlsx,h,Sychronize.jpg,Number7.jpg,7,Human,,,,,0,8,8,0,0,9,9,2,,,,,,,,,,,,,,,,,,,,,,,,,,,,,1607.0689442685339,None,1607.0689442685339,None,1607.519499870246,None,1607.519499870246,None,v,6.830406511001911,1607.519499870246,None,t,7.181195670409579,1607.519499870246,None,6.830406511001911,7.181195670409579,6.575179263294962,False,False,False,1614.7688834171472,None,1614.7688834171472,None,1614.7688834171472,None,1614.7688834171472,None,1614.7688834171472,None,1614.7688834171472,None,1614.7688834171472,None,1614.7688834171472,None,1615.7694008303633,None,1615.7694008303633,None,1616.7499232541154,None,1616.7499232541154,None,h,,,,,,,,,,,,,,,,,,,,,,,,,,,,,,,,,,,,,,,,,,,,,,,37_38Exp,001,2021_May_11_1040,ComputerHuman,2020.1.3,60.01083780258909,
Human.xlsx,h,,,,,,,,,0,8,8,0,,,,,,,,,,,,,,,,,,,,,,,,,,,,,,,,,,,,,,,,,,,,,,,,,,,,,,,,,,,,,,,,,,,,,,,,,,,,,,,h,1617.7509420417005,None,1617.7509420417005,None,a,0,2.966460845484562,1617.7509420417005,None,o,0,1.365702400470127,1617.7509420417005,None,c,h,1620.7994197786575,None,1620.7994197786575,None,1622.7984513530532,None,None,None,None,None,None,None,None,,,,,,,,,,,,,,,,,,37_38Exp,001,2021_May_11_1040,ComputerHuman,2020.1.3,60.01083780258909,
Human.xlsx,h,Sychronize.jpg,Number6.jpg,6,Human,,,,,0,9,9,8,0,0,0,0,,,,,,,,,,,,,,,,,,,,,,,,,1627.816813587855,None,1627.816813587855,None,1630.8967803938567,None,1630.8967803938567,None,1631.3300057002066,None,1631.3300057002066,None,v,11.64966345686571,1631.3300057002066,None,t,6.0813445429907915,1631.3300057002066,None,11.64966345686571,6.0813445429907915,5.758482953519531,False,False,False,1643.0768016998613,None,1643.0768016998613,None,1643.0768016998613,None,1643.0768016998613,None,1643.0768016998613,None,1643.0768016998613,None,1643.0768016998613,None,1643.0768016998613,None,1644.0790455346087,None,1644.0790455346087,None,1645.0763060994777,None,1645.0763060994777,None,h,,,,,,,,,,,,,,,,,,,,,,,,,,,,,,,,,,,,,,,,,,,,,,,37_38Exp,001,2021_May_11_1040,ComputerHuman,2020.1.3,60.01083780258909,
Human.xlsx,h,Sychronize.jpg,Number7.jpg,7,Human,,,,,0,9,9,8,0,1,1,2,,,,,,,,,,,,,,,,,,,,,,,,,,,,,1646.12670946045,None,1646.12670946045,None,1646.5765372192682,None,1646.5765372192682,None,v,6.322407777429362,1646.5765372192682,None,t,7.533237463796468,1646.5765372192682,None,6.322407777429362,7.533237463796468,7.269958024462134,False,False,False,1654.2073123671385,None,1654.2073123671385,None,1654.2073123671385,None,1654.2073123671385,None,1654.2073123671385,None,1654.2073123671385,None,1654.2073123671385,None,1654.2073123671385,None,1655.176183530606,None,1655.176183530606,None,1656.1735759348003,None,1656.1735759348003,None,h,,,,,,,,,,,,,,,,,,,,,,,,,,,,,,,,,,,,,,,,,,,,,,,37_38Exp,001,2021_May_11_1040,ComputerHuman,2020.1.3,60.01083780258909,
Human.xlsx,h,Sychronize.jpg,Number8.jpg,8,Human,,,,,0,9,9,8,0,2,2,4,,,,,,,,,,,,,,,,,,,,,,,,,,,,,1657.2406622632548,None,1657.2406622632548,None,1657.6904807195415,None,1657.6904807195415,None,v,7.891428230488145,1657.6904807195415,None,t,8.322205687952646,1657.6904807195415,None,7.891428230488145,8.322205687952646,8.113826369733362,False,False,False,1666.1044032730797,None,1666.1044032730797,None,1666.1044032730797,None,1666.1044032730797,None,1666.1044032730797,None,1666.1044032730797,None,1666.1044032730797,None,1666.1044032730797,None,1667.0736070822418,None,1667.0736070822418,None,1668.0705965905904,None,1668.0705965905904,None,h,,,,,,,,,,,,,,,,,,,,,,,,,,,,,,,,,,,,,,,,,,,,,,,37_38Exp,001,2021_May_11_1040,ComputerHuman,2020.1.3,60.01083780258909,
Human.xlsx,h,Sychronize.jpg,Number9.jpg,9,Human,,,,,0,9,9,8,0,3,3,6,,,,,,,,,,,,,,,,,,,,,,,,,,,,,1669.1375161150322,None,1669.1375161150322,None,1669.5704883283706,None,1669.5704883283706,None,v,9.206380189329138,1669.5704883283706,None,t,10.246036239454952,1669.5704883283706,None,9.206380189329138,10.246036239454952,9.386796027188867,False,False,False,1679.9011224306169,None,1679.9011224306169,None,1679.9011224306169,None,1679.9011224306169,None,1679.9011224306169,None,1679.9011224306169,None,1679.9011224306169,None,1679.9011224306169,None,1680.8862550606573,None,1680.8862550606573,None,1681.8839355225505,None,1681.8839355225505,None,h,,,,,,,,,,,,,,,,,,,,,,,,,,,,,,,,,,,,,,,,,,,,,,,37_38Exp,001,2021_May_11_1040,ComputerHuman,2020.1.3,60.01083780258909,
Human.xlsx,h,Sychronize.jpg,Number8.jpg,8,Human,,,,,0,9,9,8,0,4,4,5,,,,,,,,,,,,,,,,,,,,,,,,,,,,,1682.9336591571714,None,1682.9336591571714,None,1683.3672681127505,None,1683.3672681127505,None,v,8.480695482915053,1683.3672681127505,None,t,9.052100591801263,1683.3672681127505,None,8.480695482915053,9.052100591801263,7.792245131647814,False,False,False,1692.5145842843035,None,1692.5145842843035,None,1692.5145842843035,None,1692.5145842843035,None,1692.5145842843035,None,1692.5145842843035,None,1692.5145842843035,None,1692.5145842843035,None,1693.5005073087427,None,1693.5005073087427,None,1694.4974506252106,None,1694.4974506252106,None,h,,,,,,,,,,,,,,,,,,,,,,,,,,,,,,,,,,,,,,,,,,,,,,,37_38Exp,001,2021_May_11_1040,ComputerHuman,2020.1.3,60.01083780258909,
Human.xlsx,h,Sychronize.jpg,Number10.jpg,10,Human,,,,,0,9,9,8,0,5,5,9,,,,,,,,,,,,,,,,,,,,,,,,,,,,,1695.5309480787228,None,1695.5309480787228,None,1695.9976480634218,None,1695.9976480634218,None,v,9.937277200361677,1695.9976480634218,None,t,8.760116903950802,1695.9976480634218,None,9.937277200361677,8.760116903950802,9.803038195823065,False,False,False,1706.0279178592887,None,1706.0279178592887,None,1706.0279178592887,None,1706.0279178592887,None,1706.0279178592887,None,1706.0279178592887,None,1706.0279178592887,None,1706.0279178592887,None,1707.0131698183536,None,1707.0131698183536,None,1708.0107723314486,None,1708.0107723314486,None,h,,,,,,,,,,,,,,,,,,,,,,,,,,,,,,,,,,,,,,,,,,,,,,,37_38Exp,001,2021_May_11_1040,ComputerHuman,2020.1.3,60.01083780258909,
Human.xlsx,h,Sychronize.jpg,Number6.jpg,6,Human,,,,,0,9,9,8,0,6,6,1,,,,,,,,,,,,,,,,,,,,,,,,,,,,,1709.0607019048698,None,1709.0607019048698,None,1709.5106390486271,None,1709.5106390486271,None,v,4.999441527334511,1709.5106390486271,None,t,7.042304063827032,1709.5106390486271,None,4.999441527334511,7.042304063827032,6.206539739740616,False,False,False,1716.6419891891755,None,1716.6419891891755,None,1716.6419891891755,None,1716.6419891891755,None,1716.6419891891755,None,1716.6419891891755,None,1716.6419891891755,None,1716.6419891891755,None,1717.6104256998792,None,1717.6104256998792,None,1718.608109369542,None,1718.608109369542,None,h,,,,,,,,,,,,,,,,,,,,,,,,,,,,,,,,,,,,,,,,,,,,,,,37_38Exp,001,2021_May_11_1040,ComputerHuman,2020.1.3,60.01083780258909,
Human.xlsx,h,Sychronize.jpg,Number7.jpg,7,Human,,,,,0,9,9,8,0,7,7,3,,,,,,,,,,,,,,,,,,,,,,,,,,,,,1719.6747180611214,None,1719.6747180611214,None,1720.108051148526,None,1720.108051148526,None,v,6.55706734166688,1720.108051148526,None,t,8.024215451761393,1720.108051148526,None,6.55706734166688,8.024215451761393,7.249415297759049,False,False,False,1728.20641162547,None,1728.20641162547,None,1728.20641162547,None,1728.20641162547,None,1728.20641162547,None,1728.20641162547,None,1728.20641162547,None,1728.20641162547,None,1729.207400901576,None,1729.207400901576,None,1730.2053103982093,None,1730.2053103982093,None,h,,,,,,,,,,,,,,,,,,,,,,,,,,,,,,,,,,,,,,,,,,,,,,,37_38Exp,001,2021_May_11_1040,ComputerHuman,2020.1.3,60.01083780258909,
Human.xlsx,h,Sychronize.jpg,Number9.jpg,9,Human,,,,,0,9,9,8,0,8,8,7,,,,,,,,,,,,,,,,,,,,,,,,,,,,,1731.2555126320358,None,1731.2555126320358,None,1731.7050998081436,None,1731.7050998081436,None,v,9.338951206939328,1731.7050998081436,None,t,9.878072361505474,1731.7050998081436,None,9.338951206939328,9.878072361505474,8.966690479343606,False,False,False,1741.6540183247039,None,1741.6540183247039,None,1741.6540183247039,None,1741.6540183247039,None,1741.6540183247039,None,1741.6540183247039,None,1741.6540183247039,None,1741.6540183247039,None,1742.6546608409299,None,1742.6546608409299,None,1743.6519037630665,None,1743.6519037630665,None,h,,,,,,,,,,,,,,,,,,,,,,,,,,,,,,,,,,,,,,,,,,,,,,,37_38Exp,001,2021_May_11_1040,ComputerHuman,2020.1.3,60.01083780258909,
Human.xlsx,h,Sychronize.jpg,Number10.jpg,10,Human,,,,,0,9,9,8,0,9,9,8,,,,,,,,,,,,,,,,,,,,,,,,,,,,,1744.7188640261807,None,1744.7188640261807,None,1745.1684489568497,None,1745.1684489568497,None,v,9.710475388228133,1745.1684489568497,None,t,11.370031926929641,1745.1684489568497,None,9.710475388228133,11.370031926929641,10.480243180168735,False,False,False,1756.6155250910124,None,1756.6155250910124,None,1756.6155250910124,None,1756.6155250910124,None,1756.6155250910124,None,1756.6155250910124,None,1756.6155250910124,None,1756.6155250910124,None,1757.616888393039,None,1757.616888393039,None,1758.6149188225818,None,1758.6149188225818,None,h,,,,,,,,,,,,,,,,,,,,,,,,,,,,,,,,,,,,,,,,,,,,,,,37_38Exp,001,2021_May_11_1040,ComputerHuman,2020.1.3,60.01083780258909,
Human.xlsx,h,,,,,,,,,0,9,9,8,,,,,,,,,,,,,,,,,,,,,,,,,,,,,,,,,,,,,,,,,,,,,,,,,,,,,,,,,,,,,,,,,,,,,,,,,,,,,,,h,1759.6156854794863,None,1759.6156854794863,None,q,1,4.5905275850532234,1759.6156854794863,None,o,0,1.3377502180483134,1759.6156854794863,None,h,h,1764.2971735380834,None,1764.2971735380834,None,None,None,1766.2963671048374,None,1766.2963671048374,None,"['space', 'space']",1767.2793514916611,None,"[301.32707059113727, 301.7910208758426]",,,,,,,,,,,,,,,,,37_38Exp,001,2021_May_11_1040,ComputerHuman,2020.1.3,60.01083780258909,
Computer.xlsx,c,Sychronize.jpg,Number6.jpg,6,Computer,,,,,1,0,10,5,0,0,0,0,,,,,,,,,,,,,,,,,,,,,,,,,2069.1246757346034,None,2069.1246757346034,None,2072.187311282912,None,2072.187311282912,None,2072.6209770160112,None,2072.6209770160112,None,v,5.868658520429108,2072.6209770160112,None,t,7.760212495481028,2072.6209770160112,None,5.868658520429108,7.760212495481028,5.833742785388285,False,True,False,2080.4534743511567,None,2080.4534743511567,None,2080.4534743511567,None,2080.4534743511567,None,2080.4534743511567,None,2080.4534743511567,None,2080.4534743511567,None,2080.4534743511567,None,2081.4852649505315,None,2081.4852649505315,None,2082.4683946493124,None,2082.4683946493124,None,c,,,,,,,,,,,,,,,,,,,,,,,,,,,,,,,,,,,,,,,,,,,,,,,37_38Exp,001,2021_May_11_1040,ComputerHuman,2020.1.3,60.01083780258909,
Computer.xlsx,c,Sychronize.jpg,Number9.jpg,9,Computer,,,,,1,0,10,5,0,1,1,7,,,,,,,,,,,,,,,,,,,,,,,,,,,,,2083.5184397024345,None,2083.5184397024345,None,2083.9508011564653,None,2083.9508011564653,None,v,8.441797428715745,2083.9508011564653,None,t,12.117046375685277,2083.9508011564653,None,8.441797428715745,12.117046375685277,8.511852932641144,False,True,False,2096.1649608283233,None,2096.1649608283233,None,2096.1649608283233,None,2096.1649608283233,None,2096.1649608283233,None,2096.1649608283233,None,2096.1649608283233,None,2096.1649608283233,None,2097.1647006782187,None,2097.1647006782187,None,2098.1478371133157,None,2098.1478371133157,None,c,,,,,,,,,,,,,,,,,,,,,,,,,,,,,,,,,,,,,,,,,,,,,,,37_38Exp,001,2021_May_11_1040,ComputerHuman,2020.1.3,60.01083780258909,
Computer.xlsx,c,Sychronize.jpg,Number8.jpg,8,Computer,,,,,1,0,10,5,0,2,2,4,,,,,,,,,,,,,,,,,,,,,,,,,,,,,2099.1972383671045,None,2099.1972383671045,None,2099.631295127302,None,2099.631295127302,None,v,6.976101796639341,2099.631295127302,None,t,10.562987921785407,2099.631295127302,None,6.976101796639341,10.562987921785407,8.061862323435076,False,False,False,2110.2631670115557,None,2110.2631670115557,None,2110.2631670115557,None,2110.2631670115557,None,2110.2631670115557,None,2110.2631670115557,None,2110.2631670115557,None,2110.2631670115557,None,2111.2779342991075,None,2111.2779342991075,None,2112.261058223903,None,2112.261058223903,None,c,,,,,,,,,,,,,,,,,,,,,,,,,,,,,,,,,,,,,,,,,,,,,,,37_38Exp,001,2021_May_11_1040,ComputerHuman,2020.1.3,60.01083780258909,
Computer.xlsx,c,Sychronize.jpg,Number10.jpg,10,Computer,,,,,1,0,10,5,0,3,3,9,,,,,,,,,,,,,,,,,,,,,,,,,,,,,2113.3111087302336,None,2113.3111087302336,None,2113.761055818076,None,2113.761055818076,None,v,9.641059577581473,2113.761055818076,None,None,,2113.761055818076,None,9.641059577581473,13,9.905403234106613,False,True,False,2126.825152184603,None,2126.825152184603,None,2126.825152184603,None,2126.825152184603,None,2126.825152184603,None,2126.825152184603,None,2126.825152184603,None,2126.825152184603,None,2127.840525099032,None,2127.840525099032,None,2128.823586151546,None,2128.823586151546,None,c,,,,,,,,,,,,,,,,,,,,,,,,,,,,,,,,,,,,,,,,,,,,,,,37_38Exp,001,2021_May_11_1040,ComputerHuman,2020.1.3,60.01083780258909,
Computer.xlsx,c,Sychronize.jpg,Number7.jpg,7,Computer,,,,,1,0,10,5,0,4,4,2,,,,,,,,,,,,,,,,,,,,,,,,,,,,,2129.8736966431657,None,2129.8736966431657,None,2130.323778778103,None,2130.323778778103,None,v,7.413242185632953,2130.323778778103,None,t,7.684265345407766,2130.323778778103,None,7.413242185632953,7.684265345407766,7.126837112660239,False,True,False,2138.0729940774954,None,2138.0729940774954,None,2138.0729940774954,None,2138.0729940774954,None,2138.0729940774954,None,2138.0729940774954,None,2138.0729940774954,None,2138.0729940774954,None,2139.0876737929407,None,2139.0876737929407,None,2140.0874303232376,None,2140.0874303232376,None,c,,,,,,,,,,,,,,,,,,,,,,,,,,,,,,,,,,,,,,,,,,,,,,,37_38Exp,001,2021_May_11_1040,ComputerHuman,2020.1.3,60.01083780258909,
Computer.xlsx,c,Sychronize.jpg,Number8.jpg,8,Computer,,,,,1,0,10,5,0,5,5,5,,,,,,,,,,,,,,,,,,,,,,,,,,,,,2141.1378426659644,None,2141.1378426659644,None,2141.5874946390154,None,2141.5874946390154,None,None,,2141.5874946390154,None,t,8.304272652706459,2141.5874946390154,None,13,8.304272652706459,7.913612030454591,False,False,False,2154.6672131636597,None,2154.6672131636597,None,2154.6672131636597,None,2154.6672131636597,None,2154.6672131636597,None,2154.6672131636597,None,2154.6672131636597,None,2154.6672131636597,None,2155.650333880686,None,2155.650333880686,None,2156.6333917254306,None,2156.6333917254306,None,c,,,,,,,,,,,,,,,,,,,,,,,,,,,,,,,,,,,,,,,,,,,,,,,37_38Exp,001,2021_May_11_1040,ComputerHuman,2020.1.3,60.01083780258909,
Computer.xlsx,c,Sychronize.jpg,Number7.jpg,7,Computer,,,,,1,0,10,5,0,6,6,3,,,,,,,,,,,,,,,,,,,,,,,,,,,,,2157.6999539043527,None,2157.6999539043527,None,2158.1498827079095,None,2158.1498827079095,None,v,6.52101169199932,2158.1498827079095,None,t,7.9121667809167775,2158.1498827079095,None,6.52101169199932,7.9121667809167775,7.484022526510697,False,False,False,2166.132812562652,None,2166.132812562652,None,2166.132812562652,None,2166.132812562652,None,2166.132812562652,None,2166.132812562652,None,2166.132812562652,None,2166.132812562652,None,2167.1307791575823,None,2167.1307791575823,None,2168.113821284256,None,2168.113821284256,None,c,,,,,,,,,,,,,,,,,,,,,,,,,,,,,,,,,,,,,,,,,,,,,,,37_38Exp,001,2021_May_11_1040,ComputerHuman,2020.1.3,60.01083780258909,
Computer.xlsx,c,Sychronize.jpg,Number6.jpg,6,Computer,,,,,1,0,10,5,0,7,7,1,,,,,,,,,,,,,,,,,,,,,,,,,,,,,2169.1637316110605,None,2169.1637316110605,None,2169.6137130220363,None,2169.6137130220363,None,v,6.476291536203917,2169.6137130220363,None,t,6.0433764211620655,2169.6137130220363,None,6.476291536203917,6.0433764211620655,5.690550571755331,False,False,False,2176.1785229568836,None,2176.1785229568836,None,2176.1785229568836,None,2176.1785229568836,None,2176.1785229568836,None,2176.1785229568836,None,2176.1785229568836,None,2176.1785229568836,None,2177.178221426553,None,2177.178221426553,None,2178.1613710135043,None,2178.1613710135043,None,c,,,,,,,,,,,,,,,,,,,,,,,,,,,,,,,,,,,,,,,,,,,,,,,37_38Exp,001,2021_May_11_1040,ComputerHuman,2020.1.3,60.01083780258909,
Computer.xlsx,c,Sychronize.jpg,Number10.jpg,10,Computer,,,,,1,0,10,5,0,8,8,8,,,,,,,,,,,,,,,,,,,,,,,,,,,,,2179.2116194392115,None,2179.2116194392115,None,2179.6615341285824,None,2179.6615341285824,None,v,10.775430474644054,2179.6615341285824,None,t,9.270972156240077,2179.6615341285824,None,10.775430474644054,9.270972156240077,9.597063791944311,False,False,False,2190.50991473428,None,2190.50991473428,None,2190.50991473428,None,2190.50991473428,None,2190.50991473428,None,2190.50991473428,None,2190.50991473428,None,2190.50991473428,None,2191.5248058417333,None,2191.5248058417333,None,2192.50790442515,None,2192.50790442515,None,c,,,,,,,,,,,,,,,,,,,,,,,,,,,,,,,,,,,,,,,,,,,,,,,37_38Exp,001,2021_May_11_1040,ComputerHuman,2020.1.3,60.01083780258909,
Computer.xlsx,c,Sychronize.jpg,Number9.jpg,9,Computer,,,,,1,0,10,5,0,9,9,6,,,,,,,,,,,,,,,,,,,,,,,,,,,,,2193.5578641516045,None,2193.5578641516045,None,2194.0078199004247,None,2194.0078199004247,None,v,8.06016075415937,2194.0078199004247,None,t,8.631165533415242,2194.0078199004247,None,8.06016075415937,8.631165533415242,9.444216223752905,False,False,False,2202.722064738562,None,2202.722064738562,None,2202.722064738562,None,2202.722064738562,None,2202.722064738562,None,2202.722064738562,None,2202.722064738562,None,2202.722064738562,None,2203.705084090073,None,2203.705084090073,None,2204.688193259129,None,2204.688193259129,None,c,,,,,,,,,,,,,,,,,,,,,,,,,,,,,,,,,,,,,,,,,,,,,,,37_38Exp,001,2021_May_11_1040,ComputerHuman,2020.1.3,60.01083780258909,
Computer.xlsx,c,,,,,,,,,1,0,10,5,,,,,,,,,,,,,,,,,,,,,,,,,,,,,,,,,,,,,,,,,,,,,,,,,,,,,,,,,,,,,,,,,,,,,,,,,,,,,,,c,2205.6888226235,None,2205.6888226235,None,q,0,2.678679335645029,2205.6888226235,None,o,0,1.4457314371993562,2205.6888226235,None,h,h,2208.4543596955314,None,2208.4543596955314,None,2210.4534628031865,None,None,None,None,None,None,None,None,,,,,,,,,,,,,,,,,,37_38Exp,001,2021_May_11_1040,ComputerHuman,2020.1.3,60.01083780258909,
Human.xlsx,h,Sychronize.jpg,Number9.jpg,9,Human,,,,,1,1,11,8,0,0,0,7,,,,,,,,,,,,,,,,,,,,,,,,,2215.455393559633,None,2215.455393559633,None,2218.535590041929,None,2218.535590041929,None,2218.951686180063,None,2218.951686180063,None,v,9.82622325883085,2218.951686180063,None,t,8.817120571393843,2218.951686180063,None,9.82622325883085,8.817120571393843,8.906082433248995,False,False,False,2228.8655376815077,None,2228.8655376815077,None,2228.8655376815077,None,2228.8655376815077,None,2228.8655376815077,None,2228.8655376815077,None,2228.8655376815077,None,2228.8655376815077,None,2229.8672868782023,None,2229.8672868782023,None,2230.8650561953095,None,2230.8650561953095,None,h,,,,,,,,,,,,,,,,,,,,,,,,,,,,,,,,,,,,,,,,,,,,,,,37_38Exp,001,2021_May_11_1040,ComputerHuman,2020.1.3,60.01083780258909,
Human.xlsx,h,Sychronize.jpg,Number7.jpg,7,Human,,,,,1,1,11,8,0,1,1,2,,,,,,,,,,,,,,,,,,,,,,,,,,,,,2231.9161845121835,None,2231.9161845121835,None,2232.3649492161976,None,2232.3649492161976,None,v,7.116098159028752,2232.3649492161976,None,t,7.159248753220254,2232.3649492161976,None,7.116098159028752,7.159248753220254,7.075777549309327,True,False,False,2239.580908125954,None,2239.580908125954,None,2239.580908125954,None,2239.580908125954,None,2239.580908125954,None,2239.580908125954,None,2239.580908125954,None,2239.580908125954,None,2240.5987574384167,None,2240.5987574384167,None,2241.5957559285193,None,2241.5957559285193,None,h,,,,,,,,,,,,,,,,,,,,,,,,,,,,,,,,,,,,,,,,,,,,,,,37_38Exp,001,2021_May_11_1040,ComputerHuman,2020.1.3,60.01083780258909,
Human.xlsx,h,Sychronize.jpg,Number10.jpg,10,Human,,,,,1,1,11,8,0,2,2,9,,,,,,,,,,,,,,,,,,,,,,,,,,,,,2242.645837229437,None,2242.645837229437,None,2243.0960149559046,None,2243.0960149559046,None,v,9.164056878884821,2243.0960149559046,None,t,9.691083138648537,2243.0960149559046,None,9.164056878884821,9.691083138648537,9.341290312199055,False,False,False,2252.876313541503,None,2252.876313541503,None,2252.876313541503,None,2252.876313541503,None,2252.876313541503,None,2252.876313541503,None,2252.876313541503,None,2252.876313541503,None,2253.8443606289925,None,2253.8443606289925,None,2254.842489537058,None,2254.842489537058,None,h,,,,,,,,,,,,,,,,,,,,,,,,,,,,,,,,,,,,,,,,,,,,,,,37_38Exp,001,2021_May_11_1040,ComputerHuman,2020.1.3,60.01083780258909,
Human.xlsx,h,Sychronize.jpg,Number8.jpg,8,Human,,,,,1,1,11,8,0,3,3,5,,,,,,,,,,,,,,,,,,,,,,,,,,,,,2255.925893468051,None,2255.925893468051,None,2256.342708467325,None,2256.342708467325,None,v,9.560302697958832,2256.342708467325,None,t,7.283240912148358,2256.342708467325,None,9.560302697958832,7.283240912148358,7.613655024279522,False,False,False,2265.989749572645,None,2265.989749572645,None,2265.989749572645,None,2265.989749572645,None,2265.989749572645,None,2265.989749572645,None,2265.989749572645,None,2265.989749572645,None,2266.958809673735,None,2266.958809673735,None,2267.955945456371,None,2267.955945456371,None,h,,,,,,,,,,,,,,,,,,,,,,,,,,,,,,,,,,,,,,,,,,,,,,,37_38Exp,001,2021_May_11_1040,ComputerHuman,2020.1.3,60.01083780258909,
Human.xlsx,h,Sychronize.jpg,Number7.jpg,7,Human,,,,,1,1,11,8,0,4,4,3,,,,,,,,,,,,,,,,,,,,,,,,,,,,,2269.0234340391175,None,2269.0234340391175,None,2269.455868309515,None,2269.455868309515,None,v,7.546326767136179,2269.455868309515,None,t,6.597295016313183,2269.455868309515,None,7.546326767136179,6.597295016313183,6.589332132448766,False,False,False,2277.0713414346624,None,2277.0713414346624,None,2277.0713414346624,None,2277.0713414346624,None,2277.0713414346624,None,2277.0713414346624,None,2277.0713414346624,None,2277.0713414346624,None,2278.0728461993226,None,2278.0728461993226,None,2279.069894089075,None,2279.069894089075,None,h,,,,,,,,,,,,,,,,,,,,,,,,,,,,,,,,,,,,,,,,,,,,,,,37_38Exp,001,2021_May_11_1040,ComputerHuman,2020.1.3,60.01083780258909,
Human.xlsx,h,Sychronize.jpg,Number8.jpg,8,Human,,,,,1,1,11,8,0,5,5,4,,,,,,,,,,,,,,,,,,,,,,,,,,,,,2280.1042399976136,None,2280.1042399976136,None,2280.5700616950303,None,2280.5700616950303,None,v,8.09518382283386,2280.5700616950303,None,t,7.1303040869229335,2280.5700616950303,None,8.09518382283386,7.1303040869229335,7.9007988727421194,False,False,False,2288.7192396559863,None,2288.7192396559863,None,2288.7192396559863,None,2288.7192396559863,None,2288.7192396559863,None,2288.7192396559863,None,2288.7192396559863,None,2288.7192396559863,None,2289.719727557723,None,2289.719727557723,None,2290.733598273707,None,2290.733598273707,None,h,,,,,,,,,,,,,,,,,,,,,,,,,,,,,,,,,,,,,,,,,,,,,,,37_38Exp,001,2021_May_11_1040,ComputerHuman,2020.1.3,60.01083780258909,
Human.xlsx,h,Sychronize.jpg,Number9.jpg,9,Human,,,,,1,1,11,8,0,6,6,6,,,,,,,,,,,,,,,,,,,,,,,,,,,,,2291.783406593442,None,2291.783406593442,None,2292.233600358757,None,2292.233600358757,None,v,9.06662120188048,2292.233600358757,None,t,9.062096643037421,2292.233600358757,None,9.06662120188048,9.062096643037421,8.83773362574342,True,False,False,2301.397592440699,None,2301.397592440699,None,2301.397592440699,None,2301.397592440699,None,2301.397592440699,None,2301.397592440699,None,2301.397592440699,None,2301.397592440699,None,2302.3670047548767,None,2302.3670047548767,None,2303.3638826328474,None,2303.3638826328474,None,h,,,,,,,,,,,,,,,,,,,,,,,,,,,,,,,,,,,,,,,,,,,,,,,37_38Exp,001,2021_May_11_1040,ComputerHuman,2020.1.3,60.01083780258909,
Human.xlsx,h,Sychronize.jpg,Number6.jpg,6,Human,,,,,1,1,11,8,0,7,7,1,,,,,,,,,,,,,,,,,,,,,,,,,,,,,2304.3976399156873,None,2304.3976399156873,None,2304.8638054859916,None,2304.8638054859916,None,v,5.839786991276014,2304.8638054859916,None,t,5.795353610072198,2304.8638054859916,None,5.839786991276014,5.795353610072198,5.8202136945649645,True,False,False,2310.7805253749,None,2310.7805253749,None,2310.7805253749,None,2310.7805253749,None,2310.7805253749,None,2310.7805253749,None,2310.7805253749,None,2310.7805253749,None,2311.7808349246543,None,2311.7808349246543,None,2312.7781991004777,None,2312.7781991004777,None,h,,,,,,,,,,,,,,,,,,,,,,,,,,,,,,,,,,,,,,,,,,,,,,,37_38Exp,001,2021_May_11_1040,ComputerHuman,2020.1.3,60.01083780258909,
Human.xlsx,h,Sychronize.jpg,Number10.jpg,10,Human,,,,,1,1,11,8,0,8,8,8,,,,,,,,,,,,,,,,,,,,,,,,,,,,,2313.8277860841185,None,2313.8277860841185,None,2314.277996209058,None,2314.277996209058,None,v,8.95257505298423,2314.277996209058,None,t,10.335988511053074,2314.277996209058,None,8.95257505298423,10.335988511053074,10.10070222148941,False,False,False,2324.693391128785,None,2324.693391128785,None,2324.693391128785,None,2324.693391128785,None,2324.693391128785,None,2324.693391128785,None,2324.693391128785,None,2324.693391128785,None,2325.69408625243,None,2325.69408625243,None,2326.6914090480273,None,2326.6914090480273,None,h,,,,,,,,,,,,,,,,,,,,,,,,,,,,,,,,,,,,,,,,,,,,,,,37_38Exp,001,2021_May_11_1040,ComputerHuman,2020.1.3,60.01083780258909,
Human.xlsx,h,Sychronize.jpg,Number6.jpg,6,Human,,,,,1,1,11,8,0,9,9,0,,,,,,,,,,,,,,,,,,,,,,,,,,,,,2327.7413376591176,None,2327.7413376591176,None,2328.191420435609,None,2328.191420435609,None,v,5.850261962494187,2328.191420435609,None,t,5.785493889039117,2328.191420435609,None,5.850261962494187,5.785493889039117,6.3390594102689,True,False,False,2334.124618636307,None,2334.124618636307,None,2334.124618636307,None,2334.124618636307,None,2334.124618636307,None,2334.124618636307,None,2334.124618636307,None,2334.124618636307,None,2335.1077874698753,None,2335.1077874698753,None,2336.1057585556828,None,2336.1057585556828,None,h,,,,,,,,,,,,,,,,,,,,,,,,,,,,,,,,,,,,,,,,,,,,,,,37_38Exp,001,2021_May_11_1040,ComputerHuman,2020.1.3,60.01083780258909,
Human.xlsx,h,,,,,,,,,1,1,11,8,,,,,,,,,,,,,,,,,,,,,,,,,,,,,,,,,,,,,,,,,,,,,,,,,,,,,,,,,,,,,,,,,,,,,,,,,,,,,,,h,2337.1065723667984,None,2337.1065723667984,None,q,0,1.7667149649823841,2337.1065723667984,None,l,0,1.8577136109829553,2337.1065723667984,None,h,c,2339.038789952368,None,2339.038789952368,None,2341.0544852476287,None,None,None,None,None,None,None,None,,,,,,,,,,,,,,,,,,37_38Exp,001,2021_May_11_1040,ComputerHuman,2020.1.3,60.01083780258909,
