Condition,CorrectTuringReply,Sychronize,NumberImage,Number,Partner,trials.thisRepN,trials.thisTrialN,trials.thisN,trials.thisIndex,Block.thisRepN,Block.thisTrialN,Block.thisN,Block.thisIndex,trials_loop.thisRepN,trials_loop.thisTrialN,trials_loop.thisN,trials_loop.thisIndex,key_resp_Istr.keys,key_resp_Istr.rt,key_resp_Istr.started,key_resp_Istr.stopped,key_respPrLeft.keys,key_respPrLeft.rt,key_respPrRight.keys,RTPrLeft,RTPrRight,CompPr,SychronizedRTsPr,SychronizedRTsLeftCPr,SychronizedRTsRightCPr,CreditLeftPr.started,CreditLeftPr.stopped,CreditRightPr.started,CreditRightPr.stopped,key_respPrRight.rt,text_StartExp.started,text_StartExp.stopped,key_startExp.keys,key_startExp.rt,key_startExp.started,key_startExp.stopped,SychroLeft.started,SychroLeft.stopped,SychroRight.started,SychroRight.stopped,NumberLeft.started,NumberLeft.stopped,NumberRight.started,NumberRight.stopped,CrossLeft.started,CrossLeft.stopped,CrossRight.started,CrossRight.stopped,key_respLeft.keys,key_respLeft.rt,key_respLeft.started,key_respLeft.stopped,key_respRight.keys,key_respRight.rt,key_respRight.started,key_respRight.stopped,RTLeft,RTRight,Comp,SychronizedRTs,SychronizedRTsLeftC,SychronizedRTsRightC,FeedbackLeftLeft.started,FeedbackLeftLeft.stopped,FeedbackLeftRight.started,FeedbackLeftRight.stopped,FeedbackRightLeft.started,FeedbackRightLeft.stopped,FeedbackRightRight.started,FeedbackRightRight.stopped,textLeftLeft.started,textLeftLeft.stopped,textLeftRight.started,textLeftRight.stopped,textRightLeft.started,textRightLeft.stopped,textRightRight.started,textRightRight.stopped,CreditLeft.started,CreditLeft.stopped,CreditRight.started,CreditRight.stopped,BlankLeft.started,BlankLeft.stopped,BlankRight.started,BlankRight.stopped,CorrectTuringReply,TuringtextLeft.started,TuringtextLeft.stopped,TuringtextRight.started,TuringtextRight.stopped,keyTuringLeft.keys,keyTuringLeft.corr,keyTuringLeft.rt,keyTuringLeft.started,keyTuringLeft.stopped,keyTuringRight.keys,keyTuringRight.corr,keyTuringRight.rt,keyTuringRight.started,keyTuringRight.stopped,RespTuringLeft,RespTuringRight,ScoreLeft.started,ScoreLeft.stopped,ScoreRight.started,ScoreRight.stopped,BlockText.started,BlockText.stopped,text_Pause.started,text_Pause.stopped,text_LongPause.started,text_LongPause.stopped,key_respPause.keys,key_respPause.started,key_respPause.stopped,key_respPause.rt,QuestImageLeft.started,QuestImageLeft.stopped,QuestImageRight.started,QuestImageRight.stopped,respQuestLeft.keys,respQuestLeft.rt,respQuestLeft.started,respQuestLeft.stopped,respQuestRight.keys,respQuestRight.rt,respQuestRight.started,respQuestRight.stopped,RespInclusionLeft,RespInclusionRight,EndText.started,EndText.stopped,participant,session,date,expName,psychopyVersion,frameRate,
,,,,,,,,,,,,,,,,,,"['v', 'v', 't']","[87.05064984850503, 99.45835243394458, 282.37380395956075]",21.149871762586827,None,,,,,,,,,,,,,,,,,,,,,,,,,,,,,,,,,,,,,,,,,,,,,,,,,,,,,,,,,,,,,,,,,,,,,,,,,,,,,,,,,,,,,,,,,,,,,,,,,,,,,,,,,,,,,,,,,,,,,,39_40Exp,001,2021_May_12_1112,ComputerHuman,2020.1.3,59.99170541323634,
,,,,,,,,,,,,,,,,,,,,,,v,9.291664648337473,t,9.291664648337473,9.006703953625902,8,False,False,False,382.3299648890936,None,382.3299648890936,None,9.006703953625902,383.3297801117326,None,"['space', 'space']","[85.4186333211967, 88.17060403911773]",384.3129127616678,None,,,,,,,,,,,,,,,,,,,,,,,,,,,,,,,,,,,,,,,,,,,,,,,,,,,,,,,,,,,,,,,,,,,,,,,,,,,,,,,,,,,,,,,,,,,,,,,,,,39_40Exp,001,2021_May_12_1112,ComputerHuman,2020.1.3,59.99170541323634,
Computer.xlsx,c,Sychronize.jpg,Number8.jpg,8,Computer,,,,,0,0,0,9,0,0,0,5,,,,,,,,,,,,,,,,,,,,,,,,,472.58151937676143,None,472.58151937676143,None,475.629184236823,None,475.629184236823,None,476.06222698423153,None,476.06222698423153,None,v,6.848930392507555,476.06222698423153,None,t,7.200721144978161,476.06222698423153,None,6.848930392507555,7.200721144978161,8.477729613666837,False,False,False,483.344425963144,None,483.344425963144,None,483.344425963144,None,483.344425963144,None,483.344425963144,None,483.344425963144,None,483.344425963144,None,483.344425963144,None,484.360235655294,None,484.360235655294,None,485.3601214526195,None,485.3601214526195,None,c,,,,,,,,,,,,,,,,,,,,,,,,,,,,,,,,,,,,,,,,,,,,,,,39_40Exp,001,2021_May_12_1112,ComputerHuman,2020.1.3,59.99170541323634,
Computer.xlsx,c,Sychronize.jpg,Number6.jpg,6,Computer,,,,,0,0,0,9,0,1,1,1,,,,,,,,,,,,,,,,,,,,,,,,,,,,,486.4101223348032,None,486.4101223348032,None,486.84345957113055,None,486.84345957113055,None,None,,486.84345957113055,None,t,7.790687990915103,486.84345957113055,None,13,7.790687990915103,6.215290162544701,False,False,False,499.908689829065,None,499.908689829065,None,499.908689829065,None,499.908689829065,None,499.908689829065,None,499.908689829065,None,499.908689829065,None,499.908689829065,None,500.90710959767625,None,500.90710959767625,None,501.8901787303935,None,501.8901787303935,None,c,,,,,,,,,,,,,,,,,,,,,,,,,,,,,,,,,,,,,,,,,,,,,,,39_40Exp,001,2021_May_12_1112,ComputerHuman,2020.1.3,59.99170541323634,
Computer.xlsx,c,Sychronize.jpg,Number7.jpg,7,Computer,,,,,0,0,0,9,0,2,2,3,,,,,,,,,,,,,,,,,,,,,,,,,,,,,502.9570315645285,None,502.9570315645285,None,503.3902494654769,None,503.3902494654769,None,v,5.944323629848441,503.3902494654769,None,t,10.599706794257145,503.3902494654769,None,5.944323629848441,10.599706794257145,6.858160938227185,False,False,False,514.0878308388924,None,514.0878308388924,None,514.0878308388924,None,514.0878308388924,None,514.0878308388924,None,514.0878308388924,None,514.0878308388924,None,514.0878308388924,None,515.0709381460993,None,515.0709381460993,None,516.0541846779149,None,516.0541846779149,None,c,,,,,,,,,,,,,,,,,,,,,,,,,,,,,,,,,,,,,,,,,,,,,,,39_40Exp,001,2021_May_12_1112,ComputerHuman,2020.1.3,59.99170541323634,
Computer.xlsx,c,Sychronize.jpg,Number9.jpg,9,Computer,,,,,0,0,0,9,0,3,3,7,,,,,,,,,,,,,,,,,,,,,,,,,,,,,517.1048531324736,None,517.1048531324736,None,517.554373465201,None,517.554373465201,None,v,8.83172556712384,517.554373465201,None,None,,517.554373465201,None,8.83172556712384,13,8.38773607175598,False,False,False,530.6346005232151,None,530.6346005232151,None,530.6346005232151,None,530.6346005232151,None,530.6346005232151,None,530.6346005232151,None,530.6346005232151,None,530.6346005232151,None,531.6344228033229,None,531.6344228033229,None,532.6010153131031,None,532.6010153131031,None,c,,,,,,,,,,,,,,,,,,,,,,,,,,,,,,,,,,,,,,,,,,,,,,,39_40Exp,001,2021_May_12_1112,ComputerHuman,2020.1.3,59.99170541323634,
Computer.xlsx,c,Sychronize.jpg,Number8.jpg,8,Computer,,,,,0,0,0,9,0,4,4,4,,,,,,,,,,,,,,,,,,,,,,,,,,,,,533.6679951816736,None,533.6679951816736,None,534.1010504400492,None,534.1010504400492,None,v,7.228666796053403,534.1010504400492,None,t,10.283624587579197,534.1010504400492,None,7.228666796053403,10.283624587579197,7.833271746411121,False,False,False,544.4818278202206,None,544.4818278202206,None,544.4818278202206,None,544.4818278202206,None,544.4818278202206,None,544.4818278202206,None,544.4818278202206,None,544.4818278202206,None,545.4816395141254,None,545.4816395141254,None,546.4649178045499,None,546.4649178045499,None,c,,,,,,,,,,,,,,,,,,,,,,,,,,,,,,,,,,,,,,,,,,,,,,,39_40Exp,001,2021_May_12_1112,ComputerHuman,2020.1.3,59.99170541323634,
Computer.xlsx,c,Sychronize.jpg,Number10.jpg,10,Computer,,,,,0,0,0,9,0,5,5,9,,,,,,,,,,,,,,,,,,,,,,,,,,,,,547.5149183659394,None,547.5149183659394,None,547.9484506450367,None,547.9484506450367,None,v,8.51293008454536,547.9484506450367,None,t,8.539699704709165,547.9484506450367,None,8.51293008454536,8.539699704709165,9.672245510919709,False,False,False,556.5796199553135,None,556.5796199553135,None,556.5796199553135,None,556.5796199553135,None,556.5796199553135,None,556.5796199553135,None,556.5796199553135,None,556.5796199553135,None,557.5794354987465,None,557.5794354987465,None,558.5622743013507,None,558.5622743013507,None,c,,,,,,,,,,,,,,,,,,,,,,,,,,,,,,,,,,,,,,,,,,,,,,,39_40Exp,001,2021_May_12_1112,ComputerHuman,2020.1.3,59.99170541323634,
Computer.xlsx,c,Sychronize.jpg,Number9.jpg,9,Computer,,,,,0,0,0,9,0,6,6,6,,,,,,,,,,,,,,,,,,,,,,,,,,,,,559.612599827092,None,559.612599827092,None,560.0627954312515,None,560.0627954312515,None,v,7.770298643201613,560.0627954312515,None,t,11.845607607951251,560.0627954312515,None,7.770298643201613,11.845607607951251,9.386500967467132,False,False,False,571.9932739115859,None,571.9932739115859,None,571.9932739115859,None,571.9932739115859,None,571.9932739115859,None,571.9932739115859,None,571.9932739115859,None,571.9932739115859,None,572.9930833599326,None,572.9930833599326,None,573.9762589962677,None,573.9762589962677,None,c,,,,,,,,,,,,,,,,,,,,,,,,,,,,,,,,,,,,,,,,,,,,,,,39_40Exp,001,2021_May_12_1112,ComputerHuman,2020.1.3,59.99170541323634,
Computer.xlsx,c,Sychronize.jpg,Number7.jpg,7,Computer,,,,,0,0,0,9,0,7,7,2,,,,,,,,,,,,,,,,,,,,,,,,,,,,,575.02594132998,None,575.02594132998,None,575.476503280921,None,575.476503280921,None,v,5.552274189072705,575.476503280921,None,t,8.763801280930693,575.476503280921,None,5.552274189072705,8.763801280930693,7.1268873613418835,False,False,False,584.3087517423126,None,584.3087517423126,None,584.3087517423126,None,584.3087517423126,None,584.3087517423126,None,584.3087517423126,None,584.3087517423126,None,584.3087517423126,None,585.3075118733891,None,585.3075118733891,None,586.2905842140467,None,586.2905842140467,None,c,,,,,,,,,,,,,,,,,,,,,,,,,,,,,,,,,,,,,,,,,,,,,,,39_40Exp,001,2021_May_12_1112,ComputerHuman,2020.1.3,59.99170541323634,
Computer.xlsx,c,Sychronize.jpg,Number6.jpg,6,Computer,,,,,0,0,0,9,0,8,8,0,,,,,,,,,,,,,,,,,,,,,,,,,,,,,587.3573712854056,None,587.3573712854056,None,587.7904393755423,None,587.7904393755423,None,v,5.158039820162912,587.7904393755423,None,t,6.929742578831338,587.7904393755423,None,5.158039820162912,6.929742578831338,6.409715183490471,False,False,False,594.7902943766412,None,594.7902943766412,None,594.7902943766412,None,594.7902943766412,None,594.7902943766412,None,594.7902943766412,None,594.7902943766412,None,594.7902943766412,None,595.8053842069892,None,595.8053842069892,None,596.7884940805482,None,596.7884940805482,None,c,,,,,,,,,,,,,,,,,,,,,,,,,,,,,,,,,,,,,,,,,,,,,,,39_40Exp,001,2021_May_12_1112,ComputerHuman,2020.1.3,59.99170541323634,
Computer.xlsx,c,Sychronize.jpg,Number10.jpg,10,Computer,,,,,0,0,0,9,0,9,9,8,,,,,,,,,,,,,,,,,,,,,,,,,,,,,597.8229104679904,None,597.8229104679904,None,598.2720227507127,None,598.2720227507127,None,v,7.936190218027832,598.2720227507127,None,t,11.16363029771287,598.2720227507127,None,7.936190218027832,11.16363029771287,9.257710585723258,False,False,False,609.5031349596522,None,609.5031349596522,None,609.5031349596522,None,609.5031349596522,None,609.5031349596522,None,609.5031349596522,None,609.5031349596522,None,609.5031349596522,None,610.519150922363,None,610.519150922363,None,611.5022909505608,None,611.5022909505608,None,c,,,,,,,,,,,,,,,,,,,,,,,,,,,,,,,,,,,,,,,,,,,,,,,39_40Exp,001,2021_May_12_1112,ComputerHuman,2020.1.3,59.99170541323634,
Computer.xlsx,c,,,,,,,,,0,0,0,9,,,,,,,,,,,,,,,,,,,,,,,,,,,,,,,,,,,,,,,,,,,,,,,,,,,,,,,,,,,,,,,,,,,,,,,,,,,,,,,c,612.503319095425,None,612.503319095425,None,a,1,15.184484475974841,612.503319095425,None,o,0,10.719685044421794,612.503319095425,None,c,h,627.799398190401,None,627.799398190401,None,629.782095202044,None,None,None,None,None,None,None,None,,,,,,,,,,,,,,,,,,39_40Exp,001,2021_May_12_1112,ComputerHuman,2020.1.3,59.99170541323634,
Human.xlsx,h,Sychronize.jpg,Number7.jpg,7,Human,,,,,0,1,1,6,0,0,0,2,,,,,,,,,,,,,,,,,,,,,,,,,634.7674445387222,None,634.7674445387222,None,637.8481665819236,None,637.8481665819236,None,638.2975679000663,None,638.2975679000663,None,v,5.293647155439203,638.2975679000663,None,t,7.908728003554415,638.2975679000663,None,5.293647155439203,7.908728003554415,6.500522975243499,False,False,False,646.2793865776571,None,646.2793865776571,None,646.2793865776571,None,646.2793865776571,None,646.2793865776571,None,646.2793865776571,None,646.2793865776571,None,646.2793865776571,None,647.2978829198032,None,647.2978829198032,None,648.2785053564583,None,648.2785053564583,None,h,,,,,,,,,,,,,,,,,,,,,,,,,,,,,,,,,,,,,,,,,,,,,,,39_40Exp,001,2021_May_12_1112,ComputerHuman,2020.1.3,59.99170541323634,
Human.xlsx,h,Sychronize.jpg,Number9.jpg,9,Human,,,,,0,1,1,6,0,1,1,6,,,,,,,,,,,,,,,,,,,,,,,,,,,,,649.3453998938173,None,649.3453998938173,None,649.7785587686642,None,649.7785587686642,None,v,6.976323796661518,649.7785587686642,None,t,9.4316402359118,649.7785587686642,None,6.976323796661518,9.4316402359118,9.283893827677673,False,False,False,659.2778182156474,None,659.2778182156474,None,659.2778182156474,None,659.2778182156474,None,659.2778182156474,None,659.2778182156474,None,659.2778182156474,None,659.2778182156474,None,660.2785140178971,None,660.2785140178971,None,661.2760102204979,None,661.2760102204979,None,h,,,,,,,,,,,,,,,,,,,,,,,,,,,,,,,,,,,,,,,,,,,,,,,39_40Exp,001,2021_May_12_1112,ComputerHuman,2020.1.3,59.99170541323634,
Human.xlsx,h,Sychronize.jpg,Number7.jpg,7,Human,,,,,0,1,1,6,0,2,2,3,,,,,,,,,,,,,,,,,,,,,,,,,,,,,662.325756071428,None,662.325756071428,None,662.7759487884412,None,662.7759487884412,None,None,,662.7759487884412,None,t,7.933644396610589,662.7759487884412,None,13,7.933644396610589,7.271862359790885,False,False,False,675.8565360981502,None,675.8565360981502,None,675.8565360981502,None,675.8565360981502,None,675.8565360981502,None,675.8565360981502,None,675.8565360981502,None,675.8565360981502,None,676.8421343709952,None,676.8421343709952,None,677.8394977648677,None,677.8394977648677,None,h,,,,,,,,,,,,,,,,,,,,,,,,,,,,,,,,,,,,,,,,,,,,,,,39_40Exp,001,2021_May_12_1112,ComputerHuman,2020.1.3,59.99170541323634,
Human.xlsx,h,Sychronize.jpg,Number6.jpg,6,Human,,,,,0,1,1,6,0,3,3,1,,,,,,,,,,,,,,,,,,,,,,,,,,,,,678.8734733813135,None,678.8734733813135,None,679.3395085114676,None,679.3395085114676,None,v,4.766677840992088,679.3395085114676,None,t,7.109740429511021,679.3395085114676,None,4.766677840992088,7.109740429511021,5.735158588906765,False,False,False,686.5055954498575,None,686.5055954498575,None,686.5055954498575,None,686.5055954498575,None,686.5055954498575,None,686.5055954498575,None,686.5055954498575,None,686.5055954498575,None,687.5062492280895,None,687.5062492280895,None,688.5207815184144,None,688.5207815184144,None,h,,,,,,,,,,,,,,,,,,,,,,,,,,,,,,,,,,,,,,,,,,,,,,,39_40Exp,001,2021_May_12_1112,ComputerHuman,2020.1.3,59.99170541323634,
Human.xlsx,h,Sychronize.jpg,Number8.jpg,8,Human,,,,,0,1,1,6,0,4,4,5,,,,,,,,,,,,,,,,,,,,,,,,,,,,,689.5708978864486,None,689.5708978864486,None,690.0209350183575,None,690.0209350183575,None,v,6.256962112621068,690.0209350183575,None,t,8.155682946428897,690.0209350183575,None,6.256962112621068,8.155682946428897,8.183694745749552,False,False,False,698.2529723972777,None,698.2529723972777,None,698.2529723972777,None,698.2529723972777,None,698.2529723972777,None,698.2529723972777,None,698.2529723972777,None,698.2529723972777,None,699.2372429036352,None,699.2372429036352,None,700.2351699326173,None,700.2351699326173,None,h,,,,,,,,,,,,,,,,,,,,,,,,,,,,,,,,,,,,,,,,,,,,,,,39_40Exp,001,2021_May_12_1112,ComputerHuman,2020.1.3,59.99170541323634,
Human.xlsx,h,Sychronize.jpg,Number10.jpg,10,Human,,,,,0,1,1,6,0,5,5,8,,,,,,,,,,,,,,,,,,,,,,,,,,,,,701.3018158546033,None,701.3018158546033,None,701.7350411338145,None,701.7350411338145,None,v,8.158509783415866,701.7350411338145,None,t,10.03783252306107,701.7350411338145,None,8.158509783415866,10.03783252306107,10.47395861017669,False,False,False,711.8662988228464,None,711.8662988228464,None,711.8662988228464,None,711.8662988228464,None,711.8662988228464,None,711.8662988228464,None,711.8662988228464,None,711.8662988228464,None,712.8522316838639,None,712.8522316838639,None,713.8325474414271,None,713.8325474414271,None,h,,,,,,,,,,,,,,,,,,,,,,,,,,,,,,,,,,,,,,,,,,,,,,,39_40Exp,001,2021_May_12_1112,ComputerHuman,2020.1.3,59.99170541323634,
Human.xlsx,h,Sychronize.jpg,Number10.jpg,10,Human,,,,,0,1,1,6,0,6,6,9,,,,,,,,,,,,,,,,,,,,,,,,,,,,,714.8825717415748,None,714.8825717415748,None,715.3326592381463,None,715.3326592381463,None,v,8.444488678376729,715.3326592381463,None,t,10.323644605126674,715.3326592381463,None,8.444488678376729,10.323644605126674,10.393756587097831,False,False,False,725.7469525369195,None,725.7469525369195,None,725.7469525369195,None,725.7469525369195,None,725.7469525369195,None,725.7469525369195,None,725.7469525369195,None,725.7469525369195,None,726.7328578096506,None,726.7328578096506,None,727.729925431428,None,727.729925431428,None,h,,,,,,,,,,,,,,,,,,,,,,,,,,,,,,,,,,,,,,,,,,,,,,,39_40Exp,001,2021_May_12_1112,ComputerHuman,2020.1.3,59.99170541323634,
Human.xlsx,h,Sychronize.jpg,Number8.jpg,8,Human,,,,,0,1,1,6,0,7,7,4,,,,,,,,,,,,,,,,,,,,,,,,,,,,,728.7633390167343,None,728.7633390167343,None,729.2299839763382,None,729.2299839763382,None,v,7.390887204007413,729.2299839763382,None,t,8.22963046131781,729.2299839763382,None,7.390887204007413,8.22963046131781,7.596167246731534,False,False,False,737.5117781131858,None,737.5117781131858,None,737.5117781131858,None,737.5117781131858,None,737.5117781131858,None,737.5117781131858,None,737.5117781131858,None,737.5117781131858,None,738.53036267369,None,738.53036267369,None,739.5275740111927,None,739.5275740111927,None,h,,,,,,,,,,,,,,,,,,,,,,,,,,,,,,,,,,,,,,,,,,,,,,,39_40Exp,001,2021_May_12_1112,ComputerHuman,2020.1.3,59.99170541323634,
Human.xlsx,h,Sychronize.jpg,Number6.jpg,6,Human,,,,,0,1,1,6,0,8,8,0,,,,,,,,,,,,,,,,,,,,,,,,,,,,,740.5778940834355,None,740.5778940834355,None,741.0278067472609,None,741.0278067472609,None,v,5.332845619477439,741.0278067472609,None,t,6.251892925368793,741.0278067472609,None,5.332845619477439,6.251892925368793,5.591321999819167,False,False,False,747.3426221383168,None,747.3426221383168,None,747.3426221383168,None,747.3426221383168,None,747.3426221383168,None,747.3426221383168,None,747.3426221383168,None,747.3426221383168,None,748.3439457344821,None,748.3439457344821,None,749.3423234790755,None,749.3423234790755,None,h,,,,,,,,,,,,,,,,,,,,,,,,,,,,,,,,,,,,,,,,,,,,,,,39_40Exp,001,2021_May_12_1112,ComputerHuman,2020.1.3,59.99170541323634,
Human.xlsx,h,Sychronize.jpg,Number9.jpg,9,Human,,,,,0,1,1,6,0,9,9,7,,,,,,,,,,,,,,,,,,,,,,,,,,,,,750.3924241282023,None,750.3924241282023,None,750.8425222109768,None,750.8425222109768,None,v,8.141830097858247,750.8425222109768,None,t,9.568658102535437,750.8425222109768,None,8.141830097858247,9.568658102535437,8.70123137807619,False,False,False,760.4907112484823,None,760.4907112484823,None,760.4907112484823,None,760.4907112484823,None,760.4907112484823,None,760.4907112484823,None,760.4907112484823,None,760.4907112484823,None,761.4919960285699,None,761.4919960285699,None,762.4897995518509,None,762.4897995518509,None,h,,,,,,,,,,,,,,,,,,,,,,,,,,,,,,,,,,,,,,,,,,,,,,,39_40Exp,001,2021_May_12_1112,ComputerHuman,2020.1.3,59.99170541323634,
Human.xlsx,h,,,,,,,,,0,1,1,6,,,,,,,,,,,,,,,,,,,,,,,,,,,,,,,,,,,,,,,,,,,,,,,,,,,,,,,,,,,,,,,,,,,,,,,,,,,,,,,h,763.490447234996,None,763.490447234996,None,a,0,5.345636960604907,763.490447234996,None,o,1,5.368683766057529,763.490447234996,None,c,h,768.938682787636,None,768.938682787636,None,770.9381781786278,None,None,None,None,None,None,None,None,,,,,,,,,,,,,,,,,,39_40Exp,001,2021_May_12_1112,ComputerHuman,2020.1.3,59.99170541323634,
Human.xlsx,h,Sychronize.jpg,Number9.jpg,9,Human,,,,,0,2,2,8,0,0,0,7,,,,,,,,,,,,,,,,,,,,,,,,,775.9570187327674,None,775.9570187327674,None,779.0198661326515,None,779.0198661326515,None,779.4702038485659,None,779.4702038485659,None,v,7.457468967187651,779.4702038485659,None,t,8.648668303785598,779.4702038485659,None,7.457468967187651,8.648668303785598,8.4435151144576,False,False,False,788.2181540549168,None,788.2181540549168,None,788.2181540549168,None,788.2181540549168,None,788.2181540549168,None,788.2181540549168,None,788.2181540549168,None,788.2181540549168,None,789.2028986948496,None,789.2028986948496,None,790.2010544499747,None,790.2010544499747,None,h,,,,,,,,,,,,,,,,,,,,,,,,,,,,,,,,,,,,,,,,,,,,,,,39_40Exp,001,2021_May_12_1112,ComputerHuman,2020.1.3,59.99170541323634,
Human.xlsx,h,Sychronize.jpg,Number7.jpg,7,Human,,,,,0,2,2,8,0,1,1,3,,,,,,,,,,,,,,,,,,,,,,,,,,,,,791.2506838526722,None,791.2506838526722,None,791.7011482822281,None,791.7011482822281,None,v,6.310208147205913,791.7011482822281,None,t,7.69369687851372,791.7011482822281,None,6.310208147205913,7.69369687851372,7.041089581959809,False,False,False,799.4669420148753,None,799.4669420148753,None,799.4669420148753,None,799.4669420148753,None,799.4669420148753,None,799.4669420148753,None,799.4669420148753,None,799.4669420148753,None,800.4511682516566,None,800.4511682516566,None,801.4489445074448,None,801.4489445074448,None,h,,,,,,,,,,,,,,,,,,,,,,,,,,,,,,,,,,,,,,,,,,,,,,,39_40Exp,001,2021_May_12_1112,ComputerHuman,2020.1.3,59.99170541323634,
Human.xlsx,h,Sychronize.jpg,Number8.jpg,8,Human,,,,,0,2,2,8,0,2,2,5,,,,,,,,,,,,,,,,,,,,,,,,,,,,,802.5152539164942,None,802.5152539164942,None,802.9491878297163,None,802.9491878297163,None,v,7.733810247123756,802.9491878297163,None,t,9.0326956482686,802.9491878297163,None,7.733810247123756,9.0326956482686,7.853941589173469,False,False,False,812.0637157893218,None,812.0637157893218,None,812.0637157893218,None,812.0637157893218,None,812.0637157893218,None,812.0637157893218,None,812.0637157893218,None,812.0637157893218,None,813.0653495933134,None,813.0653495933134,None,814.0464477675141,None,814.0464477675141,None,h,,,,,,,,,,,,,,,,,,,,,,,,,,,,,,,,,,,,,,,,,,,,,,,39_40Exp,001,2021_May_12_1112,ComputerHuman,2020.1.3,59.99170541323634,
Human.xlsx,h,Sychronize.jpg,Number10.jpg,10,Human,,,,,0,2,2,8,0,3,3,8,,,,,,,,,,,,,,,,,,,,,,,,,,,,,815.0970802931417,None,815.0970802931417,None,815.54663174289,None,815.54663174289,None,v,8.748222560481736,815.54663174289,None,t,11.279641288116409,815.54663174289,None,8.748222560481736,11.279641288116409,10.446719852556217,False,False,False,826.8956277377765,None,826.8956277377765,None,826.8956277377765,None,826.8956277377765,None,826.8956277377765,None,826.8956277377765,None,826.8956277377765,None,826.8956277377765,None,827.8962844031548,None,827.8962844031548,None,828.8936378524124,None,828.8936378524124,None,h,,,,,,,,,,,,,,,,,,,,,,,,,,,,,,,,,,,,,,,,,,,,,,,39_40Exp,001,2021_May_12_1112,ComputerHuman,2020.1.3,59.99170541323634,
Human.xlsx,h,Sychronize.jpg,Number7.jpg,7,Human,,,,,0,2,2,8,0,4,4,2,,,,,,,,,,,,,,,,,,,,,,,,,,,,,829.9436393761839,None,829.9436393761839,None,830.3934663880036,None,830.3934663880036,None,v,7.073382596603096,830.3934663880036,None,t,9.611651559941038,830.3934663880036,None,7.073382596603096,9.611651559941038,7.494683700670799,False,False,False,840.0914493955438,None,840.0914493955438,None,840.0914493955438,None,840.0914493955438,None,840.0914493955438,None,840.0914493955438,None,840.0914493955438,None,840.0914493955438,None,841.076984151171,None,841.076984151171,None,842.0743693590375,None,842.0743693590375,None,h,,,,,,,,,,,,,,,,,,,,,,,,,,,,,,,,,,,,,,,,,,,,,,,39_40Exp,001,2021_May_12_1112,ComputerHuman,2020.1.3,59.99170541323634,
Human.xlsx,h,Sychronize.jpg,Number8.jpg,8,Human,,,,,0,2,2,8,0,5,5,4,,,,,,,,,,,,,,,,,,,,,,,,,,,,,843.1243551639018,None,843.1243551639018,None,843.5743185131839,None,843.5743185131839,None,v,8.551631638631761,843.5743185131839,None,t,8.44267940005102,843.5743185131839,None,8.551631638631761,8.44267940005102,8.395364709823038,True,False,False,852.2224263898001,None,852.2224263898001,None,852.2224263898001,None,852.2224263898001,None,852.2224263898001,None,852.2224263898001,None,852.2224263898001,None,852.2224263898001,None,853.1905189324616,None,853.1905189324616,None,854.1887497533896,None,854.1887497533896,None,h,,,,,,,,,,,,,,,,,,,,,,,,,,,,,,,,,,,,,,,,,,,,,,,39_40Exp,001,2021_May_12_1112,ComputerHuman,2020.1.3,59.99170541323634,
Human.xlsx,h,Sychronize.jpg,Number9.jpg,9,Human,,,,,0,2,2,8,0,6,6,6,,,,,,,,,,,,,,,,,,,,,,,,,,,,,855.2549921164868,None,855.2549921164868,None,855.7054183715534,None,855.7054183715534,None,v,8.960314570625087,855.7054183715534,None,t,10.035699242765531,855.7054183715534,None,8.960314570625087,10.035699242765531,8.958841026911658,False,False,False,865.8216009867624,None,865.8216009867624,None,865.8216009867624,None,865.8216009867624,None,865.8216009867624,None,865.8216009867624,None,865.8216009867624,None,865.8216009867624,None,866.8053444285295,None,866.8053444285295,None,867.8027447137154,None,867.8027447137154,None,h,,,,,,,,,,,,,,,,,,,,,,,,,,,,,,,,,,,,,,,,,,,,,,,39_40Exp,001,2021_May_12_1112,ComputerHuman,2020.1.3,59.99170541323634,
Human.xlsx,h,Sychronize.jpg,Number10.jpg,10,Human,,,,,0,2,2,8,0,7,7,9,,,,,,,,,,,,,,,,,,,,,,,,,,,,,868.8695680347998,None,868.8695680347998,None,869.3025113360591,None,869.3025113360591,None,v,9.378877637929463,869.3025113360591,None,t,11.281618020925407,869.3025113360591,None,9.378877637929463,11.281618020925407,9.946573471388195,False,False,False,880.6835803180031,None,880.6835803180031,None,880.6835803180031,None,880.6835803180031,None,880.6835803180031,None,880.6835803180031,None,880.6835803180031,None,880.6835803180031,None,881.6690836358155,None,881.6690836358155,None,882.6499283827329,None,882.6499283827329,None,h,,,,,,,,,,,,,,,,,,,,,,,,,,,,,,,,,,,,,,,,,,,,,,,39_40Exp,001,2021_May_12_1112,ComputerHuman,2020.1.3,59.99170541323634,
Human.xlsx,h,Sychronize.jpg,Number6.jpg,6,Human,,,,,0,2,2,8,0,8,8,0,,,,,,,,,,,,,,,,,,,,,,,,,,,,,883.7164235315254,None,883.7164235315254,None,884.1500661637685,None,884.1500661637685,None,v,6.591001406681698,884.1500661637685,None,t,7.394710427249493,884.1500661637685,None,6.591001406681698,7.394710427249493,5.620309694657165,False,False,False,891.631455458551,None,891.631455458551,None,891.631455458551,None,891.631455458551,None,891.631455458551,None,891.631455458551,None,891.631455458551,None,891.631455458551,None,892.6164509594148,None,892.6164509594148,None,893.6144293154416,None,893.6144293154416,None,h,,,,,,,,,,,,,,,,,,,,,,,,,,,,,,,,,,,,,,,,,,,,,,,39_40Exp,001,2021_May_12_1112,ComputerHuman,2020.1.3,59.99170541323634,
Human.xlsx,h,Sychronize.jpg,Number6.jpg,6,Human,,,,,0,2,2,8,0,9,9,1,,,,,,,,,,,,,,,,,,,,,,,,,,,,,894.6647994315531,None,894.6647994315531,None,895.1146857902681,None,895.1146857902681,None,v,6.1501062630222805,895.1146857902681,None,t,6.297723164376521,895.1146857902681,None,6.1501062630222805,6.297723164376521,6.378874753176529,True,False,False,901.4962273018175,None,901.4962273018175,None,901.4962273018175,None,901.4962273018175,None,901.4962273018175,None,901.4962273018175,None,901.4962273018175,None,901.4962273018175,None,902.4655597134026,None,902.4655597134026,None,903.4625763289293,None,903.4625763289293,None,h,,,,,,,,,,,,,,,,,,,,,,,,,,,,,,,,,,,,,,,,,,,,,,,39_40Exp,001,2021_May_12_1112,ComputerHuman,2020.1.3,59.99170541323634,
Human.xlsx,h,,,,,,,,,0,2,2,8,,,,,,,,,,,,,,,,,,,,,,,,,,,,,,,,,,,,,,,,,,,,,,,,,,,,,,,,,,,,,,,,,,,,,,,,,,,,,,,h,904.462649149174,None,904.462649149174,None,q,0,3.5539769637807694,904.462649149174,None,o,1,44.03983171145228,904.462649149174,None,h,h,948.5870671887055,None,948.5870671887055,None,950.5701010340797,None,None,None,None,None,None,None,None,,,,,,,,,,,,,,,,,,39_40Exp,001,2021_May_12_1112,ComputerHuman,2020.1.3,59.99170541323634,
Computer.xlsx,c,Sychronize.jpg,Number7.jpg,7,Computer,,,,,0,3,3,7,0,0,0,2,,,,,,,,,,,,,,,,,,,,,,,,,955.5889213781954,None,955.5889213781954,None,958.6683570373389,None,958.6683570373389,None,959.1023008951759,None,959.1023008951759,None,v,5.696897440544717,959.1023008951759,None,t,7.535738860828133,959.1023008951759,None,5.696897440544717,7.535738860828133,6.57550312221867,False,False,False,966.733627073733,None,966.733627073733,None,966.733627073733,None,966.733627073733,None,966.733627073733,None,966.733627073733,None,966.733627073733,None,966.733627073733,None,967.7331587144502,None,967.7331587144502,None,968.7164767833342,None,968.7164767833342,None,c,,,,,,,,,,,,,,,,,,,,,,,,,,,,,,,,,,,,,,,,,,,,,,,39_40Exp,001,2021_May_12_1112,ComputerHuman,2020.1.3,59.99170541323634,
Computer.xlsx,c,Sychronize.jpg,Number9.jpg,9,Computer,,,,,0,3,3,7,0,1,1,6,,,,,,,,,,,,,,,,,,,,,,,,,,,,,969.7841543789189,None,969.7841543789189,None,970.2167079154324,None,970.2167079154324,None,None,,970.2167079154324,None,t,10.453900775198917,970.2167079154324,None,13,10.453900775198917,8.759629574533706,False,False,False,983.297085105052,None,983.297085105052,None,983.297085105052,None,983.297085105052,None,983.297085105052,None,983.297085105052,None,983.297085105052,None,983.297085105052,None,984.2800814175248,None,984.2800814175248,None,985.2633982032328,None,985.2633982032328,None,c,,,,,,,,,,,,,,,,,,,,,,,,,,,,,,,,,,,,,,,,,,,,,,,39_40Exp,001,2021_May_12_1112,ComputerHuman,2020.1.3,59.99170541323634,
Computer.xlsx,c,Sychronize.jpg,Number8.jpg,8,Computer,,,,,0,3,3,7,0,2,2,5,,,,,,,,,,,,,,,,,,,,,,,,,,,,,986.331226251217,None,986.331226251217,None,986.7636492245606,None,986.7636492245606,None,v,7.5508251624419245,986.7636492245606,None,t,8.989693208630115,986.7636492245606,None,7.5508251624419245,8.989693208630115,7.8459557045793975,False,True,False,995.8292945899691,None,995.8292945899691,None,995.8292945899691,None,995.8292945899691,None,995.8292945899691,None,995.8292945899691,None,995.8292945899691,None,995.8292945899691,None,996.8444395968902,None,996.8444395968902,None,997.8109137336737,None,997.8109137336737,None,c,,,,,,,,,,,,,,,,,,,,,,,,,,,,,,,,,,,,,,,,,,,,,,,39_40Exp,001,2021_May_12_1112,ComputerHuman,2020.1.3,59.99170541323634,
Computer.xlsx,c,Sychronize.jpg,Number9.jpg,9,Computer,,,,,0,3,3,7,0,3,3,7,,,,,,,,,,,,,,,,,,,,,,,,,,,,,998.8774140151704,None,998.8774140151704,None,999.3112070998136,None,999.3112070998136,None,v,8.855202878163936,999.3112070998136,None,t,9.766617210920458,999.3112070998136,None,8.855202878163936,9.766617210920458,9.605585522271676,False,False,True,1009.1599883230974,None,1009.1599883230974,None,1009.1599883230974,None,1009.1599883230974,None,1009.1599883230974,None,1009.1599883230974,None,1009.1599883230974,None,1009.1599883230974,None,1010.1750977218812,None,1010.1750977218812,None,1011.1583083247656,None,1011.1583083247656,None,c,,,,,,,,,,,,,,,,,,,,,,,,,,,,,,,,,,,,,,,,,,,,,,,39_40Exp,001,2021_May_12_1112,ComputerHuman,2020.1.3,59.99170541323634,
Computer.xlsx,c,Sychronize.jpg,Number10.jpg,10,Computer,,,,,0,3,3,7,0,4,4,8,,,,,,,,,,,,,,,,,,,,,,,,,,,,,1012.2083647043162,None,1012.2083647043162,None,1012.6582773681416,None,1012.6582773681416,None,None,,1012.6582773681416,None,None,,1012.6582773681416,None,13,13,10.085467149138323,False,False,False,1025.7232243649482,None,1025.7232243649482,None,1025.7232243649482,None,1025.7232243649482,None,1025.7232243649482,None,1025.7232243649482,None,1025.7232243649482,None,1025.7232243649482,None,1026.75525789434,None,1026.75525789434,None,1027.7384842161318,None,1027.7384842161318,None,c,,,,,,,,,,,,,,,,,,,,,,,,,,,,,,,,,,,,,,,,,,,,,,,39_40Exp,001,2021_May_12_1112,ComputerHuman,2020.1.3,59.99170541323634,
Computer.xlsx,c,Sychronize.jpg,Number10.jpg,10,Computer,,,,,0,3,3,7,0,5,5,9,,,,,,,,,,,,,,,,,,,,,,,,,,,,,1028.7887385255985,None,1028.7887385255985,None,1029.2387730911553,None,1029.2387730911553,None,v,9.86261803215325,1029.2387730911553,None,t,11.729642491093955,1029.2387730911553,None,9.86261803215325,11.729642491093955,10.281949512260924,False,False,False,1041.0371402495457,None,1041.0371402495457,None,1041.0371402495457,None,1041.0371402495457,None,1041.0371402495457,None,1041.0371402495457,None,1041.0371402495457,None,1041.0371402495457,None,1042.0523336963654,None,1042.0523336963654,None,1043.0355019544377,None,1043.0355019544377,None,c,,,,,,,,,,,,,,,,,,,,,,,,,,,,,,,,,,,,,,,,,,,,,,,39_40Exp,001,2021_May_12_1112,ComputerHuman,2020.1.3,59.99170541323634,
Computer.xlsx,c,Sychronize.jpg,Number6.jpg,6,Computer,,,,,0,3,3,7,0,6,6,0,,,,,,,,,,,,,,,,,,,,,,,,,,,,,1044.0853883131529,None,1044.0853883131529,None,1044.5354530333482,None,1044.5354530333482,None,v,6.817587211866794,1044.5354530333482,None,t,5.440813020388077,1044.5354530333482,None,6.817587211866794,5.440813020388077,5.702513911356051,False,False,True,1051.4504949049888,None,1051.4504949049888,None,1051.4504949049888,None,1051.4504949049888,None,1051.4504949049888,None,1051.4504949049888,None,1051.4504949049888,None,1051.4504949049888,None,1052.4336978088165,None,1052.4336978088165,None,1053.416868312447,None,1053.416868312447,None,c,,,,,,,,,,,,,,,,,,,,,,,,,,,,,,,,,,,,,,,,,,,,,,,39_40Exp,001,2021_May_12_1112,ComputerHuman,2020.1.3,59.99170541323634,
Computer.xlsx,c,Sychronize.jpg,Number8.jpg,8,Computer,,,,,0,3,3,7,0,7,7,4,,,,,,,,,,,,,,,,,,,,,,,,,,,,,1054.4670234965588,None,1054.4670234965588,None,1054.9336232242047,None,1054.9336232242047,None,v,7.1392088898442125,1054.9336232242047,None,t,9.118766611115689,1054.9336232242047,None,7.1392088898442125,9.118766611115689,7.454532142272597,False,False,False,1064.147963038112,None,1064.147963038112,None,1064.147963038112,None,1064.147963038112,None,1064.147963038112,None,1064.147963038112,None,1064.147963038112,None,1064.147963038112,None,1065.1311348249187,None,1065.1311348249187,None,1066.1143617882985,None,1066.1143617882985,None,c,,,,,,,,,,,,,,,,,,,,,,,,,,,,,,,,,,,,,,,,,,,,,,,39_40Exp,001,2021_May_12_1112,ComputerHuman,2020.1.3,59.99170541323634,
Computer.xlsx,c,Sychronize.jpg,Number7.jpg,7,Computer,,,,,0,3,3,7,0,8,8,3,,,,,,,,,,,,,,,,,,,,,,,,,,,,,1067.1814898637108,None,1067.1814898637108,None,1067.6146150551847,None,1067.6146150551847,None,v,6.197853567149423,1067.6146150551847,None,t,7.9209791275366115,1067.6146150551847,None,6.197853567149423,7.9209791275366115,6.775094524728785,False,False,False,1075.6292548115096,None,1075.6292548115096,None,1075.6292548115096,None,1075.6292548115096,None,1075.6292548115096,None,1075.6292548115096,None,1075.6292548115096,None,1075.6292548115096,None,1076.6288692170863,None,1076.6288692170863,None,1077.6121587353016,None,1077.6121587353016,None,c,,,,,,,,,,,,,,,,,,,,,,,,,,,,,,,,,,,,,,,,,,,,,,,39_40Exp,001,2021_May_12_1112,ComputerHuman,2020.1.3,59.99170541323634,
Computer.xlsx,c,Sychronize.jpg,Number6.jpg,6,Computer,,,,,0,3,3,7,0,9,9,1,,,,,,,,,,,,,,,,,,,,,,,,,,,,,1078.6624913185117,None,1078.6624913185117,None,1079.1123760732567,None,1079.1123760732567,None,v,5.6078973074152145,1079.1123760732567,None,t,8.258645960481545,1079.1123760732567,None,5.6078973074152145,8.258645960481545,6.1355975749212,False,False,False,1087.428157695929,None,1087.428157695929,None,1087.428157695929,None,1087.428157695929,None,1087.428157695929,None,1087.428157695929,None,1087.428157695929,None,1087.428157695929,None,1088.4600093351064,None,1088.4600093351064,None,1089.4432003695547,None,1089.4432003695547,None,c,,,,,,,,,,,,,,,,,,,,,,,,,,,,,,,,,,,,,,,,,,,,,,,39_40Exp,001,2021_May_12_1112,ComputerHuman,2020.1.3,59.99170541323634,
Computer.xlsx,c,,,,,,,,,0,3,3,7,,,,,,,,,,,,,,,,,,,,,,,,,,,,,,,,,,,,,,,,,,,,,,,,,,,,,,,,,,,,,,,,,,,,,,,,,,,,,,,c,1090.4441018007774,None,1090.4441018007774,None,q,0,6.099851632761556,1090.4441018007774,None,l,0,2.030881237238418,1090.4441018007774,None,h,c,1096.6252984587452,None,1096.6252984587452,None,1098.6247855090921,None,None,None,None,None,None,None,None,,,,,,,,,,,,,,,,,,39_40Exp,001,2021_May_12_1112,ComputerHuman,2020.1.3,59.99170541323634,
Human.xlsx,h,Sychronize.jpg,Number9.jpg,9,Human,,,,,0,4,4,0,0,0,0,7,,,,,,,,,,,,,,,,,,,,,,,,,1103.6267237466177,None,1103.6267237466177,None,1106.7237876792638,None,1106.7237876792638,None,1107.1569199282064,None,1107.1569199282064,None,v,8.0705567219984,1107.1569199282064,None,t,8.925711160263972,1107.1569199282064,None,8.0705567219984,8.925711160263972,9.463081212971659,False,False,False,1116.1564265469892,None,1116.1564265469892,None,1116.1564265469892,None,1116.1564265469892,None,1116.1564265469892,None,1116.1564265469892,None,1116.1564265469892,None,1116.1564265469892,None,1117.1568987558005,None,1117.1568987558005,None,1118.1376764567658,None,1118.1376764567658,None,h,,,,,,,,,,,,,,,,,,,,,,,,,,,,,,,,,,,,,,,,,,,,,,,39_40Exp,001,2021_May_12_1112,ComputerHuman,2020.1.3,59.99170541323634,
Human.xlsx,h,Sychronize.jpg,Number8.jpg,8,Human,,,,,0,4,4,0,0,1,1,4,,,,,,,,,,,,,,,,,,,,,,,,,,,,,1119.2043089054027,None,1119.2043089054027,None,1119.6375755670435,None,1119.6375755670435,None,v,6.833566604058433,1119.6375755670435,None,t,8.38070905104314,1119.6375755670435,None,6.833566604058433,8.38070905104314,7.495988271388181,False,False,False,1128.1022444354267,None,1128.1022444354267,None,1128.1022444354267,None,1128.1022444354267,None,1128.1022444354267,None,1128.1022444354267,None,1128.1022444354267,None,1128.1022444354267,None,1129.0878241022178,None,1129.0878241022178,None,1130.0852115556427,None,1130.0852115556427,None,h,,,,,,,,,,,,,,,,,,,,,,,,,,,,,,,,,,,,,,,,,,,,,,,39_40Exp,001,2021_May_12_1112,ComputerHuman,2020.1.3,59.99170541323634,
Human.xlsx,h,Sychronize.jpg,Number10.jpg,10,Human,,,,,0,4,4,0,0,2,2,8,,,,,,,,,,,,,,,,,,,,,,,,,,,,,1131.135200889241,None,1131.135200889241,None,1131.5688656562725,None,1131.5688656562725,None,v,9.409973486373246,1131.5688656562725,None,t,8.365666377417483,1131.5688656562725,None,9.409973486373246,8.365666377417483,9.287254432131373,False,False,False,1141.0665317193116,None,1141.0665317193116,None,1141.0665317193116,None,1141.0665317193116,None,1141.0665317193116,None,1141.0665317193116,None,1141.0665317193116,None,1141.0665317193116,None,1142.0524799784425,None,1142.0524799784425,None,1143.0494731760054,None,1143.0494731760054,None,h,,,,,,,,,,,,,,,,,,,,,,,,,,,,,,,,,,,,,,,,,,,,,,,39_40Exp,001,2021_May_12_1112,ComputerHuman,2020.1.3,59.99170541323634,
Human.xlsx,h,Sychronize.jpg,Number7.jpg,7,Human,,,,,0,4,4,0,0,3,3,2,,,,,,,,,,,,,,,,,,,,,,,,,,,,,1144.115960625741,None,1144.115960625741,None,1144.549808566163,None,1144.549808566163,None,v,6.02480539832186,1144.549808566163,None,t,7.923719670929586,1144.549808566163,None,6.02480539832186,7.923719670929586,6.590419816579472,False,False,False,1152.5480252721536,None,1152.5480252721536,None,1152.5480252721536,None,1152.5480252721536,None,1152.5480252721536,None,1152.5480252721536,None,1152.5480252721536,None,1152.5480252721536,None,1153.5329851648803,None,1153.5329851648803,None,1154.5305869087165,None,1154.5305869087165,None,h,,,,,,,,,,,,,,,,,,,,,,,,,,,,,,,,,,,,,,,,,,,,,,,39_40Exp,001,2021_May_12_1112,ComputerHuman,2020.1.3,59.99170541323634,
Human.xlsx,h,Sychronize.jpg,Number6.jpg,6,Human,,,,,0,4,4,0,0,4,4,1,,,,,,,,,,,,,,,,,,,,,,,,,,,,,1155.5975914784276,None,1155.5975914784276,None,1156.047550015799,None,1156.047550015799,None,v,5.3907672270402145,1156.047550015799,None,t,6.997635427209389,1156.047550015799,None,5.3907672270402145,6.997635427209389,5.578059992613187,False,False,False,1163.1289296867608,None,1163.1289296867608,None,1163.1289296867608,None,1163.1289296867608,None,1163.1289296867608,None,1163.1289296867608,None,1163.1289296867608,None,1163.1289296867608,None,1164.114988940626,None,1164.114988940626,None,1165.0952238580935,None,1165.0952238580935,None,h,,,,,,,,,,,,,,,,,,,,,,,,,,,,,,,,,,,,,,,,,,,,,,,39_40Exp,001,2021_May_12_1112,ComputerHuman,2020.1.3,59.99170541323634,
Human.xlsx,h,Sychronize.jpg,Number6.jpg,6,Human,,,,,0,4,4,0,0,5,5,0,,,,,,,,,,,,,,,,,,,,,,,,,,,,,1166.1453042971966,None,1166.1453042971966,None,1166.595097946437,None,1166.595097946437,None,v,6.310978694464211,1166.595097946437,None,t,6.609755988021789,1166.595097946437,None,6.310978694464211,6.609755988021789,6.392103108596707,True,False,False,1173.2936211711226,None,1173.2936211711226,None,1173.2936211711226,None,1173.2936211711226,None,1173.2936211711226,None,1173.2936211711226,None,1173.2936211711226,None,1173.2936211711226,None,1174.2787786729714,None,1174.2787786729714,None,1175.2765703268733,None,1175.2765703268733,None,h,,,,,,,,,,,,,,,,,,,,,,,,,,,,,,,,,,,,,,,,,,,,,,,39_40Exp,001,2021_May_12_1112,ComputerHuman,2020.1.3,59.99170541323634,
Human.xlsx,h,Sychronize.jpg,Number7.jpg,7,Human,,,,,0,4,4,0,0,6,6,3,,,,,,,,,,,,,,,,,,,,,,,,,,,,,1176.343301580071,None,1176.343301580071,None,1176.7766648007146,None,1176.7766648007146,None,v,6.9131206361989825,1176.7766648007146,None,t,8.712739853685434,1176.7766648007146,None,6.9131206361989825,8.712739853685434,6.979477943821366,False,False,False,1185.5420748637025,None,1185.5420748637025,None,1185.5420748637025,None,1185.5420748637025,None,1185.5420748637025,None,1185.5420748637025,None,1185.5420748637025,None,1185.5420748637025,None,1186.5431437494085,None,1186.5431437494085,None,1187.540778214236,None,1187.540778214236,None,h,,,,,,,,,,,,,,,,,,,,,,,,,,,,,,,,,,,,,,,,,,,,,,,39_40Exp,001,2021_May_12_1112,ComputerHuman,2020.1.3,59.99170541323634,
Human.xlsx,h,Sychronize.jpg,Number8.jpg,8,Human,,,,,0,4,4,0,0,7,7,5,,,,,,,,,,,,,,,,,,,,,,,,,,,,,1188.6076348978995,None,1188.6076348978995,None,1189.0578096504469,None,1189.0578096504469,None,v,8.083625549961653,1189.0578096504469,None,t,7.310738419736481,1189.0578096504469,None,8.083625549961653,7.310738419736481,8.50693071619612,False,False,False,1197.2228584993577,None,1197.2228584993577,None,1197.2228584993577,None,1197.2228584993577,None,1197.2228584993577,None,1197.2228584993577,None,1197.2228584993577,None,1197.2228584993577,None,1198.2241785667884,None,1198.2241785667884,None,1199.2053405790011,None,1199.2053405790011,None,h,,,,,,,,,,,,,,,,,,,,,,,,,,,,,,,,,,,,,,,,,,,,,,,39_40Exp,001,2021_May_12_1112,ComputerHuman,2020.1.3,59.99170541323634,
Human.xlsx,h,Sychronize.jpg,Number9.jpg,9,Human,,,,,0,4,4,0,0,8,8,6,,,,,,,,,,,,,,,,,,,,,,,,,,,,,1200.2722168311002,None,1200.2722168311002,None,1200.7052088930523,None,1200.7052088930523,None,v,8.623931876179995,1200.7052088930523,None,t,9.09560014949011,1200.7052088930523,None,8.623931876179995,9.09560014949011,9.541288942465878,False,False,False,1209.869986671008,None,1209.869986671008,None,1209.869986671008,None,1209.869986671008,None,1209.869986671008,None,1209.869986671008,None,1209.869986671008,None,1209.869986671008,None,1210.871744622289,None,1210.871744622289,None,1211.8526881737675,None,1211.8526881737675,None,h,,,,,,,,,,,,,,,,,,,,,,,,,,,,,,,,,,,,,,,,,,,,,,,39_40Exp,001,2021_May_12_1112,ComputerHuman,2020.1.3,59.99170541323634,
Human.xlsx,h,Sychronize.jpg,Number10.jpg,10,Human,,,,,0,4,4,0,0,9,9,9,,,,,,,,,,,,,,,,,,,,,,,,,,,,,1212.9194389954014,None,1212.9194389954014,None,1213.36953739897,None,1213.36953739897,None,v,9.127309356118076,1213.36953739897,None,t,6.7787647184313755,1213.36953739897,None,9.127309356118076,6.7787647184313755,10.363021898990958,False,False,False,1222.5688406343384,None,1222.5688406343384,None,1222.5688406343384,None,1222.5688406343384,None,1222.5688406343384,None,1222.5688406343384,None,1222.5688406343384,None,1222.5688406343384,None,1223.5695441356447,None,1223.5695441356447,None,1224.5670105044005,None,1224.5670105044005,None,h,,,,,,,,,,,,,,,,,,,,,,,,,,,,,,,,,,,,,,,,,,,,,,,39_40Exp,001,2021_May_12_1112,ComputerHuman,2020.1.3,59.99170541323634,
Human.xlsx,h,,,,,,,,,0,4,4,0,,,,,,,,,,,,,,,,,,,,,,,,,,,,,,,,,,,,,,,,,,,,,,,,,,,,,,,,,,,,,,,,,,,,,,,,,,,,,,,h,1225.567647280549,None,1225.567647280549,None,a,0,2.397007954088167,1225.567647280549,None,o,1,2.979841303194007,1225.567647280549,None,c,h,1228.633046276143,None,1228.633046276143,None,None,None,1230.632548083015,None,1230.632548083015,None,"['space', 'space']",1231.6156621268965,None,"[1.5328882850831178, 3.9048624355004904]",,,,,,,,,,,,,,,,,39_40Exp,001,2021_May_12_1112,ComputerHuman,2020.1.3,59.99170541323634,
Computer.xlsx,c,Sychronize.jpg,Number9.jpg,9,Computer,,,,,0,5,5,5,0,0,0,7,,,,,,,,,,,,,,,,,,,,,,,,,1235.584911773622,None,1235.584911773622,None,1238.6486326956483,None,1238.6486326956483,None,1239.0977100118212,None,1239.0977100118212,None,v,7.970499139470121,1239.0977100118212,None,t,7.301730844185386,1239.0977100118212,None,7.970499139470121,7.301730844185386,9.107423552741992,False,False,False,1247.1626419313084,None,1247.1626419313084,None,1247.1626419313084,None,1247.1626419313084,None,1247.1626419313084,None,1247.1626419313084,None,1247.1626419313084,None,1247.1626419313084,None,1248.179125611714,None,1248.179125611714,None,1249.1456218832855,None,1249.1456218832855,None,c,,,,,,,,,,,,,,,,,,,,,,,,,,,,,,,,,,,,,,,,,,,,,,,39_40Exp,001,2021_May_12_1112,ComputerHuman,2020.1.3,59.99170541323634,
Computer.xlsx,c,Sychronize.jpg,Number6.jpg,6,Computer,,,,,0,5,5,5,0,1,1,0,,,,,,,,,,,,,,,,,,,,,,,,,,,,,1250.2120833487047,None,1250.2120833487047,None,1250.645496613217,None,1250.645496613217,None,v,5.286621445401579,1250.645496613217,None,t,5.2057746133232286,1250.645496613217,None,5.286621445401579,5.2057746133232286,5.567206279824639,False,True,False,1256.027600797494,None,1256.027600797494,None,1256.027600797494,None,1256.027600797494,None,1256.027600797494,None,1256.027600797494,None,1256.027600797494,None,1256.027600797494,None,1257.0273958101093,None,1257.0273958101093,None,1258.0105964683785,None,1258.0105964683785,None,c,,,,,,,,,,,,,,,,,,,,,,,,,,,,,,,,,,,,,,,,,,,,,,,39_40Exp,001,2021_May_12_1112,ComputerHuman,2020.1.3,59.99170541323634,
Computer.xlsx,c,Sychronize.jpg,Number8.jpg,8,Computer,,,,,0,5,5,5,0,2,2,4,,,,,,,,,,,,,,,,,,,,,,,,,,,,,1259.0600468680077,None,1259.0600468680077,None,1259.5109353872708,None,1259.5109353872708,None,v,6.9248087666592255,1259.5109353872708,None,t,5.727746277585993,1259.5109353872708,None,6.9248087666592255,5.727746277585993,8.08157315189194,False,False,False,1266.5105087312118,None,1266.5105087312118,None,1266.5105087312118,None,1266.5105087312118,None,1266.5105087312118,None,1266.5105087312118,None,1266.5105087312118,None,1266.5105087312118,None,1267.508622141525,None,1267.508622141525,None,1268.491940531203,None,1268.491940531203,None,c,,,,,,,,,,,,,,,,,,,,,,,,,,,,,,,,,,,,,,,,,,,,,,,39_40Exp,001,2021_May_12_1112,ComputerHuman,2020.1.3,59.99170541323634,
Computer.xlsx,c,Sychronize.jpg,Number10.jpg,10,Computer,,,,,0,5,5,5,0,3,3,9,,,,,,,,,,,,,,,,,,,,,,,,,,,,,1269.5418916903118,None,1269.5418916903118,None,1269.991874287236,None,1269.991874287236,None,v,8.919590730977234,1269.991874287236,None,t,6.974722713660867,1269.991874287236,None,8.919590730977234,6.974722713660867,10.743031515782455,False,False,False,1278.9912718360488,None,1278.9912718360488,None,1278.9912718360488,None,1278.9912718360488,None,1278.9912718360488,None,1278.9912718360488,None,1278.9912718360488,None,1278.9912718360488,None,1280.0063151512622,None,1280.0063151512622,None,1280.9728197634786,None,1280.9728197634786,None,c,,,,,,,,,,,,,,,,,,,,,,,,,,,,,,,,,,,,,,,,,,,,,,,39_40Exp,001,2021_May_12_1112,ComputerHuman,2020.1.3,59.99170541323634,
Computer.xlsx,c,Sychronize.jpg,Number9.jpg,9,Computer,,,,,0,5,5,5,0,4,4,6,,,,,,,,,,,,,,,,,,,,,,,,,,,,,1282.0392700011066,None,1282.0392700011066,None,1282.4730576322513,None,1282.4730576322513,None,None,,1282.4730576322513,None,t,6.681706239283358,1282.4730576322513,None,13,6.681706239283358,9.601758386657758,False,False,False,1295.5201931821643,None,1295.5201931821643,None,1295.5201931821643,None,1295.5201931821643,None,1295.5201931821643,None,1295.5201931821643,None,1295.5201931821643,None,1295.5201931821643,None,1296.5530995921104,None,1296.5530995921104,None,1297.519585598273,None,1297.519585598273,None,c,,,,,,,,,,,,,,,,,,,,,,,,,,,,,,,,,,,,,,,,,,,,,,,39_40Exp,001,2021_May_12_1112,ComputerHuman,2020.1.3,59.99170541323634,
Computer.xlsx,c,Sychronize.jpg,Number6.jpg,6,Computer,,,,,0,5,5,5,0,5,5,1,,,,,,,,,,,,,,,,,,,,,,,,,,,,,1298.5862013656201,None,1298.5862013656201,None,1299.0198327700728,None,1299.0198327700728,None,v,0.847025838355421,1299.0198327700728,None,t,5.121780150228005,1299.0198327700728,None,0.847025838355421,5.121780150228005,5.627053220132012,False,False,False,1304.202271221728,None,1304.202271221728,None,1304.202271221728,None,1304.202271221728,None,1304.202271221728,None,1304.202271221728,None,1304.202271221728,None,1304.202271221728,None,1305.234753221173,None,1305.234753221173,None,1306.217831015329,None,1306.217831015329,None,c,,,,,,,,,,,,,,,,,,,,,,,,,,,,,,,,,,,,,,,,,,,,,,,39_40Exp,001,2021_May_12_1112,ComputerHuman,2020.1.3,59.99170541323634,
Computer.xlsx,c,Sychronize.jpg,Number8.jpg,8,Computer,,,,,0,5,5,5,0,6,6,5,,,,,,,,,,,,,,,,,,,,,,,,,,,,,1307.2686431856132,None,1307.2686431856132,None,1307.7178982216783,None,1307.7178982216783,None,v,6.80061849088861,1307.7178982216783,None,t,6.739784715126916,1307.7178982216783,None,6.80061849088861,6.739784715126916,7.442632714408137,False,False,False,1314.6012430768637,None,1314.6012430768637,None,1314.6012430768637,None,1314.6012430768637,None,1314.6012430768637,None,1314.6012430768637,None,1314.6012430768637,None,1314.6012430768637,None,1315.5994395728308,None,1315.5994395728308,None,1316.5825446344793,None,1316.5825446344793,None,c,,,,,,,,,,,,,,,,,,,,,,,,,,,,,,,,,,,,,,,,,,,,,,,39_40Exp,001,2021_May_12_1112,ComputerHuman,2020.1.3,59.99170541323634,
Computer.xlsx,c,Sychronize.jpg,Number7.jpg,7,Computer,,,,,0,5,5,5,0,7,7,2,,,,,,,,,,,,,,,,,,,,,,,,,,,,,1317.6493952230562,None,1317.6493952230562,None,1318.0826541856404,None,1318.0826541856404,None,v,5.615638067344207,1318.0826541856404,None,t,6.578753490640338,1318.0826541856404,None,5.615638067344207,6.578753490640338,7.474082213050829,False,False,False,1324.7323169509168,None,1324.7323169509168,None,1324.7323169509168,None,1324.7323169509168,None,1324.7323169509168,None,1324.7323169509168,None,1324.7323169509168,None,1324.7323169509168,None,1325.7473419808712,None,1325.7473419808712,None,1326.7306116098566,None,1326.7306116098566,None,c,,,,,,,,,,,,,,,,,,,,,,,,,,,,,,,,,,,,,,,,,,,,,,,39_40Exp,001,2021_May_12_1112,ComputerHuman,2020.1.3,59.99170541323634,
Computer.xlsx,c,Sychronize.jpg,Number10.jpg,10,Computer,,,,,0,5,5,5,0,8,8,8,,,,,,,,,,,,,,,,,,,,,,,,,,,,,1327.780349120142,None,1327.780349120142,None,1328.230515532045,None,1328.230515532045,None,v,9.319525930583495,1328.230515532045,None,t,7.214663815876975,1328.230515532045,None,9.319525930583495,7.214663815876975,9.662418533954991,False,False,False,1337.6283639664898,None,1337.6283639664898,None,1337.6283639664898,None,1337.6283639664898,None,1337.6283639664898,None,1337.6283639664898,None,1337.6283639664898,None,1337.6283639664898,None,1338.6450074023223,None,1338.6450074023223,None,1339.6281695653083,None,1339.6281695653083,None,c,,,,,,,,,,,,,,,,,,,,,,,,,,,,,,,,,,,,,,,,,,,,,,,39_40Exp,001,2021_May_12_1112,ComputerHuman,2020.1.3,59.99170541323634,
Computer.xlsx,c,Sychronize.jpg,Number7.jpg,7,Computer,,,,,0,5,5,5,0,9,9,3,,,,,,,,,,,,,,,,,,,,,,,,,,,,,1340.6948985729477,None,1340.6948985729477,None,1341.127950944177,None,1341.127950944177,None,v,6.2457872526074425,1341.127950944177,None,t,5.416722671957814,1341.127950944177,None,6.2457872526074425,5.416722671957814,6.807076391403242,False,False,False,1347.4445323063646,None,1347.4445323063646,None,1347.4445323063646,None,1347.4445323063646,None,1347.4445323063646,None,1347.4445323063646,None,1347.4445323063646,None,1347.4445323063646,None,1348.4429427719492,None,1348.4429427719492,None,1349.4262297238124,None,1349.4262297238124,None,c,,,,,,,,,,,,,,,,,,,,,,,,,,,,,,,,,,,,,,,,,,,,,,,39_40Exp,001,2021_May_12_1112,ComputerHuman,2020.1.3,59.99170541323634,
Computer.xlsx,c,,,,,,,,,0,5,5,5,,,,,,,,,,,,,,,,,,,,,,,,,,,,,,,,,,,,,,,,,,,,,,,,,,,,,,,,,,,,,,,,,,,,,,,,,,,,,,,c,1350.4264924541226,None,1350.4264924541226,None,a,1,4.047027442325543,1350.4264924541226,None,o,0,1.969780881638144,1350.4264924541226,None,c,h,1354.5421743098518,None,1354.5421743098518,None,1356.5592662157374,None,None,None,None,None,None,None,None,,,,,,,,,,,,,,,,,,39_40Exp,001,2021_May_12_1112,ComputerHuman,2020.1.3,59.99170541323634,
Human.xlsx,h,Sychronize.jpg,Number7.jpg,7,Human,,,,,0,6,6,2,0,0,0,2,,,,,,,,,,,,,,,,,,,,,,,,,1361.5594227632237,None,1361.5594227632237,None,1364.6239023631292,None,1364.6239023631292,None,1365.0569736612065,None,1365.0569736612065,None,v,5.412152319420784,1365.0569736612065,None,t,6.343728877718149,1365.0569736612065,None,5.412152319420784,6.343728877718149,7.251938769264622,False,False,False,1371.488525999554,None,1371.488525999554,None,1371.488525999554,None,1371.488525999554,None,1371.488525999554,None,1371.488525999554,None,1371.488525999554,None,1371.488525999554,None,1372.4905328870018,None,1372.4905328870018,None,1373.4881776172383,None,1373.4881776172383,None,h,,,,,,,,,,,,,,,,,,,,,,,,,,,,,,,,,,,,,,,,,,,,,,,39_40Exp,001,2021_May_12_1112,ComputerHuman,2020.1.3,59.99170541323634,
Human.xlsx,h,Sychronize.jpg,Number10.jpg,10,Human,,,,,0,6,6,2,0,1,1,9,,,,,,,,,,,,,,,,,,,,,,,,,,,,,1374.5380729581861,None,1374.5380729581861,None,1374.9882169145067,None,1374.9882169145067,None,v,9.768520161102515,1374.9882169145067,None,t,8.503859312570512,1374.9882169145067,None,9.768520161102515,8.503859312570512,9.316386356357478,False,False,False,1384.8529666229852,None,1384.8529666229852,None,1384.8529666229852,None,1384.8529666229852,None,1384.8529666229852,None,1384.8529666229852,None,1384.8529666229852,None,1384.8529666229852,None,1385.8214810097957,None,1385.8214810097957,None,1386.8189274893216,None,1386.8189274893216,None,h,,,,,,,,,,,,,,,,,,,,,,,,,,,,,,,,,,,,,,,,,,,,,,,39_40Exp,001,2021_May_12_1112,ComputerHuman,2020.1.3,59.99170541323634,
Human.xlsx,h,Sychronize.jpg,Number8.jpg,8,Human,,,,,0,6,6,2,0,2,2,4,,,,,,,,,,,,,,,,,,,,,,,,,,,,,1387.8858143276238,None,1387.8858143276238,None,1388.3359537928281,None,1388.3359537928281,None,v,7.024578596943229,1388.3359537928281,None,t,7.363784920434682,1388.3359537928281,None,7.024578596943229,7.363784920434682,8.08866174295967,False,False,False,1395.783885553522,None,1395.783885553522,None,1395.783885553522,None,1395.783885553522,None,1395.783885553522,None,1395.783885553522,None,1395.783885553522,None,1395.783885553522,None,1396.7692252663792,None,1396.7692252663792,None,1397.7502997018219,None,1397.7502997018219,None,h,,,,,,,,,,,,,,,,,,,,,,,,,,,,,,,,,,,,,,,,,,,,,,,39_40Exp,001,2021_May_12_1112,ComputerHuman,2020.1.3,59.99170541323634,
Human.xlsx,h,Sychronize.jpg,Number9.jpg,9,Human,,,,,0,6,6,2,0,3,3,7,,,,,,,,,,,,,,,,,,,,,,,,,,,,,1398.8165257044238,None,1398.8165257044238,None,1399.2504798276696,None,1399.2504798276696,None,v,7.433722509956624,1399.2504798276696,None,t,9.020696347599824,1399.2504798276696,None,7.433722509956624,9.020696347599824,9.14952704549728,False,False,False,1408.364764304607,None,1408.364764304607,None,1408.364764304607,None,1408.364764304607,None,1408.364764304607,None,1408.364764304607,None,1408.364764304607,None,1408.364764304607,None,1409.349545835853,None,1409.349545835853,None,1410.3477882053658,None,1410.3477882053658,None,h,,,,,,,,,,,,,,,,,,,,,,,,,,,,,,,,,,,,,,,,,,,,,,,39_40Exp,001,2021_May_12_1112,ComputerHuman,2020.1.3,59.99170541323634,
Human.xlsx,h,Sychronize.jpg,Number6.jpg,6,Human,,,,,0,6,6,2,0,4,4,1,,,,,,,,,,,,,,,,,,,,,,,,,,,,,1411.3980896715552,None,1411.3980896715552,None,1411.8480873457984,None,1411.8480873457984,None,v,5.57205306574815,1411.8480873457984,None,t,5.810747883160275,1411.8480873457984,None,5.57205306574815,5.810747883160275,5.878787772450834,True,False,False,1417.7463526520846,None,1417.7463526520846,None,1417.7463526520846,None,1417.7463526520846,None,1417.7463526520846,None,1417.7463526520846,None,1417.7463526520846,None,1417.7463526520846,None,1418.7143171979283,None,1418.7143171979283,None,1419.7126481065934,None,1419.7126481065934,None,h,,,,,,,,,,,,,,,,,,,,,,,,,,,,,,,,,,,,,,,,,,,,,,,39_40Exp,001,2021_May_12_1112,ComputerHuman,2020.1.3,59.99170541323634,
Human.xlsx,h,Sychronize.jpg,Number7.jpg,7,Human,,,,,0,6,6,2,0,5,5,3,,,,,,,,,,,,,,,,,,,,,,,,,,,,,1420.7807844376402,None,1420.7807844376402,None,1421.2129520589365,None,1421.2129520589365,None,v,6.1390099975456,1421.2129520589365,None,t,7.257780458190155,1421.2129520589365,None,6.1390099975456,7.257780458190155,7.495924407681958,False,False,False,1428.544763117669,None,1428.544763117669,None,1428.544763117669,None,1428.544763117669,None,1428.544763117669,None,1428.544763117669,None,1428.544763117669,None,1428.544763117669,None,1429.5464293218574,None,1429.5464293218574,None,1430.5272131179095,None,1430.5272131179095,None,h,,,,,,,,,,,,,,,,,,,,,,,,,,,,,,,,,,,,,,,,,,,,,,,39_40Exp,001,2021_May_12_1112,ComputerHuman,2020.1.3,59.99170541323634,
Human.xlsx,h,Sychronize.jpg,Number9.jpg,9,Human,,,,,0,6,6,2,0,6,6,6,,,,,,,,,,,,,,,,,,,,,,,,,,,,,1431.6109329813153,None,1431.6109329813153,None,1432.027335821626,None,1432.027335821626,None,v,9.176034119653195,1432.027335821626,None,t,8.459677954874223,1432.027335821626,None,9.176034119653195,8.459677954874223,8.774669442737897,False,False,False,1441.2917053891792,None,1441.2917053891792,None,1441.2917053891792,None,1441.2917053891792,None,1441.2917053891792,None,1441.2917053891792,None,1441.2917053891792,None,1441.2917053891792,None,1442.276973885762,None,1442.276973885762,None,1443.2747504623444,None,1443.2747504623444,None,h,,,,,,,,,,,,,,,,,,,,,,,,,,,,,,,,,,,,,,,,,,,,,,,39_40Exp,001,2021_May_12_1112,ComputerHuman,2020.1.3,59.99170541323634,
Human.xlsx,h,Sychronize.jpg,Number10.jpg,10,Human,,,,,0,6,6,2,0,7,7,8,,,,,,,,,,,,,,,,,,,,,,,,,,,,,1444.3249858449635,None,1444.3249858449635,None,1444.7747435652727,None,1444.7747435652727,None,v,9.724385318540499,1444.7747435652727,None,t,9.547616580560316,1444.7747435652727,None,9.724385318540499,9.547616580560316,9.365564946989863,True,False,False,1454.5893175588217,None,1454.5893175588217,None,1454.5893175588217,None,1454.5893175588217,None,1454.5893175588217,None,1454.5893175588217,None,1454.5893175588217,None,1454.5893175588217,None,1455.5747830229384,None,1455.5747830229384,None,1456.5721217156706,None,1456.5721217156706,None,h,,,,,,,,,,,,,,,,,,,,,,,,,,,,,,,,,,,,,,,,,,,,,,,39_40Exp,001,2021_May_12_1112,ComputerHuman,2020.1.3,59.99170541323634,
Human.xlsx,h,Sychronize.jpg,Number6.jpg,6,Human,,,,,0,6,6,2,0,8,8,0,,,,,,,,,,,,,,,,,,,,,,,,,,,,,1457.6223442665287,None,1457.6223442665287,None,1458.0721834685214,None,1458.0721834685214,None,v,5.798645928402038,1458.0721834685214,None,t,5.869744471515787,1458.0721834685214,None,5.798645928402038,5.869744471515787,5.671884477281018,True,False,False,1464.0373753915692,None,1464.0373753915692,None,1464.0373753915692,None,1464.0373753915692,None,1464.0373753915692,None,1464.0373753915692,None,1464.0373753915692,None,1464.0373753915692,None,1465.0225287230955,None,1465.0225287230955,None,1466.0036730916363,None,1466.0036730916363,None,h,,,,,,,,,,,,,,,,,,,,,,,,,,,,,,,,,,,,,,,,,,,,,,,39_40Exp,001,2021_May_12_1112,ComputerHuman,2020.1.3,59.99170541323634,
Human.xlsx,h,Sychronize.jpg,Number8.jpg,8,Human,,,,,0,6,6,2,0,9,9,5,,,,,,,,,,,,,,,,,,,,,,,,,,,,,1467.0708223394545,None,1467.0708223394545,None,1467.5038692571852,None,1467.5038692571852,None,v,7.610691744205269,1467.5038692571852,None,t,7.881711371987876,1467.5038692571852,None,7.610691744205269,7.881711371987876,7.733821118787823,True,False,False,1475.485140018574,None,1475.485140018574,None,1475.485140018574,None,1475.485140018574,None,1475.485140018574,None,1475.485140018574,None,1475.485140018574,None,1475.485140018574,None,1476.46996293225,None,1476.46996293225,None,1477.468119970551,None,1477.468119970551,None,h,,,,,,,,,,,,,,,,,,,,,,,,,,,,,,,,,,,,,,,,,,,,,,,39_40Exp,001,2021_May_12_1112,ComputerHuman,2020.1.3,59.99170541323634,
Human.xlsx,h,,,,,,,,,0,6,6,2,,,,,,,,,,,,,,,,,,,,,,,,,,,,,,,,,,,,,,,,,,,,,,,,,,,,,,,,,,,,,,,,,,,,,,,,,,,,,,,h,1478.4683066726761,None,1478.4683066726761,None,q,1,3.290416117975383,1478.4683066726761,None,l,0,2.676821187803853,1478.4683066726761,None,h,c,1481.8507598808574,None,1481.8507598808574,None,1483.8335537722974,None,None,None,None,None,None,None,None,,,,,,,,,,,,,,,,,,39_40Exp,001,2021_May_12_1112,ComputerHuman,2020.1.3,59.99170541323634,
Computer.xlsx,c,Sychronize.jpg,Number8.jpg,8,Computer,,,,,0,7,7,1,0,0,0,5,,,,,,,,,,,,,,,,,,,,,,,,,1488.852427368222,None,1488.852427368222,None,1491.9154197670073,None,1491.9154197670073,None,1492.3654020431372,None,1492.3654020431372,None,v,6.904457272641594,1492.3654020431372,None,t,7.239744455476284,1492.3654020431372,None,6.904457272641594,7.239744455476284,7.654946951322633,False,False,False,1499.681746017743,None,1499.681746017743,None,1499.681746017743,None,1499.681746017743,None,1499.681746017743,None,1499.681746017743,None,1499.681746017743,None,1499.681746017743,None,1500.713625245207,None,1500.713625245207,None,1501.679973951525,None,1501.679973951525,None,c,,,,,,,,,,,,,,,,,,,,,,,,,,,,,,,,,,,,,,,,,,,,,,,39_40Exp,001,2021_May_12_1112,ComputerHuman,2020.1.3,59.99170541323634,
Computer.xlsx,c,Sychronize.jpg,Number6.jpg,6,Computer,,,,,0,7,7,1,0,1,1,0,,,,,,,,,,,,,,,,,,,,,,,,,,,,,1502.7309606337608,None,1502.7309606337608,None,1503.1799811693904,None,1503.1799811693904,None,v,5.189752555525047,1503.1799811693904,None,t,5.0967197206528,1503.1799811693904,None,5.189752555525047,5.0967197206528,5.946650212809628,False,False,False,1508.4620819853303,None,1508.4620819853303,None,1508.4620819853303,None,1508.4620819853303,None,1508.4620819853303,None,1508.4620819853303,None,1508.4620819853303,None,1508.4620819853303,None,1509.4618683365065,None,1509.4618683365065,None,1510.4450632204835,None,1510.4450632204835,None,c,,,,,,,,,,,,,,,,,,,,,,,,,,,,,,,,,,,,,,,,,,,,,,,39_40Exp,001,2021_May_12_1112,ComputerHuman,2020.1.3,59.99170541323634,
Computer.xlsx,c,Sychronize.jpg,Number10.jpg,10,Computer,,,,,0,7,7,1,0,2,2,8,,,,,,,,,,,,,,,,,,,,,,,,,,,,,1511.480148142683,None,1511.480148142683,None,1511.945344075656,None,1511.945344075656,None,v,9.7360833936159,1511.945344075656,None,t,10.163609125307175,1511.945344075656,None,9.7360833936159,10.163609125307175,9.790702428967716,False,True,False,1522.1764113734316,None,1522.1764113734316,None,1522.1764113734316,None,1522.1764113734316,None,1522.1764113734316,None,1522.1764113734316,None,1522.1764113734316,None,1522.1764113734316,None,1523.192401351826,None,1523.192401351826,None,1524.1757399515282,None,1524.1757399515282,None,c,,,,,,,,,,,,,,,,,,,,,,,,,,,,,,,,,,,,,,,,,,,,,,,39_40Exp,001,2021_May_12_1112,ComputerHuman,2020.1.3,59.99170541323634,
Computer.xlsx,c,Sychronize.jpg,Number9.jpg,9,Computer,,,,,0,7,7,1,0,3,3,6,,,,,,,,,,,,,,,,,,,,,,,,,,,,,1525.2261116716095,None,1525.2261116716095,None,1525.6757304881044,None,1525.6757304881044,None,v,8.401335144750192,1525.6757304881044,None,t,9.292697605112153,1525.6757304881044,None,8.401335144750192,9.292697605112153,9.560702146278743,False,False,True,1535.056971736442,None,1535.056971736442,None,1535.056971736442,None,1535.056971736442,None,1535.056971736442,None,1535.056971736442,None,1535.056971736442,None,1535.056971736442,None,1536.0400633247414,None,1536.0400633247414,None,1537.0232222797872,None,1537.0232222797872,None,c,,,,,,,,,,,,,,,,,,,,,,,,,,,,,,,,,,,,,,,,,,,,,,,39_40Exp,001,2021_May_12_1112,ComputerHuman,2020.1.3,59.99170541323634,
Computer.xlsx,c,Sychronize.jpg,Number6.jpg,6,Computer,,,,,0,7,7,1,0,4,4,1,,,,,,,,,,,,,,,,,,,,,,,,,,,,,1538.090488296632,None,1538.090488296632,None,1538.5401873116339,None,1538.5401873116339,None,None,,1538.5401873116339,None,t,6.007753591689834,1538.5401873116339,None,13,6.007753591689834,6.274348349537874,False,False,True,1551.6044837381487,None,1551.6044837381487,None,1551.6044837381487,None,1551.6044837381487,None,1551.6044837381487,None,1551.6044837381487,None,1551.6044837381487,None,1551.6044837381487,None,1552.6035492651413,None,1552.6035492651413,None,1553.5866889725448,None,1553.5866889725448,None,c,,,,,,,,,,,,,,,,,,,,,,,,,,,,,,,,,,,,,,,,,,,,,,,39_40Exp,001,2021_May_12_1112,ComputerHuman,2020.1.3,59.99170541323634,
Computer.xlsx,c,Sychronize.jpg,Number10.jpg,10,Computer,,,,,0,7,7,1,0,5,5,9,,,,,,,,,,,,,,,,,,,,,,,,,,,,,1554.6538603551512,None,1554.6538603551512,None,1555.1036325111918,None,1555.1036325111918,None,v,9.940737152599922,1555.1036325111918,None,t,10.735576539049362,1555.1036325111918,None,9.940737152599922,10.735576539049362,9.685898976569636,False,True,False,1565.9343539930037,None,1565.9343539930037,None,1565.9343539930037,None,1565.9343539930037,None,1565.9343539930037,None,1565.9343539930037,None,1565.9343539930037,None,1565.9343539930037,None,1566.917667891565,None,1566.917667891565,None,1567.900665808008,None,1567.900665808008,None,c,,,,,,,,,,,,,,,,,,,,,,,,,,,,,,,,,,,,,,,,,,,,,,,39_40Exp,001,2021_May_12_1112,ComputerHuman,2020.1.3,59.99170541323634,
Computer.xlsx,c,Sychronize.jpg,Number7.jpg,7,Computer,,,,,0,7,7,1,0,6,6,3,,,,,,,,,,,,,,,,,,,,,,,,,,,,,1568.9502480539832,None,1568.9502480539832,None,1569.4009752138495,None,1569.4009752138495,None,v,6.839081374217585,1569.4009752138495,None,t,6.450754427358788,1569.4009752138495,None,6.839081374217585,6.450754427358788,6.596178571052557,False,True,True,1576.3160889433525,None,1576.3160889433525,None,1576.3160889433525,None,1576.3160889433525,None,1576.3160889433525,None,1576.3160889433525,None,1576.3160889433525,None,1576.3160889433525,None,1577.3321084347976,None,1577.3321084347976,None,1578.3152378767927,None,1578.3152378767927,None,c,,,,,,,,,,,,,,,,,,,,,,,,,,,,,,,,,,,,,,,,,,,,,,,39_40Exp,001,2021_May_12_1112,ComputerHuman,2020.1.3,59.99170541323634,
Computer.xlsx,c,Sychronize.jpg,Number8.jpg,8,Computer,,,,,0,7,7,1,0,7,7,4,,,,,,,,,,,,,,,,,,,,,,,,,,,,,1579.3494341995306,None,1579.3494341995306,None,1579.8152139776375,None,1579.8152139776375,None,v,7.544541769788793,1579.8152139776375,None,t,4.70784421600365,1579.8152139776375,None,7.544541769788793,4.70784421600365,8.41946200428716,False,False,False,1587.4148091355723,None,1587.4148091355723,None,1587.4148091355723,None,1587.4148091355723,None,1587.4148091355723,None,1587.4148091355723,None,1587.4148091355723,None,1587.4148091355723,None,1588.4467566921644,None,1588.4467566921644,None,1589.4297982365952,None,1589.4297982365952,None,c,,,,,,,,,,,,,,,,,,,,,,,,,,,,,,,,,,,,,,,,,,,,,,,39_40Exp,001,2021_May_12_1112,ComputerHuman,2020.1.3,59.99170541323634,
Computer.xlsx,c,Sychronize.jpg,Number7.jpg,7,Computer,,,,,0,7,7,1,0,8,8,2,,,,,,,,,,,,,,,,,,,,,,,,,,,,,1590.4794664553706,None,1590.4794664553706,None,1590.9298291932191,None,1590.9298291932191,None,v,7.385644467185102,1590.9298291932191,None,t,6.7407660240623954,1590.9298291932191,None,7.385644467185102,6.7407660240623954,7.376624240198109,False,True,False,1598.4113731107236,None,1598.4113731107236,None,1598.4113731107236,None,1598.4113731107236,None,1598.4113731107236,None,1598.4113731107236,None,1598.4113731107236,None,1598.4113731107236,None,1599.3945224419485,None,1599.3945224419485,None,1600.3777545380326,None,1600.3777545380326,None,c,,,,,,,,,,,,,,,,,,,,,,,,,,,,,,,,,,,,,,,,,,,,,,,39_40Exp,001,2021_May_12_1112,ComputerHuman,2020.1.3,59.99170541323634,
Computer.xlsx,c,Sychronize.jpg,Number9.jpg,9,Computer,,,,,0,7,7,1,0,9,9,7,,,,,,,,,,,,,,,,,,,,,,,,,,,,,1601.4447700147407,None,1601.4447700147407,None,1601.877473041272,None,1601.877473041272,None,v,9.489693369027009,1601.877473041272,None,t,10.620856103026199,1601.877473041272,None,9.489693369027009,10.620856103026199,9.592484543596889,False,True,False,1612.5769570440757,None,1612.5769570440757,None,1612.5769570440757,None,1612.5769570440757,None,1612.5769570440757,None,1612.5769570440757,None,1612.5769570440757,None,1612.5769570440757,None,1613.5917976174628,None,1613.5917976174628,None,1614.5581687793629,None,1614.5581687793629,None,c,,,,,,,,,,,,,,,,,,,,,,,,,,,,,,,,,,,,,,,,,,,,,,,39_40Exp,001,2021_May_12_1112,ComputerHuman,2020.1.3,59.99170541323634,
Computer.xlsx,c,,,,,,,,,0,7,7,1,,,,,,,,,,,,,,,,,,,,,,,,,,,,,,,,,,,,,,,,,,,,,,,,,,,,,,,,,,,,,,,,,,,,,,,,,,,,,,,c,1615.5592941248178,None,1615.5592941248178,None,a,1,3.1356050897184105,1615.5592941248178,None,o,0,1.5788766755472352,1615.5592941248178,None,c,h,1618.7907797380076,None,1618.7907797380076,None,1620.7738151873518,None,None,None,None,None,None,None,None,,,,,,,,,,,,,,,,,,39_40Exp,001,2021_May_12_1112,ComputerHuman,2020.1.3,59.99170541323634,
Computer.xlsx,c,Sychronize.jpg,Number7.jpg,7,Computer,,,,,0,8,8,3,0,0,0,2,,,,,,,,,,,,,,,,,,,,,,,,,1625.7918056373137,None,1625.7918056373137,None,1628.855814632378,None,1628.855814632378,None,1629.3058209680603,None,1629.3058209680603,None,v,6.120707094199588,1629.3058209680603,None,t,6.767758596076874,1629.3058209680603,None,6.120707094199588,6.767758596076874,7.126576075720258,False,False,False,1636.15538524957,None,1636.15538524957,None,1636.15538524957,None,1636.15538524957,None,1636.15538524957,None,1636.15538524957,None,1636.15538524957,None,1636.15538524957,None,1637.1705212742581,None,1637.1705212742581,None,1638.1703669723302,None,1638.1703669723302,None,c,,,,,,,,,,,,,,,,,,,,,,,,,,,,,,,,,,,,,,,,,,,,,,,39_40Exp,001,2021_May_12_1112,ComputerHuman,2020.1.3,59.99170541323634,
Computer.xlsx,c,Sychronize.jpg,Number7.jpg,7,Computer,,,,,0,8,8,3,0,1,1,3,,,,,,,,,,,,,,,,,,,,,,,,,,,,,1639.220526647558,None,1639.220526647558,None,1639.6705717993177,None,1639.6705717993177,None,v,6.972098297706452,1639.6705717993177,None,t,6.226768978575819,1639.6705717993177,None,6.972098297706452,6.226768978575819,7.035713257786922,False,True,False,1646.7201161915973,None,1646.7201161915973,None,1646.7201161915973,None,1646.7201161915973,None,1646.7201161915973,None,1646.7201161915973,None,1646.7201161915973,None,1646.7201161915973,None,1647.7347386250449,None,1647.7347386250449,None,1648.7015951483113,None,1648.7015951483113,None,c,,,,,,,,,,,,,,,,,,,,,,,,,,,,,,,,,,,,,,,,,,,,,,,39_40Exp,001,2021_May_12_1112,ComputerHuman,2020.1.3,59.99170541323634,
Computer.xlsx,c,Sychronize.jpg,Number6.jpg,6,Computer,,,,,0,8,8,3,0,2,2,0,,,,,,,,,,,,,,,,,,,,,,,,,,,,,1649.7511552594983,None,1649.7511552594983,None,1650.2015186389353,None,1650.2015186389353,None,v,6.104498334277196,1650.2015186389353,None,None,,1650.2015186389353,None,6.104498334277196,13,5.96425859193188,False,True,False,1663.2821566341008,None,1663.2821566341008,None,1663.2821566341008,None,1663.2821566341008,None,1663.2821566341008,None,1663.2821566341008,None,1663.2821566341008,None,1663.2821566341008,None,1664.2819670448293,None,1664.2819670448293,None,1665.2484732610155,None,1665.2484732610155,None,c,,,,,,,,,,,,,,,,,,,,,,,,,,,,,,,,,,,,,,,,,,,,,,,39_40Exp,001,2021_May_12_1112,ComputerHuman,2020.1.3,59.99170541323634,
Computer.xlsx,c,Sychronize.jpg,Number8.jpg,8,Computer,,,,,0,8,8,3,0,3,3,4,,,,,,,,,,,,,,,,,,,,,,,,,,,,,1666.3159548514482,None,1666.3159548514482,None,1666.7487027891439,None,1666.7487027891439,None,v,7.7529789735554,1666.7487027891439,None,None,,1666.7487027891439,None,7.7529789735554,13,7.907982712359907,False,True,False,1679.8288762745547,None,1679.8288762745547,None,1679.8288762745547,None,1679.8288762745547,None,1679.8288762745547,None,1679.8288762745547,None,1679.8288762745547,None,1679.8288762745547,None,1680.8287777907876,None,1680.8287777907876,None,1681.7953356548128,None,1681.7953356548128,None,c,,,,,,,,,,,,,,,,,,,,,,,,,,,,,,,,,,,,,,,,,,,,,,,39_40Exp,001,2021_May_12_1112,ComputerHuman,2020.1.3,59.99170541323634,
Computer.xlsx,c,Sychronize.jpg,Number6.jpg,6,Computer,,,,,0,8,8,3,0,4,4,1,,,,,,,,,,,,,,,,,,,,,,,,,,,,,1682.8624159319147,None,1682.8624159319147,None,1683.2952633157593,None,1683.2952633157593,None,v,6.182150699411068,1683.2952633157593,None,t,7.916738230467672,1683.2952633157593,None,6.182150699411068,7.916738230467672,5.902220897910075,False,True,False,1691.3100868870629,None,1691.3100868870629,None,1691.3100868870629,None,1691.3100868870629,None,1691.3100868870629,None,1691.3100868870629,None,1691.3100868870629,None,1691.3100868870629,None,1692.3098972977914,None,1692.3098972977914,None,1693.293045666634,None,1693.293045666634,None,c,,,,,,,,,,,,,,,,,,,,,,,,,,,,,,,,,,,,,,,,,,,,,,,39_40Exp,001,2021_May_12_1112,ComputerHuman,2020.1.3,59.99170541323634,
Computer.xlsx,c,Sychronize.jpg,Number10.jpg,10,Computer,,,,,0,8,8,3,0,5,5,8,,,,,,,,,,,,,,,,,,,,,,,,,,,,,1694.3431857734263,None,1694.3431857734263,None,1694.7931927506966,None,1694.7931927506966,None,v,10.327633999675982,1694.7931927506966,None,t,10.174652138974125,1694.7931927506966,None,10.327633999675982,10.174652138974125,9.790633890970273,False,False,False,1705.2073869241144,None,1705.2073869241144,None,1705.2073869241144,None,1705.2073869241144,None,1705.2073869241144,None,1705.2073869241144,None,1705.2073869241144,None,1705.2073869241144,None,1706.207153065267,None,1706.207153065267,None,1707.190292131083,None,1707.190292131083,None,c,,,,,,,,,,,,,,,,,,,,,,,,,,,,,,,,,,,,,,,,,,,,,,,39_40Exp,001,2021_May_12_1112,ComputerHuman,2020.1.3,59.99170541323634,
Computer.xlsx,c,Sychronize.jpg,Number9.jpg,9,Computer,,,,,0,8,8,3,0,6,6,6,,,,,,,,,,,,,,,,,,,,,,,,,,,,,1708.2399266664847,None,1708.2399266664847,None,1708.6905489267033,None,1708.6905489267033,None,v,9.593930897758128,1708.6905489267033,None,t,7.345762070276123,1708.6905489267033,None,9.593930897758128,7.345762070276123,9.375313681869331,False,True,False,1718.3714945633433,None,1718.3714945633433,None,1718.3714945633433,None,1718.3714945633433,None,1718.3714945633433,None,1718.3714945633433,None,1718.3714945633433,None,1718.3714945633433,None,1719.354536107774,None,1719.354536107774,None,1720.337710460933,None,1720.337710460933,None,c,,,,,,,,,,,,,,,,,,,,,,,,,,,,,,,,,,,,,,,,,,,,,,,39_40Exp,001,2021_May_12_1112,ComputerHuman,2020.1.3,59.99170541323634,
Computer.xlsx,c,Sychronize.jpg,Number9.jpg,9,Computer,,,,,0,8,8,3,0,7,7,7,,,,,,,,,,,,,,,,,,,,,,,,,,,,,1721.4050063116224,None,1721.4050063116224,None,1721.8546382806726,None,1721.8546382806726,None,v,9.865509348740034,1721.8546382806726,None,t,7.792705143771855,1721.8546382806726,None,9.865509348740034,7.792705143771855,8.871422654717925,False,False,False,1731.803504033183,None,1731.803504033183,None,1731.803504033183,None,1731.803504033183,None,1731.803504033183,None,1731.803504033183,None,1731.803504033183,None,1731.803504033183,None,1732.8020777829283,None,1732.8020777829283,None,1733.7851857317232,None,1733.7851857317232,None,c,,,,,,,,,,,,,,,,,,,,,,,,,,,,,,,,,,,,,,,,,,,,,,,39_40Exp,001,2021_May_12_1112,ComputerHuman,2020.1.3,59.99170541323634,
Computer.xlsx,c,Sychronize.jpg,Number8.jpg,8,Computer,,,,,0,8,8,3,0,8,8,5,,,,,,,,,,,,,,,,,,,,,,,,,,,,,1734.8522493275354,None,1734.8522493275354,None,1735.2853947290332,None,1735.2853947290332,None,v,8.68644821662565,1735.2853947290332,None,t,7.5097083501082125,1735.2853947290332,None,8.68644821662565,7.5097083501082125,8.228748930096511,False,False,False,1744.0666738310665,None,1744.0666738310665,None,1744.0666738310665,None,1744.0666738310665,None,1744.0666738310665,None,1744.0666738310665,None,1744.0666738310665,None,1744.0666738310665,None,1745.0663106922257,None,1745.0663106922257,None,1746.0494657977424,None,1746.0494657977424,None,c,,,,,,,,,,,,,,,,,,,,,,,,,,,,,,,,,,,,,,,,,,,,,,,39_40Exp,001,2021_May_12_1112,ComputerHuman,2020.1.3,59.99170541323634,
Computer.xlsx,c,Sychronize.jpg,Number10.jpg,10,Computer,,,,,0,8,8,3,0,9,9,9,,,,,,,,,,,,,,,,,,,,,,,,,,,,,1747.0997464123197,None,1747.0997464123197,None,1747.5333126955843,None,1747.5333126955843,None,v,10.406174001889667,1747.5333126955843,None,t,9.353900935595902,1747.5333126955843,None,10.406174001889667,9.353900935595902,9.59751337186091,False,False,True,1758.030503021078,None,1758.030503021078,None,1758.030503021078,None,1758.030503021078,None,1758.030503021078,None,1758.030503021078,None,1758.030503021078,None,1758.030503021078,None,1759.030339736917,None,1759.030339736917,None,1760.01343004204,None,1760.01343004204,None,c,,,,,,,,,,,,,,,,,,,,,,,,,,,,,,,,,,,,,,,,,,,,,,,39_40Exp,001,2021_May_12_1112,ComputerHuman,2020.1.3,59.99170541323634,
Computer.xlsx,c,,,,,,,,,0,8,8,3,,,,,,,,,,,,,,,,,,,,,,,,,,,,,,,,,,,,,,,,,,,,,,,,,,,,,,,,,,,,,,,,,,,,,,,,,,,,,,,c,1761.013701112995,None,1761.013701112995,None,a,1,4.297529083988593,1761.013701112995,None,l,0,3.0731721557199307,1761.013701112995,None,c,c,1765.3795314161612,None,1765.3795314161612,None,1767.3786611019596,None,None,None,None,None,None,None,None,,,,,,,,,,,,,,,,,,39_40Exp,001,2021_May_12_1112,ComputerHuman,2020.1.3,59.99170541323634,
Human.xlsx,h,Sychronize.jpg,Number7.jpg,7,Human,,,,,0,9,9,4,0,0,0,3,,,,,,,,,,,,,,,,,,,,,,,,,1772.3975786466663,None,1772.3975786466663,None,1775.461228352418,None,1775.461228352418,None,1775.9109135732765,None,1775.9109135732765,None,v,6.036090290687298,1775.9109135732765,None,t,6.838722726492506,1775.9109135732765,None,6.036090290687298,6.838722726492506,7.493635698656978,False,False,False,1782.8422658965474,None,1782.8422658965474,None,1782.8422658965474,None,1782.8422658965474,None,1782.8422658965474,None,1782.8422658965474,None,1782.8422658965474,None,1782.8422658965474,None,1783.8271815196977,None,1783.8271815196977,None,1784.80862615145,None,1784.80862615145,None,h,,,,,,,,,,,,,,,,,,,,,,,,,,,,,,,,,,,,,,,,,,,,,,,39_40Exp,001,2021_May_12_1112,ComputerHuman,2020.1.3,59.99170541323634,
Human.xlsx,h,Sychronize.jpg,Number9.jpg,9,Human,,,,,0,9,9,4,0,1,1,7,,,,,,,,,,,,,,,,,,,,,,,,,,,,,1785.8917025020332,None,1785.8917025020332,None,1786.3251969274347,None,1786.3251969274347,None,v,9.873405052185262,1786.3251969274347,None,t,6.8567253666274155,1786.3251969274347,None,9.873405052185262,6.8567253666274155,9.104871387919,False,False,False,1796.2745371343149,None,1796.2745371343149,None,1796.2745371343149,None,1796.2745371343149,None,1796.2745371343149,None,1796.2745371343149,None,1796.2745371343149,None,1796.2745371343149,None,1797.2752383900634,None,1797.2752383900634,None,1798.256043679315,None,1798.256043679315,None,h,,,,,,,,,,,,,,,,,,,,,,,,,,,,,,,,,,,,,,,,,,,,,,,39_40Exp,001,2021_May_12_1112,ComputerHuman,2020.1.3,59.99170541323634,
Human.xlsx,h,Sychronize.jpg,Number7.jpg,7,Human,,,,,0,9,9,4,0,2,2,2,,,,,,,,,,,,,,,,,,,,,,,,,,,,,1799.3225388281076,None,1799.3225388281076,None,1799.7561975000522,None,1799.7561975000522,None,v,6.3461001871833105,1799.7561975000522,None,t,7.48580277903875,1799.7561975000522,None,6.3461001871833105,7.48580277903875,6.853617857835205,False,False,False,1807.32156297267,None,1807.32156297267,None,1807.32156297267,None,1807.32156297267,None,1807.32156297267,None,1807.32156297267,None,1807.32156297267,None,1807.32156297267,None,1808.3239596248636,None,1808.3239596248636,None,1809.3205191088982,None,1809.3205191088982,None,h,,,,,,,,,,,,,,,,,,,,,,,,,,,,,,,,,,,,,,,,,,,,,,,39_40Exp,001,2021_May_12_1112,ComputerHuman,2020.1.3,59.99170541323634,
Human.xlsx,h,Sychronize.jpg,Number6.jpg,6,Human,,,,,0,9,9,4,0,3,3,1,,,,,,,,,,,,,,,,,,,,,,,,,,,,,1810.3873100297856,None,1810.3873100297856,None,1810.8201449026633,None,1810.8201449026633,None,v,6.17388287489166,1810.8201449026633,None,t,6.000778567109592,1810.8201449026633,None,6.17388287489166,6.000778567109592,5.663481167148639,True,False,False,1817.0857280340297,None,1817.0857280340297,None,1817.0857280340297,None,1817.0857280340297,None,1817.0857280340297,None,1817.0857280340297,None,1817.0857280340297,None,1817.0857280340297,None,1818.0546418094068,None,1818.0546418094068,None,1819.05201322313,None,1819.05201322313,None,h,,,,,,,,,,,,,,,,,,,,,,,,,,,,,,,,,,,,,,,,,,,,,,,39_40Exp,001,2021_May_12_1112,ComputerHuman,2020.1.3,59.99170541323634,
Human.xlsx,h,Sychronize.jpg,Number10.jpg,10,Human,,,,,0,9,9,4,0,4,4,9,,,,,,,,,,,,,,,,,,,,,,,,,,,,,1820.118988600584,None,1820.118988600584,None,1820.5521391347866,None,1820.5521391347866,None,v,9.893544822144122,1820.5521391347866,None,t,8.792683329777901,1820.5521391347866,None,9.893544822144122,8.792683329777901,10.040955717731624,False,False,False,1830.5330839694411,None,1830.5330839694411,None,1830.5330839694411,None,1830.5330839694411,None,1830.5330839694411,None,1830.5330839694411,None,1830.5330839694411,None,1830.5330839694411,None,1831.5184496666147,None,1831.5184496666147,None,1832.4994487154604,None,1832.4994487154604,None,h,,,,,,,,,,,,,,,,,,,,,,,,,,,,,,,,,,,,,,,,,,,,,,,39_40Exp,001,2021_May_12_1112,ComputerHuman,2020.1.3,59.99170541323634,
Human.xlsx,h,Sychronize.jpg,Number8.jpg,8,Human,,,,,0,9,9,4,0,5,5,4,,,,,,,,,,,,,,,,,,,,,,,,,,,,,1833.5670124291646,None,1833.5670124291646,None,1833.9996545048302,None,1833.9996545048302,None,v,7.5017581116781,1833.9996545048302,None,t,6.528780838330931,1833.9996545048302,None,7.5017581116781,6.528780838330931,8.519686242476917,False,False,False,1841.5975687020514,None,1841.5975687020514,None,1841.5975687020514,None,1841.5975687020514,None,1841.5975687020514,None,1841.5975687020514,None,1841.5975687020514,None,1841.5975687020514,None,1842.583175636335,None,1842.583175636335,None,1843.5805720719927,None,1843.5805720719927,None,h,,,,,,,,,,,,,,,,,,,,,,,,,,,,,,,,,,,,,,,,,,,,,,,39_40Exp,001,2021_May_12_1112,ComputerHuman,2020.1.3,59.99170541323634,
Human.xlsx,h,Sychronize.jpg,Number8.jpg,8,Human,,,,,0,9,9,4,0,6,6,5,,,,,,,,,,,,,,,,,,,,,,,,,,,,,1844.6142102131193,None,1844.6142102131193,None,1845.080599179088,None,1845.080599179088,None,v,7.524559509698065,1845.080599179088,None,t,7.827726548753162,1845.080599179088,None,7.524559509698065,7.827726548753162,8.510431645724283,False,False,False,1852.995416494908,None,1852.995416494908,None,1852.995416494908,None,1852.995416494908,None,1852.995416494908,None,1852.995416494908,None,1852.995416494908,None,1852.995416494908,None,1853.963716912101,None,1853.963716912101,None,1854.978337741578,None,1854.978337741578,None,h,,,,,,,,,,,,,,,,,,,,,,,,,,,,,,,,,,,,,,,,,,,,,,,39_40Exp,001,2021_May_12_1112,ComputerHuman,2020.1.3,59.99170541323634,
Human.xlsx,h,Sychronize.jpg,Number6.jpg,6,Human,,,,,0,9,9,4,0,7,7,0,,,,,,,,,,,,,,,,,,,,,,,,,,,,,1856.028169565308,None,1856.028169565308,None,1856.4782153586557,None,1856.4782153586557,None,v,5.722859622136639,1856.4782153586557,None,t,6.938009120174229,1856.4782153586557,None,5.722859622136639,6.938009120174229,6.372963312948407,False,False,False,1863.4947494037242,None,1863.4947494037242,None,1863.4947494037242,None,1863.4947494037242,None,1863.4947494037242,None,1863.4947494037242,None,1863.4947494037242,None,1863.4947494037242,None,1864.4956081693408,None,1864.4956081693408,None,1865.4763608483718,None,1865.4763608483718,None,h,,,,,,,,,,,,,,,,,,,,,,,,,,,,,,,,,,,,,,,,,,,,,,,39_40Exp,001,2021_May_12_1112,ComputerHuman,2020.1.3,59.99170541323634,
Human.xlsx,h,Sychronize.jpg,Number10.jpg,10,Human,,,,,0,9,9,4,0,8,8,8,,,,,,,,,,,,,,,,,,,,,,,,,,,,,1866.527185208829,None,1866.527185208829,None,1866.976458530154,None,1866.976458530154,None,v,9.700071055877288,1866.976458530154,None,t,6.755735556649597,1866.976458530154,None,9.700071055877288,6.755735556649597,10.602852494979329,False,False,False,1876.7741212248557,None,1876.7741212248557,None,1876.7741212248557,None,1876.7741212248557,None,1876.7741212248557,None,1876.7741212248557,None,1876.7741212248557,None,1876.7741212248557,None,1877.7601974808044,None,1877.7601974808044,None,1878.757146408791,None,1878.757146408791,None,h,,,,,,,,,,,,,,,,,,,,,,,,,,,,,,,,,,,,,,,,,,,,,,,39_40Exp,001,2021_May_12_1112,ComputerHuman,2020.1.3,59.99170541323634,
Human.xlsx,h,Sychronize.jpg,Number9.jpg,9,Human,,,,,0,9,9,4,0,9,9,6,,,,,,,,,,,,,,,,,,,,,,,,,,,,,1879.8074613483295,None,1879.8074613483295,None,1880.2574558146325,None,1880.2574558146325,None,v,9.102970071521213,1880.2574558146325,None,t,7.789770840784968,1880.2574558146325,None,9.102970071521213,7.789770840784968,9.58631338759346,False,False,False,1889.455046651472,None,1889.455046651472,None,1889.455046651472,None,1889.455046651472,None,1889.455046651472,None,1889.455046651472,None,1889.455046651472,None,1889.455046651472,None,1890.4410372554148,None,1890.4410372554148,None,1891.4379226661836,None,1891.4379226661836,None,h,,,,,,,,,,,,,,,,,,,,,,,,,,,,,,,,,,,,,,,,,,,,,,,39_40Exp,001,2021_May_12_1112,ComputerHuman,2020.1.3,59.99170541323634,
Human.xlsx,h,,,,,,,,,0,9,9,4,,,,,,,,,,,,,,,,,,,,,,,,,,,,,,,,,,,,,,,,,,,,,,,,,,,,,,,,,,,,,,,,,,,,,,,,,,,,,,,h,1892.4383499638307,None,1892.4383499638307,None,q,1,3.637705809419458,1892.4383499638307,None,o,0,3.032864385927951,1892.4383499638307,None,h,h,1896.1542438644133,None,1896.1542438644133,None,None,None,1898.1700349505095,None,1898.1700349505095,None,"['space', 'space']",1899.153106007991,None,"[503.1503959400311, 504.08636513097235]",,,,,,,,,,,,,,,,,39_40Exp,001,2021_May_12_1112,ComputerHuman,2020.1.3,59.99170541323634,
Computer.xlsx,c,Sychronize.jpg,Number9.jpg,9,Computer,,,,,1,0,10,5,0,0,0,7,,,,,,,,,,,,,,,,,,,,,,,,,2403.2915966400033,None,2403.2915966400033,None,2406.3722391262854,None,2406.3722391262854,None,2406.8221803407796,None,2406.8221803407796,None,v,8.048995834489233,2406.8221803407796,None,t,7.905101106258371,2406.8221803407796,None,8.048995834489233,7.905101106258371,9.52489320678018,False,False,False,2414.9550667010985,None,2414.9550667010985,None,2414.9550667010985,None,2414.9550667010985,None,2414.9550667010985,None,2414.9550667010985,None,2414.9550667010985,None,2414.9550667010985,None,2415.986525046796,None,2415.986525046796,None,2416.9529953340507,None,2416.9529953340507,None,c,,,,,,,,,,,,,,,,,,,,,,,,,,,,,,,,,,,,,,,,,,,,,,,39_40Exp,001,2021_May_12_1112,ComputerHuman,2020.1.3,59.99170541323634,
Computer.xlsx,c,Sychronize.jpg,Number8.jpg,8,Computer,,,,,1,0,10,5,0,1,1,4,,,,,,,,,,,,,,,,,,,,,,,,,,,,,2418.020417256794,None,2418.020417256794,None,2418.4532315988536,None,2418.4532315988536,None,v,7.357672190205449,2418.4532315988536,None,t,11.628631508710441,2418.4532315988536,None,7.357672190205449,11.628631508710441,8.381361456073106,False,False,False,2430.1669489119467,None,2430.1669489119467,None,2430.1669489119467,None,2430.1669489119467,None,2430.1669489119467,None,2430.1669489119467,None,2430.1669489119467,None,2430.1669489119467,None,2431.1501694594463,None,2431.1501694594463,None,2432.1333714008915,None,2432.1333714008915,None,c,,,,,,,,,,,,,,,,,,,,,,,,,,,,,,,,,,,,,,,,,,,,,,,39_40Exp,001,2021_May_12_1112,ComputerHuman,2020.1.3,59.99170541323634,
Computer.xlsx,c,Sychronize.jpg,Number6.jpg,6,Computer,,,,,1,0,10,5,0,2,2,1,,,,,,,,,,,,,,,,,,,,,,,,,,,,,2433.1836940394865,None,2433.1836940394865,None,2433.633571095175,None,2433.633571095175,None,v,5.696971543965901,2433.633571095175,None,t,7.307753752087592,2433.633571095175,None,5.696971543965901,7.307753752087592,6.257757578620665,False,False,False,2441.0316434438523,None,2441.0316434438523,None,2441.0316434438523,None,2441.0316434438523,None,2441.0316434438523,None,2441.0316434438523,None,2441.0316434438523,None,2441.0316434438523,None,2442.0314830468374,None,2442.0314830468374,None,2443.014574955931,None,2443.014574955931,None,c,,,,,,,,,,,,,,,,,,,,,,,,,,,,,,,,,,,,,,,,,,,,,,,39_40Exp,001,2021_May_12_1112,ComputerHuman,2020.1.3,59.99170541323634,
Computer.xlsx,c,Sychronize.jpg,Number7.jpg,7,Computer,,,,,1,0,10,5,0,3,3,2,,,,,,,,,,,,,,,,,,,,,,,,,,,,,2444.0644096668075,None,2444.0644096668075,None,2444.5146148947874,None,2444.5146148947874,None,v,6.795631747701918,2444.5146148947874,None,t,8.070815281986143,2444.5146148947874,None,6.795631747701918,8.070815281986143,6.725697526819534,False,True,False,2452.6632676400627,None,2452.6632676400627,None,2452.6632676400627,None,2452.6632676400627,None,2452.6632676400627,None,2452.6632676400627,None,2452.6632676400627,None,2452.6632676400627,None,2453.6625365504697,None,2453.6625365504697,None,2454.6622901806554,None,2454.6622901806554,None,c,,,,,,,,,,,,,,,,,,,,,,,,,,,,,,,,,,,,,,,,,,,,,,,39_40Exp,001,2021_May_12_1112,ComputerHuman,2020.1.3,59.99170541323634,
Computer.xlsx,c,Sychronize.jpg,Number6.jpg,6,Computer,,,,,1,0,10,5,0,4,4,0,,,,,,,,,,,,,,,,,,,,,,,,,,,,,2455.7121909751017,None,2455.7121909751017,None,2456.1622948321688,None,2456.1622948321688,None,v,5.6917025020329675,2456.1622948321688,None,t,7.1067557618616775,2456.1622948321688,None,5.6917025020329675,7.1067557618616775,6.026646714140041,False,False,False,2463.345056323412,None,2463.345056323412,None,2463.345056323412,None,2463.345056323412,None,2463.345056323412,None,2463.345056323412,None,2463.345056323412,None,2463.345056323412,None,2464.360530144213,None,2464.360530144213,None,2465.3269930532056,None,2465.3269930532056,None,c,,,,,,,,,,,,,,,,,,,,,,,,,,,,,,,,,,,,,,,,,,,,,,,39_40Exp,001,2021_May_12_1112,ComputerHuman,2020.1.3,59.99170541323634,
Computer.xlsx,c,Sychronize.jpg,Number10.jpg,10,Computer,,,,,1,0,10,5,0,5,5,8,,,,,,,,,,,,,,,,,,,,,,,,,,,,,2466.377231643765,None,2466.377231643765,None,2466.827025934593,None,2466.827025934593,None,v,9.70662070757544,2466.827025934593,None,t,7.129749636299948,2466.827025934593,None,9.70662070757544,7.129749636299948,10.680027583835326,False,False,False,2476.6093530707208,None,2476.6093530707208,None,2476.6093530707208,None,2476.6093530707208,None,2476.6093530707208,None,2476.6093530707208,None,2476.6093530707208,None,2476.6093530707208,None,2477.624586937588,None,2477.624586937588,None,2478.607741722311,None,2478.607741722311,None,c,,,,,,,,,,,,,,,,,,,,,,,,,,,,,,,,,,,,,,,,,,,,,,,39_40Exp,001,2021_May_12_1112,ComputerHuman,2020.1.3,59.99170541323634,
Computer.xlsx,c,Sychronize.jpg,Number10.jpg,10,Computer,,,,,1,0,10,5,0,6,6,9,,,,,,,,,,,,,,,,,,,,,,,,,,,,,2479.641410980459,None,2479.641410980459,None,2480.107804437544,None,2480.107804437544,None,v,10.101505005188756,2480.107804437544,None,t,10.164619626499643,2480.107804437544,None,10.101505005188756,10.164619626499643,9.620093517194203,False,False,False,2490.3401083963026,None,2490.3401083963026,None,2490.3401083963026,None,2490.3401083963026,None,2490.3401083963026,None,2490.3401083963026,None,2490.3401083963026,None,2490.3401083963026,None,2491.3551430500775,None,2491.3551430500775,None,2492.338335046908,None,2492.338335046908,None,c,,,,,,,,,,,,,,,,,,,,,,,,,,,,,,,,,,,,,,,,,,,,,,,39_40Exp,001,2021_May_12_1112,ComputerHuman,2020.1.3,59.99170541323634,
Computer.xlsx,c,Sychronize.jpg,Number7.jpg,7,Computer,,,,,1,0,10,5,0,7,7,3,,,,,,,,,,,,,,,,,,,,,,,,,,,,,2493.388285885223,None,2493.388285885223,None,2493.8385883137944,None,2493.8385883137944,None,v,6.658238872858419,2493.8385883137944,None,t,7.901787624728968,2493.8385883137944,None,6.658238872858419,7.901787624728968,6.70526673476562,False,True,False,2501.804900770387,None,2501.804900770387,None,2501.804900770387,None,2501.804900770387,None,2501.804900770387,None,2501.804900770387,None,2501.804900770387,None,2501.804900770387,None,2502.819583513112,None,2502.819583513112,None,2503.802816571578,None,2503.802816571578,None,c,,,,,,,,,,,,,,,,,,,,,,,,,,,,,,,,,,,,,,,,,,,,,,,39_40Exp,001,2021_May_12_1112,ComputerHuman,2020.1.3,59.99170541323634,
Computer.xlsx,c,Sychronize.jpg,Number8.jpg,8,Computer,,,,,1,0,10,5,0,8,8,5,,,,,,,,,,,,,,,,,,,,,,,,,,,,,2504.8860857193727,None,2504.8860857193727,None,2505.319697555389,None,2505.319697555389,None,v,7.465045480573735,2505.319697555389,None,t,7.168626664720705,2505.319697555389,None,7.465045480573735,7.168626664720705,7.631295046378933,False,True,False,2512.852657377541,None,2512.852657377541,None,2512.852657377541,None,2512.852657377541,None,2512.852657377541,None,2512.852657377541,None,2512.852657377541,None,2512.852657377541,None,2513.867564676086,None,2513.867564676086,None,2514.834051323837,None,2514.834051323837,None,c,,,,,,,,,,,,,,,,,,,,,,,,,,,,,,,,,,,,,,,,,,,,,,,39_40Exp,001,2021_May_12_1112,ComputerHuman,2020.1.3,59.99170541323634,
Computer.xlsx,c,Sychronize.jpg,Number9.jpg,9,Computer,,,,,1,0,10,5,0,9,9,6,,,,,,,,,,,,,,,,,,,,,,,,,,,,,2515.9010202854106,None,2515.9010202854106,None,2516.333920279476,None,2516.333920279476,None,v,8.254774938929131,2516.333920279476,None,t,7.68577198281173,2516.333920279476,None,8.254774938929131,7.68577198281173,9.01086166552255,False,False,False,2524.6821293666085,None,2524.6821293666085,None,2524.6821293666085,None,2524.6821293666085,None,2524.6821293666085,None,2524.6821293666085,None,2524.6821293666085,None,2524.6821293666085,None,2525.6818242914865,None,2525.6818242914865,None,2526.6650961660303,None,2526.6650961660303,None,c,,,,,,,,,,,,,,,,,,,,,,,,,,,,,,,,,,,,,,,,,,,,,,,39_40Exp,001,2021_May_12_1112,ComputerHuman,2020.1.3,59.99170541323634,
Computer.xlsx,c,,,,,,,,,1,0,10,5,,,,,,,,,,,,,,,,,,,,,,,,,,,,,,,,,,,,,,,,,,,,,,,,,,,,,,,,,,,,,,,,,,,,,,,,,,,,,,,c,2527.6656675001964,None,2527.6656675001964,None,q,0,4.214637510766806,2527.6656675001964,None,l,0,3.50603622085373,2527.6656675001964,None,h,c,2531.964571828189,None,2531.964571828189,None,2533.947022470018,None,None,None,None,None,None,None,None,,,,,,,,,,,,,,,,,,39_40Exp,001,2021_May_12_1112,ComputerHuman,2020.1.3,59.99170541323634,
Computer.xlsx,c,Sychronize.jpg,Number10.jpg,10,Computer,,,,,1,1,11,1,0,0,0,9,,,,,,,,,,,,,,,,,,,,,,,,,2538.9655226616924,None,2538.9655226616924,None,2542.0453147230023,None,2542.0453147230023,None,2542.478861437831,None,2542.478861437831,None,v,8.789109684290906,2542.478861437831,None,t,7.99964071068689,2542.478861437831,None,8.789109684290906,7.99964071068689,9.8685864574082,False,False,False,2551.360157381551,None,2551.360157381551,None,2551.360157381551,None,2551.360157381551,None,2551.360157381551,None,2551.360157381551,None,2551.360157381551,None,2551.360157381551,None,2552.3434485037365,None,2552.3434485037365,None,2553.3265882111405,None,2553.3265882111405,None,c,,,,,,,,,,,,,,,,,,,,,,,,,,,,,,,,,,,,,,,,,,,,,,,39_40Exp,001,2021_May_12_1112,ComputerHuman,2020.1.3,59.99170541323634,
Computer.xlsx,c,Sychronize.jpg,Number6.jpg,6,Computer,,,,,1,1,11,1,0,1,1,1,,,,,,,,,,,,,,,,,,,,,,,,,,,,,2554.409745401819,None,2554.409745401819,None,2554.859787987226,None,2554.859787987226,None,v,6.3558680445839855,2554.859787987226,None,t,5.246806094445219,2554.859787987226,None,6.3558680445839855,5.246806094445219,5.7731663264569635,False,False,False,2561.3083879618835,None,2561.3083879618835,None,2561.3083879618835,None,2561.3083879618835,None,2561.3083879618835,None,2561.3083879618835,None,2561.3083879618835,None,2561.3083879618835,None,2562.3081156077524,None,2562.3081156077524,None,2563.291329097783,None,2563.291329097783,None,c,,,,,,,,,,,,,,,,,,,,,,,,,,,,,,,,,,,,,,,,,,,,,,,39_40Exp,001,2021_May_12_1112,ComputerHuman,2020.1.3,59.99170541323634,
Computer.xlsx,c,Sychronize.jpg,Number7.jpg,7,Computer,,,,,1,1,11,1,0,2,2,3,,,,,,,,,,,,,,,,,,,,,,,,,,,,,2564.341671625608,None,2564.341671625608,None,2564.774636740861,None,2564.774636740861,None,v,9.924569133519071,2564.774636740861,None,t,6.287921302808627,2564.774636740861,None,9.924569133519071,6.287921302808627,6.491948041115819,False,False,True,2574.7740981276856,None,2574.7740981276856,None,2574.7740981276856,None,2574.7740981276856,None,2574.7740981276856,None,2574.7740981276856,None,2574.7740981276856,None,2574.7740981276856,None,2575.7889136791387,None,2575.7889136791387,None,2576.772079050065,None,2576.772079050065,None,c,,,,,,,,,,,,,,,,,,,,,,,,,,,,,,,,,,,,,,,,,,,,,,,39_40Exp,001,2021_May_12_1112,ComputerHuman,2020.1.3,59.99170541323634,
Computer.xlsx,c,Sychronize.jpg,Number7.jpg,7,Computer,,,,,1,1,11,1,0,3,3,2,,,,,,,,,,,,,,,,,,,,,,,,,,,,,2577.805164783873,None,2577.805164783873,None,2578.2723711330286,None,2578.2723711330286,None,v,6.7305849839522125,2578.2723711330286,None,t,6.609701132242208,2578.2723711330286,None,6.7305849839522125,6.609701132242208,6.896719425044087,False,True,True,2585.0708749496753,None,2585.0708749496753,None,2585.0708749496753,None,2585.0708749496753,None,2585.0708749496753,None,2585.0708749496753,None,2585.0708749496753,None,2585.0708749496753,None,2586.0701752978975,None,2586.0701752978975,None,2587.0533849383996,None,2587.0533849383996,None,c,,,,,,,,,,,,,,,,,,,,,,,,,,,,,,,,,,,,,,,,,,,,,,,39_40Exp,001,2021_May_12_1112,ComputerHuman,2020.1.3,59.99170541323634,
Computer.xlsx,c,Sychronize.jpg,Number9.jpg,9,Computer,,,,,1,1,11,1,0,4,4,6,,,,,,,,,,,,,,,,,,,,,,,,,,,,,2588.136697393388,None,2588.136697393388,None,2588.569962771853,None,2588.569962771853,None,v,8.60867555373079,2588.569962771853,None,t,8.531634942810342,2588.569962771853,None,8.60867555373079,8.531634942810342,9.144903830218437,False,False,False,2597.2519959002525,None,2597.2519959002525,None,2597.2519959002525,None,2597.2519959002525,None,2597.2519959002525,None,2597.2519959002525,None,2597.2519959002525,None,2597.2519959002525,None,2598.2512968900623,None,2598.2512968900623,None,2599.2343756466007,None,2599.2343756466007,None,c,,,,,,,,,,,,,,,,,,,,,,,,,,,,,,,,,,,,,,,,,,,,,,,39_40Exp,001,2021_May_12_1112,ComputerHuman,2020.1.3,59.99170541323634,
Computer.xlsx,c,Sychronize.jpg,Number8.jpg,8,Computer,,,,,1,1,11,1,0,5,5,5,,,,,,,,,,,,,,,,,,,,,,,,,,,,,2600.3014023510996,None,2600.3014023510996,None,2600.7346054955224,None,2600.7346054955224,None,v,7.347809698565925,2600.7346054955224,None,t,6.6227526373277215,2600.7346054955224,None,7.347809698565925,6.6227526373277215,7.901218832439674,False,False,False,2608.165945789017,None,2608.165945789017,None,2608.165945789017,None,2608.165945789017,None,2608.165945789017,None,2608.165945789017,None,2608.165945789017,None,2608.165945789017,None,2609.165744651161,None,2609.165744651161,None,2610.1489289489346,None,2610.1489289489346,None,c,,,,,,,,,,,,,,,,,,,,,,,,,,,,,,,,,,,,,,,,,,,,,,,39_40Exp,001,2021_May_12_1112,ComputerHuman,2020.1.3,59.99170541323634,
Computer.xlsx,c,Sychronize.jpg,Number6.jpg,6,Computer,,,,,1,1,11,1,0,6,6,0,,,,,,,,,,,,,,,,,,,,,,,,,,,,,2611.2163479845312,None,2611.2163479845312,None,2611.64917579994,None,2611.64917579994,None,v,5.79298776331143,2611.64917579994,None,t,5.2879408712447,2611.64917579994,None,5.79298776331143,5.2879408712447,6.000098779208396,False,True,False,2617.5155840135503,None,2617.5155840135503,None,2617.5155840135503,None,2617.5155840135503,None,2617.5155840135503,None,2617.5155840135503,None,2617.5155840135503,None,2617.5155840135503,None,2618.5140153307466,None,2618.5140153307466,None,2619.4971322617744,None,2619.4971322617744,None,c,,,,,,,,,,,,,,,,,,,,,,,,,,,,,,,,,,,,,,,,,,,,,,,39_40Exp,001,2021_May_12_1112,ComputerHuman,2020.1.3,59.99170541323634,
Computer.xlsx,c,Sychronize.jpg,Number9.jpg,9,Computer,,,,,1,1,11,1,0,7,7,7,,,,,,,,,,,,,,,,,,,,,,,,,,,,,2620.547341339283,None,2620.547341339283,None,2620.996897280148,None,2620.996897280148,None,v,7.944952386146269,2620.996897280148,None,t,7.360770418941229,2620.996897280148,None,7.944952386146269,7.360770418941229,8.65033575632467,False,False,False,2629.028656851439,None,2629.028656851439,None,2629.028656851439,None,2629.028656851439,None,2629.028656851439,None,2629.028656851439,None,2629.028656851439,None,2629.028656851439,None,2630.0284027825674,None,2630.0284027825674,None,2630.9948923174643,None,2630.9948923174643,None,c,,,,,,,,,,,,,,,,,,,,,,,,,,,,,,,,,,,,,,,,,,,,,,,39_40Exp,001,2021_May_12_1112,ComputerHuman,2020.1.3,59.99170541323634,
Computer.xlsx,c,Sychronize.jpg,Number10.jpg,10,Computer,,,,,1,1,11,1,0,8,8,8,,,,,,,,,,,,,,,,,,,,,,,,,,,,,2632.0622924262134,None,2632.0622924262134,None,2632.494931293939,None,2632.494931293939,None,v,9.534562188328437,2632.494931293939,None,t,7.797680979961569,2632.494931293939,None,9.534562188328437,7.797680979961569,10.177928071629005,False,False,False,2642.1260839229262,None,2642.1260839229262,None,2642.1260839229262,None,2642.1260839229262,None,2642.1260839229262,None,2642.1260839229262,None,2642.1260839229262,None,2642.1260839229262,None,2643.125755750634,None,2643.125755750634,None,2644.109018322151,None,2644.109018322151,None,c,,,,,,,,,,,,,,,,,,,,,,,,,,,,,,,,,,,,,,,,,,,,,,,39_40Exp,001,2021_May_12_1112,ComputerHuman,2020.1.3,59.99170541323634,
Computer.xlsx,c,Sychronize.jpg,Number8.jpg,8,Computer,,,,,1,1,11,1,0,9,9,4,,,,,,,,,,,,,,,,,,,,,,,,,,,,,2645.1585444291713,None,2645.1585444291713,None,2645.6092552285418,None,2645.6092552285418,None,v,8.591974054178536,2645.6092552285418,None,t,7.911731598051574,2645.6092552285418,None,8.591974054178536,7.911731598051574,8.268672226230635,False,False,False,2654.27361003957,None,2654.27361003957,None,2654.27361003957,None,2654.27361003957,None,2654.27361003957,None,2654.27361003957,None,2654.27361003957,None,2654.27361003957,None,2655.2901819383337,None,2655.2901819383337,None,2656.2732898871286,None,2656.2732898871286,None,c,,,,,,,,,,,,,,,,,,,,,,,,,,,,,,,,,,,,,,,,,,,,,,,39_40Exp,001,2021_May_12_1112,ComputerHuman,2020.1.3,59.99170541323634,
Computer.xlsx,c,,,,,,,,,1,1,11,1,,,,,,,,,,,,,,,,,,,,,,,,,,,,,,,,,,,,,,,,,,,,,,,,,,,,,,,,,,,,,,,,,,,,,,,,,,,,,,,c,2657.274399513676,None,2657.274399513676,None,a,1,3.5466426498869623,2657.274399513676,None,o,0,2.561832247178245,2657.274399513676,None,c,h,2660.905896675451,None,2660.905896675451,None,2662.9053907832667,None,None,None,None,None,None,None,None,,,,,,,,,,,,,,,,,,39_40Exp,001,2021_May_12_1112,ComputerHuman,2020.1.3,59.99170541323634,
