Condition,CorrectTuringReply,Sychronize,NumberImage,Number,Partner,trials.thisRepN,trials.thisTrialN,trials.thisN,trials.thisIndex,Block.thisRepN,Block.thisTrialN,Block.thisN,Block.thisIndex,trials_loop.thisRepN,trials_loop.thisTrialN,trials_loop.thisN,trials_loop.thisIndex,key_resp_Istr.keys,key_resp_Istr.rt,key_resp_Istr.started,key_resp_Istr.stopped,key_respPrLeft.keys,key_respPrLeft.rt,key_respPrRight.keys,key_respPrRight.rt,RTPrLeft,RTPrRight,CompPr,SychronizedRTsPr,SychronizedRTsLeftCPr,SychronizedRTsRightCPr,CreditLeftPr.started,CreditLeftPr.stopped,CreditRightPr.started,CreditRightPr.stopped,text_StartExp.started,text_StartExp.stopped,key_startExp.keys,key_startExp.rt,key_startExp.started,key_startExp.stopped,SychroLeft.started,SychroLeft.stopped,SychroRight.started,SychroRight.stopped,NumberLeft.started,NumberLeft.stopped,NumberRight.started,NumberRight.stopped,CrossLeft.started,CrossLeft.stopped,CrossRight.started,CrossRight.stopped,key_respLeft.keys,key_respLeft.rt,key_respLeft.started,key_respLeft.stopped,key_respRight.keys,key_respRight.rt,key_respRight.started,key_respRight.stopped,RTLeft,RTRight,Comp,SychronizedRTs,SychronizedRTsLeftC,SychronizedRTsRightC,FeedbackLeftLeft.started,FeedbackLeftLeft.stopped,FeedbackLeftRight.started,FeedbackLeftRight.stopped,FeedbackRightLeft.started,FeedbackRightLeft.stopped,FeedbackRightRight.started,FeedbackRightRight.stopped,textLeftLeft.started,textLeftLeft.stopped,textLeftRight.started,textLeftRight.stopped,textRightLeft.started,textRightLeft.stopped,textRightRight.started,textRightRight.stopped,CreditLeft.started,CreditLeft.stopped,CreditRight.started,CreditRight.stopped,BlankLeft.started,BlankLeft.stopped,BlankRight.started,BlankRight.stopped,CorrectTuringReply,TuringtextLeft.started,TuringtextLeft.stopped,TuringtextRight.started,TuringtextRight.stopped,keyTuringLeft.keys,keyTuringLeft.corr,keyTuringLeft.rt,keyTuringLeft.started,keyTuringLeft.stopped,keyTuringRight.keys,keyTuringRight.corr,keyTuringRight.rt,keyTuringRight.started,keyTuringRight.stopped,RespTuringLeft,RespTuringRight,ScoreLeft.started,ScoreLeft.stopped,ScoreRight.started,ScoreRight.stopped,BlockText.started,BlockText.stopped,text_Pause.started,text_Pause.stopped,text_LongPause.started,text_LongPause.stopped,key_respPause.keys,key_respPause.started,key_respPause.stopped,key_respPause.rt,QuestImageLeft.started,QuestImageLeft.stopped,QuestImageRight.started,QuestImageRight.stopped,respQuestLeft.keys,respQuestLeft.rt,respQuestLeft.started,respQuestLeft.stopped,respQuestRight.keys,respQuestRight.rt,respQuestRight.started,respQuestRight.stopped,RespInclusionLeft,RespInclusionRight,EndText.started,EndText.stopped,participant,session,date,expName,psychopyVersion,frameRate,
,,,,,,,,,,,,,,,,,,"['t', 't', 'v']","[5.001002472014079, 17.38045497152416, 22.25257130062164]",17.83206781265835,None,,,,,,,,,,,,,,,,,,,,,,,,,,,,,,,,,,,,,,,,,,,,,,,,,,,,,,,,,,,,,,,,,,,,,,,,,,,,,,,,,,,,,,,,,,,,,,,,,,,,,,,,,,,,,,,,,,,,,,3_4,001,2021_Apr_22_1508,ComputerHuman,2020.1.3,60.07214915469044,
,,,,,,,,,,,,,,,,,,,,,,v,6.5538236047032115,t,7.4007931237792945,6.5538236047032115,7.4007931237792945,8,False,False,False,102.78147970643477,None,102.78147970643477,None,103.79792698410893,None,"['space', 'space']","[0.937151901616744, 1.7171017555592698]",104.78107518893012,None,,,,,,,,,,,,,,,,,,,,,,,,,,,,,,,,,,,,,,,,,,,,,,,,,,,,,,,,,,,,,,,,,,,,,,,,,,,,,,,,,,,,,,,,,,,,,,,,,,3_4,001,2021_Apr_22_1508,ComputerHuman,2020.1.3,60.07214915469044,
Computer.xlsx,c,Sychronize.jpg,Number9.jpg,9,Computer,,,,,0,0,0,3,0,0,0,7,,,,,,,,,,,,,,,,,,,,,,,,,106.58329467801013,None,106.58329467801013,None,109.63105116167935,None,109.63105116167935,None,110.06365937893497,None,110.06365937893497,None,v,7.890174298605416,110.06365937893497,None,t,8.305829029923189,110.06365937893497,None,7.890174298605416,8.305829029923189,8.681949285106553,False,False,False,118.44643976474254,None,118.44643976474254,None,118.44643976474254,None,118.44643976474254,None,118.44643976474254,None,118.44643976474254,None,118.44643976474254,None,118.44643976474254,None,119.46084649057593,None,119.46084649057593,None,120.46128982380105,None,120.46128982380105,None,c,,,,,,,,,,,,,,,,,,,,,,,,,,,,,,,,,,,,,,,,,,,,,,,3_4,001,2021_Apr_22_1508,ComputerHuman,2020.1.3,60.07214915469044,
Computer.xlsx,c,Sychronize.jpg,Number10.jpg,10,Computer,,,,,0,0,0,3,0,1,1,8,,,,,,,,,,,,,,,,,,,,,,,,,,,,,121.4947136843657,None,121.4947136843657,None,121.94470877626372,None,121.94470877626372,None,v,9.188662346252386,121.94470877626372,None,t,8.979817110608565,121.94470877626372,None,9.188662346252386,8.979817110608565,10.083832480204464,False,False,False,131.20955931650678,None,131.20955931650678,None,131.20955931650678,None,131.20955931650678,None,131.20955931650678,None,131.20955931650678,None,131.20955931650678,None,131.20955931650678,None,132.22537463582194,None,132.22537463582194,None,133.20866270553597,None,133.20866270553597,None,c,,,,,,,,,,,,,,,,,,,,,,,,,,,,,,,,,,,,,,,,,,,,,,,3_4,001,2021_Apr_22_1508,ComputerHuman,2020.1.3,60.07214915469044,
Computer.xlsx,c,Sychronize.jpg,Number7.jpg,7,Computer,,,,,0,0,0,3,0,2,2,2,,,,,,,,,,,,,,,,,,,,,,,,,,,,,134.2590175966725,None,134.2590175966725,None,134.70942715059937,None,134.70942715059937,None,v,5.7316249285431695,134.70942715059937,None,t,7.7987244706455385,134.70942715059937,None,5.7316249285431695,7.7987244706455385,7.100909779768966,False,False,False,142.6065626148811,None,142.6065626148811,None,142.6065626148811,None,142.6065626148811,None,142.6065626148811,None,142.6065626148811,None,142.6065626148811,None,142.6065626148811,None,143.5898657617763,None,143.5898657617763,None,144.57301621213628,None,144.57301621213628,None,c,,,,,,,,,,,,,,,,,,,,,,,,,,,,,,,,,,,,,,,,,,,,,,,3_4,001,2021_Apr_22_1508,ComputerHuman,2020.1.3,60.07214915469044,
Computer.xlsx,c,Sychronize.jpg,Number9.jpg,9,Computer,,,,,0,0,0,3,0,3,3,6,,,,,,,,,,,,,,,,,,,,,,,,,,,,,145.63965317355178,None,145.63965317355178,None,146.08989367059985,None,146.08989367059985,None,v,7.998667433999799,146.08989367059985,None,t,8.365741890240315,146.08989367059985,None,7.998667433999799,8.365741890240315,9.153474156452953,False,False,False,154.53933571873495,None,154.53933571873495,None,154.53933571873495,None,154.53933571873495,None,154.53933571873495,None,154.53933571873495,None,154.53933571873495,None,154.53933571873495,None,155.5540125506268,None,155.5540125506268,None,156.520639375045,None,156.520639375045,None,c,,,,,,,,,,,,,,,,,,,,,,,,,,,,,,,,,,,,,,,,,,,,,,,3_4,001,2021_Apr_22_1508,ComputerHuman,2020.1.3,60.07214915469044,
Computer.xlsx,c,Sychronize.jpg,Number6.jpg,6,Computer,,,,,0,0,0,3,0,4,4,1,,,,,,,,,,,,,,,,,,,,,,,,,,,,,157.57040882252113,None,157.57040882252113,None,158.02049405670186,None,158.02049405670186,None,v,5.40777834878827,158.02049405670186,None,t,5.134908353204082,158.02049405670186,None,5.40777834878827,5.134908353204082,5.584606836252468,False,True,False,163.50277612570426,None,163.50277612570426,None,163.50277612570426,None,163.50277612570426,None,163.50277612570426,None,163.50277612570426,None,163.50277612570426,None,163.50277612570426,None,164.51897158240172,None,164.51897158240172,None,165.50210021897146,None,165.50210021897146,None,c,,,,,,,,,,,,,,,,,,,,,,,,,,,,,,,,,,,,,,,,,,,,,,,3_4,001,2021_Apr_22_1508,ComputerHuman,2020.1.3,60.07214915469044,
Computer.xlsx,c,Sychronize.jpg,Number8.jpg,8,Computer,,,,,0,0,0,3,0,5,5,5,,,,,,,,,,,,,,,,,,,,,,,,,,,,,166.55207818062627,None,166.55207818062627,None,167.00207936755396,None,167.00207936755396,None,v,6.633831778461172,167.00207936755396,None,t,6.876807898133848,167.00207936755396,None,6.633831778461172,6.876807898133848,8.315827235544806,False,False,False,173.9669739203273,None,173.9669739203273,None,173.9669739203273,None,173.9669739203273,None,173.9669739203273,None,173.9669739203273,None,173.9669739203273,None,173.9669739203273,None,174.95004834320935,None,174.95004834320935,None,175.9333360921337,None,175.9333360921337,None,c,,,,,,,,,,,,,,,,,,,,,,,,,,,,,,,,,,,,,,,,,,,,,,,3_4,001,2021_Apr_22_1508,ComputerHuman,2020.1.3,60.07214915469044,
Computer.xlsx,c,Sychronize.jpg,Number10.jpg,10,Computer,,,,,0,0,0,3,0,6,6,9,,,,,,,,,,,,,,,,,,,,,,,,,,,,,176.98309591587895,None,176.98309591587895,None,177.4336074813582,None,177.4336074813582,None,v,9.04984451258133,177.4336074813582,None,t,8.392740626968589,177.4336074813582,None,9.04984451258133,8.392740626968589,10.40946704584493,False,False,False,186.5663142456251,None,186.5663142456251,None,186.5663142456251,None,186.5663142456251,None,186.5663142456251,None,186.5663142456251,None,186.5663142456251,None,186.5663142456251,None,187.58094873309892,None,187.58094873309892,None,188.54746007274298,None,188.54746007274298,None,c,,,,,,,,,,,,,,,,,,,,,,,,,,,,,,,,,,,,,,,,,,,,,,,3_4,001,2021_Apr_22_1508,ComputerHuman,2020.1.3,60.07214915469044,
Computer.xlsx,c,Sychronize.jpg,Number8.jpg,8,Computer,,,,,0,0,0,3,0,7,7,4,,,,,,,,,,,,,,,,,,,,,,,,,,,,,189.6142981701414,None,189.6142981701414,None,190.0474270312625,None,190.0474270312625,None,v,7.475718363428314,190.0474270312625,None,t,7.082791677654313,190.0474270312625,None,7.475718363428314,7.082791677654313,8.296625784328867,False,False,False,197.61227911130482,None,197.61227911130482,None,197.61227911130482,None,197.61227911130482,None,197.61227911130482,None,197.61227911130482,None,197.61227911130482,None,197.61227911130482,None,198.61200002309488,None,198.61200002309488,None,199.59517421199052,None,199.59517421199052,None,c,,,,,,,,,,,,,,,,,,,,,,,,,,,,,,,,,,,,,,,,,,,,,,,3_4,001,2021_Apr_22_1508,ComputerHuman,2020.1.3,60.07214915469044,
Computer.xlsx,c,Sychronize.jpg,Number7.jpg,7,Computer,,,,,0,0,0,3,0,8,8,3,,,,,,,,,,,,,,,,,,,,,,,,,,,,,200.64569014023073,None,200.64569014023073,None,201.09541159736546,None,201.09541159736546,None,v,6.319347806143924,201.09541159736546,None,t,6.414886115973786,201.09541159736546,None,6.319347806143924,6.414886115973786,6.852483222842373,False,False,False,207.56073793488758,None,207.56073793488758,None,207.56073793488758,None,207.56073793488758,None,207.56073793488758,None,207.56073793488758,None,207.56073793488758,None,207.56073793488758,None,208.57664852913877,None,208.57664852913877,None,209.55986474166275,None,209.55986474166275,None,c,,,,,,,,,,,,,,,,,,,,,,,,,,,,,,,,,,,,,,,,,,,,,,,3_4,001,2021_Apr_22_1508,ComputerHuman,2020.1.3,60.07214915469044,
Computer.xlsx,c,Sychronize.jpg,Number6.jpg,6,Computer,,,,,0,0,0,3,0,9,9,0,,,,,,,,,,,,,,,,,,,,,,,,,,,,,210.62675929828765,None,210.62675929828765,None,211.0603055085594,None,211.0603055085594,None,v,5.730156667930714,211.0603055085594,None,t,5.2498355945899675,211.0603055085594,None,5.730156667930714,5.2498355945899675,5.583821815201086,False,True,False,216.87485299750188,None,216.87485299750188,None,216.87485299750188,None,216.87485299750188,None,216.87485299750188,None,216.87485299750188,None,216.87485299750188,None,216.87485299750188,None,217.8747891600833,None,217.8747891600833,None,218.85794249756145,None,218.85794249756145,None,c,,,,,,,,,,,,,,,,,,,,,,,,,,,,,,,,,,,,,,,,,,,,,,,3_4,001,2021_Apr_22_1508,ComputerHuman,2020.1.3,60.07214915469044,
Computer.xlsx,c,,,,,,,,,0,0,0,3,,,,,,,,,,,,,,,,,,,,,,,,,,,,,,,,,,,,,,,,,,,,,,,,,,,,,,,,,,,,,,,,,,,,,,,,,,,,,,,c,219.85940626709998,None,219.85940626709998,None,q,0,8.046685041579622,219.85940626709998,None,o,0,7.8858288631090545,219.85940626709998,None,h,h,228.00632696178218,None,228.00632696178218,None,229.98902413439282,None,None,None,None,None,None,None,None,,,,,,,,,,,,,,,,,,3_4,001,2021_Apr_22_1508,ComputerHuman,2020.1.3,60.07214915469044,
Computer.xlsx,c,Sychronize.jpg,Number7.jpg,7,Computer,,,,,0,1,1,5,0,0,0,2,,,,,,,,,,,,,,,,,,,,,,,,,234.99076667134796,None,234.99076667134796,None,238.07059135262534,None,238.07059135262534,None,238.4876293349298,None,238.4876293349298,None,v,6.581884801369597,238.4876293349298,None,t,6.152801436117443,238.4876293349298,None,6.581884801369597,6.152801436117443,7.447889846211615,False,False,False,245.15238921962373,None,245.15238921962373,None,245.15238921962373,None,245.15238921962373,None,245.15238921962373,None,245.15238921962373,None,245.15238921962373,None,245.15238921962373,None,246.16910050832303,None,246.16910050832303,None,247.15225897845812,None,247.15225897845812,None,c,,,,,,,,,,,,,,,,,,,,,,,,,,,,,,,,,,,,,,,,,,,,,,,3_4,001,2021_Apr_22_1508,ComputerHuman,2020.1.3,60.07214915469044,
Computer.xlsx,c,Sychronize.jpg,Number9.jpg,9,Computer,,,,,0,1,1,5,0,1,1,7,,,,,,,,,,,,,,,,,,,,,,,,,,,,,248.20242492366742,None,248.20242492366742,None,248.65245754811622,None,248.65245754811622,None,v,7.840599892086175,248.65245754811622,None,t,8.875787141027104,248.65245754811622,None,7.840599892086175,8.875787141027104,8.444006555547125,False,False,False,257.6163120963247,None,257.6163120963247,None,257.6163120963247,None,257.6163120963247,None,257.6163120963247,None,257.6163120963247,None,257.6163120963247,None,257.6163120963247,None,258.59995335698113,None,258.59995335698113,None,259.58293410887563,None,259.58293410887563,None,c,,,,,,,,,,,,,,,,,,,,,,,,,,,,,,,,,,,,,,,,,,,,,,,3_4,001,2021_Apr_22_1508,ComputerHuman,2020.1.3,60.07214915469044,
Computer.xlsx,c,Sychronize.jpg,Number10.jpg,10,Computer,,,,,0,1,1,5,0,2,2,8,,,,,,,,,,,,,,,,,,,,,,,,,,,,,260.65034738462055,None,260.65034738462055,None,261.0831355656519,None,261.0831355656519,None,v,9.517460335791839,261.0831355656519,None,t,9.416717512049217,261.0831355656519,None,9.517460335791839,9.416717512049217,10.577243212571254,False,False,False,270.68139642908136,None,270.68139642908136,None,270.68139642908136,None,270.68139642908136,None,270.68139642908136,None,270.68139642908136,None,270.68139642908136,None,270.68139642908136,None,271.6972803976787,None,271.6972803976787,None,272.66369614158975,None,272.66369614158975,None,c,,,,,,,,,,,,,,,,,,,,,,,,,,,,,,,,,,,,,,,,,,,,,,,3_4,001,2021_Apr_22_1508,ComputerHuman,2020.1.3,60.07214915469044,
Computer.xlsx,c,Sychronize.jpg,Number6.jpg,6,Computer,,,,,0,1,1,5,0,3,3,0,,,,,,,,,,,,,,,,,,,,,,,,,,,,,273.73067314151194,None,273.73067314151194,None,274.16369967029095,None,274.16369967029095,None,v,6.080566991757223,274.16369967029095,None,t,5.275841162238066,274.16369967029095,None,6.080566991757223,5.275841162238066,6.402073099410637,False,False,False,280.31254735677794,None,280.31254735677794,None,280.31254735677794,None,280.31254735677794,None,280.31254735677794,None,280.31254735677794,None,280.31254735677794,None,280.31254735677794,None,281.32852692110464,None,281.32852692110464,None,282.31177681668487,None,282.31177681668487,None,c,,,,,,,,,,,,,,,,,,,,,,,,,,,,,,,,,,,,,,,,,,,,,,,3_4,001,2021_Apr_22_1508,ComputerHuman,2020.1.3,60.07214915469044,
Computer.xlsx,c,Sychronize.jpg,Number7.jpg,7,Computer,,,,,0,1,1,5,0,4,4,3,,,,,,,,,,,,,,,,,,,,,,,,,,,,,283.3618474869545,None,283.3618474869545,None,283.81207098207597,None,283.81207098207597,None,v,6.607846741437243,283.81207098207597,None,t,6.298808197108883,283.81207098207597,None,6.607846741437243,6.298808197108883,6.711019706269177,False,True,False,290.4934722230246,None,290.4934722230246,None,290.4934722230246,None,290.4934722230246,None,290.4934722230246,None,290.4934722230246,None,290.4934722230246,None,290.4934722230246,None,291.49329001371007,None,291.49329001371007,None,292.4763952325302,None,292.4763952325302,None,c,,,,,,,,,,,,,,,,,,,,,,,,,,,,,,,,,,,,,,,,,,,,,,,3_4,001,2021_Apr_22_1508,ComputerHuman,2020.1.3,60.07214915469044,
Computer.xlsx,c,Sychronize.jpg,Number9.jpg,9,Computer,,,,,0,1,1,5,0,5,5,6,,,,,,,,,,,,,,,,,,,,,,,,,,,,,293.54264596153007,None,293.54264596153007,None,293.97664512875417,None,293.97664512875417,None,v,7.638961868851766,293.97664512875417,None,t,8.865727133852488,293.97664512875417,None,7.638961868851766,8.865727133852488,8.760239637479296,False,False,True,302.92460287672293,None,302.92460287672293,None,302.92460287672293,None,302.92460287672293,None,302.92460287672293,None,302.92460287672293,None,302.92460287672293,None,302.92460287672293,None,303.9408008997525,None,303.9408008997525,None,304.9071627507692,None,304.9071627507692,None,c,,,,,,,,,,,,,,,,,,,,,,,,,,,,,,,,,,,,,,,,,,,,,,,3_4,001,2021_Apr_22_1508,ComputerHuman,2020.1.3,60.07214915469044,
Computer.xlsx,c,Sychronize.jpg,Number6.jpg,6,Computer,,,,,0,1,1,5,0,6,6,1,,,,,,,,,,,,,,,,,,,,,,,,,,,,,305.95747305194527,None,305.95747305194527,None,306.40745274587243,None,306.40745274587243,None,v,5.667686782187957,306.40745274587243,None,t,5.34685531746436,306.40745274587243,None,5.667686782187957,5.34685531746436,6.344793947015439,False,False,False,312.17220865275885,None,312.17220865275885,None,312.17220865275885,None,312.17220865275885,None,312.17220865275885,None,312.17220865275885,None,312.17220865275885,None,312.17220865275885,None,313.17210535804406,None,313.17210535804406,None,314.15523335302714,None,314.15523335302714,None,c,,,,,,,,,,,,,,,,,,,,,,,,,,,,,,,,,,,,,,,,,,,,,,,3_4,001,2021_Apr_22_1508,ComputerHuman,2020.1.3,60.07214915469044,
Computer.xlsx,c,Sychronize.jpg,Number8.jpg,8,Computer,,,,,0,1,1,5,0,7,7,4,,,,,,,,,,,,,,,,,,,,,,,,,,,,,315.20563636281804,None,315.20563636281804,None,315.65550410067226,None,315.65550410067226,None,v,7.075325266079744,315.65550410067226,None,t,7.982776408000063,315.65550410067226,None,7.075325266079744,7.982776408000063,7.686797515252895,False,False,True,323.7367360922617,None,323.7367360922617,None,323.7367360922617,None,323.7367360922617,None,323.7367360922617,None,323.7367360922617,None,323.7367360922617,None,323.7367360922617,None,324.71969599274234,None,324.71969599274234,None,325.70297828822004,None,325.70297828822004,None,c,,,,,,,,,,,,,,,,,,,,,,,,,,,,,,,,,,,,,,,,,,,,,,,3_4,001,2021_Apr_22_1508,ComputerHuman,2020.1.3,60.07214915469044,
Computer.xlsx,c,Sychronize.jpg,Number10.jpg,10,Computer,,,,,0,1,1,5,0,8,8,9,,,,,,,,,,,,,,,,,,,,,,,,,,,,,326.75323790441325,None,326.75323790441325,None,327.2032169567574,None,327.2032169567574,None,v,8.995225025293621,327.2032169567574,None,t,9.506683039842756,327.2032169567574,None,8.995225025293621,9.506683039842756,9.917731561539009,False,False,False,336.80015359475146,None,336.80015359475146,None,336.80015359475146,None,336.80015359475146,None,336.80015359475146,None,336.80015359475146,None,336.80015359475146,None,336.80015359475146,None,337.8004387779911,None,337.8004387779911,None,338.76698508385743,None,338.76698508385743,None,c,,,,,,,,,,,,,,,,,,,,,,,,,,,,,,,,,,,,,,,,,,,,,,,3_4,001,2021_Apr_22_1508,ComputerHuman,2020.1.3,60.07214915469044,
Computer.xlsx,c,Sychronize.jpg,Number8.jpg,8,Computer,,,,,0,1,1,5,0,9,9,5,,,,,,,,,,,,,,,,,,,,,,,,,,,,,339.83394219473485,None,339.83394219473485,None,340.2672452453953,None,340.2672452453953,None,v,7.6066732877952745,340.2672452453953,None,t,7.457810844920459,340.2672452453953,None,7.6066732877952745,7.457810844920459,8.19166675369835,False,False,False,347.94873021280364,None,347.94873021280364,None,347.94873021280364,None,347.94873021280364,None,347.94873021280364,None,347.94873021280364,None,347.94873021280364,None,347.94873021280364,None,348.9648486796541,None,348.9648486796541,None,349.94800875374494,None,349.94800875374494,None,c,,,,,,,,,,,,,,,,,,,,,,,,,,,,,,,,,,,,,,,,,,,,,,,3_4,001,2021_Apr_22_1508,ComputerHuman,2020.1.3,60.07214915469044,
Computer.xlsx,c,,,,,,,,,0,1,1,5,,,,,,,,,,,,,,,,,,,,,,,,,,,,,,,,,,,,,,,,,,,,,,,,,,,,,,,,,,,,,,,,,,,,,,,,,,,,,,,c,350.9488184303409,None,350.9488184303409,None,q,0,7.692875615837693,350.9488184303409,None,l,0,4.375901021845493,350.9488184303409,None,h,c,358.72934763291414,None,358.72934763291414,None,360.71250674463226,None,None,None,None,None,None,None,None,,,,,,,,,,,,,,,,,,3_4,001,2021_Apr_22_1508,ComputerHuman,2020.1.3,60.07214915469044,
Human.xlsx,h,Sychronize.jpg,Number8.jpg,8,Human,,,,,0,2,2,4,0,0,0,5,,,,,,,,,,,,,,,,,,,,,,,,,365.731413848036,None,365.731413848036,None,368.79434054022204,None,368.79434054022204,None,369.2443154222856,None,369.2443154222856,None,v,6.844688694745855,369.2443154222856,None,t,7.863852751775994,369.2443154222856,None,6.844688694745855,7.863852751775994,8.36248881024648,False,False,False,377.17652136756806,None,377.17652136756806,None,377.17652136756806,None,377.17652136756806,None,377.17652136756806,None,377.17652136756806,None,377.17652136756806,None,377.17652136756806,None,378.1779174501971,None,378.1779174501971,None,379.1921682715838,None,379.1921682715838,None,h,,,,,,,,,,,,,,,,,,,,,,,,,,,,,,,,,,,,,,,,,,,,,,,3_4,001,2021_Apr_22_1508,ComputerHuman,2020.1.3,60.07214915469044,
Human.xlsx,h,Sychronize.jpg,Number9.jpg,9,Human,,,,,0,2,2,4,0,1,1,6,,,,,,,,,,,,,,,,,,,,,,,,,,,,,380.24189858254977,None,380.24189858254977,None,380.6922237684339,None,380.6922237684339,None,v,8.532341832371458,380.6922237684339,None,t,9.100000834056118,380.6922237684339,None,8.532341832371458,9.100000834056118,9.056642948183931,False,False,False,389.8733863408452,None,389.8733863408452,None,389.8733863408452,None,389.8733863408452,None,389.8733863408452,None,389.8733863408452,None,389.8733863408452,None,389.8733863408452,None,390.8591598995772,None,390.8591598995772,None,391.85617686365003,None,391.85617686365003,None,h,,,,,,,,,,,,,,,,,,,,,,,,,,,,,,,,,,,,,,,,,,,,,,,3_4,001,2021_Apr_22_1508,ComputerHuman,2020.1.3,60.07214915469044,
Human.xlsx,h,Sychronize.jpg,Number8.jpg,8,Human,,,,,0,2,2,4,0,2,2,4,,,,,,,,,,,,,,,,,,,,,,,,,,,,,392.90640215520034,None,392.90640215520034,None,393.3561072519951,None,393.3561072519951,None,v,7.784020050723484,393.3561072519951,None,t,7.523782485706761,393.3561072519951,None,7.784020050723484,7.523782485706761,8.317988373814266,True,False,False,401.2214494365944,None,401.2214494365944,None,401.2214494365944,None,401.2214494365944,None,401.2214494365944,None,401.2214494365944,None,401.2214494365944,None,401.2214494365944,None,402.2233113078182,None,402.2233113078182,None,403.2205675820114,None,403.2205675820114,None,h,,,,,,,,,,,,,,,,,,,,,,,,,,,,,,,,,,,,,,,,,,,,,,,3_4,001,2021_Apr_22_1508,ComputerHuman,2020.1.3,60.07214915469044,
Human.xlsx,h,Sychronize.jpg,Number10.jpg,10,Human,,,,,0,2,2,4,0,3,3,8,,,,,,,,,,,,,,,,,,,,,,,,,,,,,404.27083521797977,None,404.27083521797977,None,404.7041148508906,None,404.7041148508906,None,v,9.807601079653978,404.7041148508906,None,t,9.290842634669389,404.7041148508906,None,9.807601079653978,9.290842634669389,9.944822665440162,False,False,False,414.58664277414937,None,414.58664277414937,None,414.58664277414937,None,414.58664277414937,None,414.58664277414937,None,414.58664277414937,None,414.58664277414937,None,414.58664277414937,None,415.5873003957895,None,415.5873003957895,None,416.5845351769822,None,416.5845351769822,None,h,,,,,,,,,,,,,,,,,,,,,,,,,,,,,,,,,,,,,,,,,,,,,,,3_4,001,2021_Apr_22_1508,ComputerHuman,2020.1.3,60.07214915469044,
Human.xlsx,h,Sychronize.jpg,Number6.jpg,6,Human,,,,,0,2,2,4,0,4,4,0,,,,,,,,,,,,,,,,,,,,,,,,,,,,,417.6345763344725,None,417.6345763344725,None,418.0846978180416,None,418.0846978180416,None,v,5.370623046783294,418.0846978180416,None,t,7.281776758947672,418.0846978180416,None,5.370623046783294,7.281776758947672,6.317854563990025,False,False,False,425.44920690829895,None,425.44920690829895,None,425.44920690829895,None,425.44920690829895,None,425.44920690829895,None,425.44920690829895,None,425.44920690829895,None,425.44920690829895,None,426.41898486315404,None,426.41898486315404,None,427.4156810361783,None,427.4156810361783,None,h,,,,,,,,,,,,,,,,,,,,,,,,,,,,,,,,,,,,,,,,,,,,,,,3_4,001,2021_Apr_22_1508,ComputerHuman,2020.1.3,60.07214915469044,
Human.xlsx,h,Sychronize.jpg,Number9.jpg,9,Human,,,,,0,2,2,4,0,5,5,7,,,,,,,,,,,,,,,,,,,,,,,,,,,,,428.5001443559704,None,428.5001443559704,None,428.9320493992527,None,428.9320493992527,None,v,8.518794505747792,428.9320493992527,None,t,7.777753076865338,428.9320493992527,None,8.518794505747792,7.777753076865338,9.080865747447167,False,False,False,437.5467819204714,None,437.5467819204714,None,437.5467819204714,None,437.5467819204714,None,437.5467819204714,None,437.5467819204714,None,437.5467819204714,None,437.5467819204714,None,438.5324634121753,None,438.5324634121753,None,439.51322396925025,None,439.51322396925025,None,h,,,,,,,,,,,,,,,,,,,,,,,,,,,,,,,,,,,,,,,,,,,,,,,3_4,001,2021_Apr_22_1508,ComputerHuman,2020.1.3,60.07214915469044,
Human.xlsx,h,Sychronize.jpg,Number6.jpg,6,Human,,,,,0,2,2,4,0,6,6,1,,,,,,,,,,,,,,,,,,,,,,,,,,,,,440.5640661419784,None,440.5640661419784,None,441.0131020686531,None,441.0131020686531,None,v,5.089562614241004,441.0131020686531,None,t,4.957125635246484,441.0131020686531,None,5.089562614241004,4.957125635246484,5.863773610940212,True,False,False,446.1949360567196,None,446.1949360567196,None,446.1949360567196,None,446.1949360567196,None,446.1949360567196,None,446.1949360567196,None,446.1949360567196,None,446.1949360567196,None,447.1811850277809,None,447.1811850277809,None,448.17813109703275,None,448.17813109703275,None,h,,,,,,,,,,,,,,,,,,,,,,,,,,,,,,,,,,,,,,,,,,,,,,,3_4,001,2021_Apr_22_1508,ComputerHuman,2020.1.3,60.07214915469044,
Human.xlsx,h,Sychronize.jpg,Number10.jpg,10,Human,,,,,0,2,2,4,0,7,7,9,,,,,,,,,,,,,,,,,,,,,,,,,,,,,449.2282261474211,None,449.2282261474211,None,449.6780332557646,None,449.6780332557646,None,v,8.744424491240352,449.6780332557646,None,t,9.403710076752759,449.6780332557646,None,8.744424491240352,9.403710076752759,10.662023433746597,False,False,False,459.1439652467816,None,459.1439652467816,None,459.1439652467816,None,459.1439652467816,None,459.1439652467816,None,459.1439652467816,None,459.1439652467816,None,459.1439652467816,None,460.1447354660777,None,460.1447354660777,None,461.14215438133033,None,461.14215438133033,None,h,,,,,,,,,,,,,,,,,,,,,,,,,,,,,,,,,,,,,,,,,,,,,,,3_4,001,2021_Apr_22_1508,ComputerHuman,2020.1.3,60.07214915469044,
Human.xlsx,h,Sychronize.jpg,Number7.jpg,7,Human,,,,,0,2,2,4,0,8,8,2,,,,,,,,,,,,,,,,,,,,,,,,,,,,,462.1932259196583,None,462.1932259196583,None,462.65905333279443,None,462.65905333279443,None,v,6.302873582026223,462.65905333279443,None,t,6.4700432490499225,462.65905333279443,None,6.302873582026223,6.4700432490499225,6.769513815848978,True,False,False,469.1905072155532,None,469.1905072155532,None,469.1905072155532,None,469.1905072155532,None,469.1905072155532,None,469.1905072155532,None,469.1905072155532,None,469.1905072155532,None,470.2092305056867,None,470.2092305056867,None,471.19013124844787,None,471.19013124844787,None,h,,,,,,,,,,,,,,,,,,,,,,,,,,,,,,,,,,,,,,,,,,,,,,,3_4,001,2021_Apr_22_1508,ComputerHuman,2020.1.3,60.07214915469044,
Human.xlsx,h,Sychronize.jpg,Number7.jpg,7,Human,,,,,0,2,2,4,0,9,9,3,,,,,,,,,,,,,,,,,,,,,,,,,,,,,472.25744443738586,None,472.25744443738586,None,472.6902842657764,None,472.6902842657764,None,v,6.65118946111761,472.6902842657764,None,t,6.450834922852664,472.6902842657764,None,6.65118946111761,6.450834922852664,7.1754321370975065,True,False,False,479.43822687240754,None,479.43822687240754,None,479.43822687240754,None,479.43822687240754,None,479.43822687240754,None,479.43822687240754,None,479.43822687240754,None,479.43822687240754,None,480.4240450210964,None,480.4240450210964,None,481.42126921618546,None,481.42126921618546,None,h,,,,,,,,,,,,,,,,,,,,,,,,,,,,,,,,,,,,,,,,,,,,,,,3_4,001,2021_Apr_22_1508,ComputerHuman,2020.1.3,60.07214915469044,
Human.xlsx,h,,,,,,,,,0,2,2,4,,,,,,,,,,,,,,,,,,,,,,,,,,,,,,,,,,,,,,,,,,,,,,,,,,,,,,,,,,,,,,,,,,,,,,,,,,,,,,,h,482.42207985515415,None,482.42207985515415,None,q,0,2.423624143248162,482.42207985515415,None,o,1,4.4938655128426035,482.42207985515415,None,h,h,487.0038193381806,None,487.0038193381806,None,488.9865033583592,None,None,None,None,None,None,None,None,,,,,,,,,,,,,,,,,,3_4,001,2021_Apr_22_1508,ComputerHuman,2020.1.3,60.07214915469044,
Computer.xlsx,c,Sychronize.jpg,Number9.jpg,9,Computer,,,,,0,3,3,1,0,0,0,7,,,,,,,,,,,,,,,,,,,,,,,,,493.98825648142156,None,493.98825648142156,None,497.08499198342906,None,497.08499198342906,None,497.51867388831306,None,497.51867388831306,None,v,7.849903794765851,497.51867388831306,None,t,7.837211697067687,497.51867388831306,None,7.849903794765851,7.837211697067687,9.115126902736408,False,False,False,505.46624508307286,None,505.46624508307286,None,505.46624508307286,None,505.46624508307286,None,505.46624508307286,None,505.46624508307286,None,505.46624508307286,None,505.46624508307286,None,506.4830596664906,None,506.4830596664906,None,507.44942055513457,None,507.44942055513457,None,c,,,,,,,,,,,,,,,,,,,,,,,,,,,,,,,,,,,,,,,,,,,,,,,3_4,001,2021_Apr_22_1508,ComputerHuman,2020.1.3,60.07214915469044,
Computer.xlsx,c,Sychronize.jpg,Number10.jpg,10,Computer,,,,,0,3,3,1,0,1,1,8,,,,,,,,,,,,,,,,,,,,,,,,,,,,,508.4993824772355,None,508.4993824772355,None,508.949541493359,None,508.949541493359,None,v,9.070561839853326,508.949541493359,None,t,8.565732651459257,508.949541493359,None,9.070561839853326,8.565732651459257,9.997184967731265,False,False,False,518.0988315506947,None,518.0988315506947,None,518.0988315506947,None,518.0988315506947,None,518.0988315506947,None,518.0988315506947,None,518.0988315506947,None,518.0988315506947,None,519.1137117641119,None,519.1137117641119,None,520.0968997470227,None,520.0968997470227,None,c,,,,,,,,,,,,,,,,,,,,,,,,,,,,,,,,,,,,,,,,,,,,,,,3_4,001,2021_Apr_22_1508,ComputerHuman,2020.1.3,60.07214915469044,
Computer.xlsx,c,Sychronize.jpg,Number9.jpg,9,Computer,,,,,0,3,3,1,0,2,2,6,,,,,,,,,,,,,,,,,,,,,,,,,,,,,521.1299550186777,None,521.1299550186777,None,521.5802718639934,None,521.5802718639934,None,v,8.739462816149171,521.5802718639934,None,t,7.418861358601134,521.5802718639934,None,8.739462816149171,7.418861358601134,8.959052088865251,False,True,False,530.3945261499211,None,530.3945261499211,None,530.3945261499211,None,530.3945261499211,None,530.3945261499211,None,530.3945261499211,None,530.3945261499211,None,530.3945261499211,None,531.4111777714897,None,531.4111777714897,None,532.3943481108909,None,532.3943481108909,None,c,,,,,,,,,,,,,,,,,,,,,,,,,,,,,,,,,,,,,,,,,,,,,,,3_4,001,2021_Apr_22_1508,ComputerHuman,2020.1.3,60.07214915469044,
Computer.xlsx,c,Sychronize.jpg,Number8.jpg,8,Computer,,,,,0,3,3,1,0,3,3,4,,,,,,,,,,,,,,,,,,,,,,,,,,,,,533.4442506866508,None,533.4442506866508,None,533.8946063476833,None,533.8946063476833,None,v,6.888788160500553,533.8946063476833,None,t,7.419763102228899,533.8946063476833,None,6.888788160500553,7.419763102228899,8.266123312342494,False,False,False,541.4092543083825,None,541.4092543083825,None,541.4092543083825,None,541.4092543083825,None,541.4092543083825,None,541.4092543083825,None,541.4092543083825,None,541.4092543083825,None,542.3922450048012,None,542.3922450048012,None,543.3753960967406,None,543.3753960967406,None,c,,,,,,,,,,,,,,,,,,,,,,,,,,,,,,,,,,,,,,,,,,,,,,,3_4,001,2021_Apr_22_1508,ComputerHuman,2020.1.3,60.07214915469044,
Computer.xlsx,c,Sychronize.jpg,Number7.jpg,7,Computer,,,,,0,3,3,1,0,4,4,2,,,,,,,,,,,,,,,,,,,,,,,,,,,,,544.442453936008,None,544.442453936008,None,544.8921397853373,None,544.8921397853373,None,v,6.366894171675085,544.8921397853373,None,t,6.513755520012637,544.8921397853373,None,6.366894171675085,6.513755520012637,6.953025058561693,False,False,False,551.4903791557663,None,551.4903791557663,None,551.4903791557663,None,551.4903791557663,None,551.4903791557663,None,551.4903791557663,None,551.4903791557663,None,551.4903791557663,None,552.4902874095278,None,552.4902874095278,None,553.4734243866624,None,553.4734243866624,None,c,,,,,,,,,,,,,,,,,,,,,,,,,,,,,,,,,,,,,,,,,,,,,,,3_4,001,2021_Apr_22_1508,ComputerHuman,2020.1.3,60.07214915469044,
Computer.xlsx,c,Sychronize.jpg,Number8.jpg,8,Computer,,,,,0,3,3,1,0,5,5,5,,,,,,,,,,,,,,,,,,,,,,,,,,,,,554.5237003631992,None,554.5237003631992,None,554.956830828276,None,554.956830828276,None,v,7.049779391996708,554.956830828276,None,t,7.452824148120271,554.956830828276,None,7.049779391996708,7.452824148120271,8.424482830237677,False,False,False,562.5049485226591,None,562.5049485226591,None,562.5049485226591,None,562.5049485226591,None,562.5049485226591,None,562.5049485226591,None,562.5049485226591,None,562.5049485226591,None,563.5047002303909,None,563.5047002303909,None,564.4878551718248,None,564.4878551718248,None,c,,,,,,,,,,,,,,,,,,,,,,,,,,,,,,,,,,,,,,,,,,,,,,,3_4,001,2021_Apr_22_1508,ComputerHuman,2020.1.3,60.07214915469044,
Computer.xlsx,c,Sychronize.jpg,Number6.jpg,6,Computer,,,,,0,3,3,1,0,6,6,1,,,,,,,,,,,,,,,,,,,,,,,,,,,,,565.554946052569,None,565.554946052569,None,565.9876851525696,None,565.9876851525696,None,v,5.55458099236057,565.9876851525696,None,t,5.589952375361463,565.9876851525696,None,5.55458099236057,5.589952375361463,6.0444360797015735,False,False,False,571.6533653867737,None,571.6533653867737,None,571.6533653867737,None,571.6533653867737,None,571.6533653867737,None,571.6533653867737,None,571.6533653867737,None,571.6533653867737,None,572.6528441013252,None,572.6528441013252,None,573.6360426703395,None,573.6360426703395,None,c,,,,,,,,,,,,,,,,,,,,,,,,,,,,,,,,,,,,,,,,,,,,,,,3_4,001,2021_Apr_22_1508,ComputerHuman,2020.1.3,60.07214915469044,
Computer.xlsx,c,Sychronize.jpg,Number10.jpg,10,Computer,,,,,0,3,3,1,0,7,7,9,,,,,,,,,,,,,,,,,,,,,,,,,,,,,574.6861659503375,None,574.6861659503375,None,575.1361809312803,None,575.1361809312803,None,v,9.138095733029331,575.1361809312803,None,t,8.724845330598328,575.1361809312803,None,9.138095733029331,8.724845330598328,9.888540926674443,False,False,False,584.35167616529,None,584.35167616529,None,584.35167616529,None,584.35167616529,None,584.35167616529,None,584.35167616529,None,584.35167616529,None,584.35167616529,None,585.366964424913,None,585.366964424913,None,586.3500032399897,None,586.3500032399897,None,c,,,,,,,,,,,,,,,,,,,,,,,,,,,,,,,,,,,,,,,,,,,,,,,3_4,001,2021_Apr_22_1508,ComputerHuman,2020.1.3,60.07214915469044,
Computer.xlsx,c,Sychronize.jpg,Number6.jpg,6,Computer,,,,,0,3,3,1,0,8,8,0,,,,,,,,,,,,,,,,,,,,,,,,,,,,,587.4002240404661,None,587.4002240404661,None,587.8334995030928,None,587.8334995030928,None,v,5.492065233502217,587.8334995030928,None,t,6.0068395858725125,587.8334995030928,None,5.492065233502217,6.0068395858725125,6.2599054334391715,False,False,True,593.9003180322397,None,593.9003180322397,None,593.9003180322397,None,593.9003180322397,None,593.9003180322397,None,593.9003180322397,None,593.9003180322397,None,593.9003180322397,None,594.9147029442829,None,594.9147029442829,None,595.9148485834194,None,595.9148485834194,None,c,,,,,,,,,,,,,,,,,,,,,,,,,,,,,,,,,,,,,,,,,,,,,,,3_4,001,2021_Apr_22_1508,ComputerHuman,2020.1.3,60.07214915469044,
Computer.xlsx,c,Sychronize.jpg,Number7.jpg,7,Computer,,,,,0,3,3,1,0,9,9,3,,,,,,,,,,,,,,,,,,,,,,,,,,,,,596.9650863858187,None,596.9650863858187,None,597.4147523461033,None,597.4147523461033,None,v,6.82242868333924,597.4147523461033,None,t,6.441922706038895,597.4147523461033,None,6.82242868333924,6.441922706038895,6.978681178336618,False,True,False,604.3137246599108,None,604.3137246599108,None,604.3137246599108,None,604.3137246599108,None,604.3137246599108,None,604.3137246599108,None,604.3137246599108,None,604.3137246599108,None,605.3295447910896,None,605.3295447910896,None,606.2960638297191,None,606.2960638297191,None,c,,,,,,,,,,,,,,,,,,,,,,,,,,,,,,,,,,,,,,,,,,,,,,,3_4,001,2021_Apr_22_1508,ComputerHuman,2020.1.3,60.07214915469044,
Computer.xlsx,c,,,,,,,,,0,3,3,1,,,,,,,,,,,,,,,,,,,,,,,,,,,,,,,,,,,,,,,,,,,,,,,,,,,,,,,,,,,,,,,,,,,,,,,,,,,,,,,c,607.2971971844818,None,607.2971971844818,None,a,1,16.03944992034667,607.2971971844818,None,o,0,3.3069983132809284,607.2971971844818,None,c,h,623.425683942547,None,623.425683942547,None,625.4088087296223,None,None,None,None,None,None,None,None,,,,,,,,,,,,,,,,,,3_4,001,2021_Apr_22_1508,ComputerHuman,2020.1.3,60.07214915469044,
Human.xlsx,h,Sychronize.jpg,Number10.jpg,10,Human,,,,,0,4,4,8,0,0,0,8,,,,,,,,,,,,,,,,,,,,,,,,,630.4274075528301,None,630.4274075528301,None,633.4901914930051,None,633.4901914930051,None,633.9409782971998,None,633.9409782971998,None,v,9.422886965425278,633.9409782971998,None,t,9.645711633231258,633.9409782971998,None,9.422886965425278,9.645711633231258,10.345302178535608,True,False,False,643.656262129909,None,643.656262129909,None,643.656262129909,None,643.656262129909,None,643.656262129909,None,643.656262129909,None,643.656262129909,None,643.656262129909,None,644.6572710177461,None,644.6572710177461,None,645.6714082791041,None,645.6714082791041,None,h,,,,,,,,,,,,,,,,,,,,,,,,,,,,,,,,,,,,,,,,,,,,,,,3_4,001,2021_Apr_22_1508,ComputerHuman,2020.1.3,60.07214915469044,
Human.xlsx,h,Sychronize.jpg,Number6.jpg,6,Human,,,,,0,4,4,8,0,1,1,0,,,,,,,,,,,,,,,,,,,,,,,,,,,,,646.7383945819674,None,646.7383945819674,None,647.1716068487585,None,647.1716068487585,None,v,5.435885739363584,647.1716068487585,None,t,6.0268325669640035,647.1716068487585,None,5.435885739363584,6.0268325669640035,6.1963961824057066,False,False,False,653.2701968438014,None,653.2701968438014,None,653.2701968438014,None,653.2701968438014,None,653.2701968438014,None,653.2701968438014,None,653.2701968438014,None,653.2701968438014,None,654.2720789248597,None,654.2720789248597,None,655.2527798148003,None,655.2527798148003,None,h,,,,,,,,,,,,,,,,,,,,,,,,,,,,,,,,,,,,,,,,,,,,,,,3_4,001,2021_Apr_22_1508,ComputerHuman,2020.1.3,60.07214915469044,
Human.xlsx,h,Sychronize.jpg,Number7.jpg,7,Human,,,,,0,4,4,8,0,2,2,3,,,,,,,,,,,,,,,,,,,,,,,,,,,,,656.3193984911268,None,656.3193984911268,None,656.752709240769,None,656.752709240769,None,v,6.478460164489661,656.752709240769,None,t,7.053780618702149,656.752709240769,None,6.478460164489661,7.053780618702149,7.502340856585101,False,False,False,663.8860925533481,None,663.8860925533481,None,663.8860925533481,None,663.8860925533481,None,663.8860925533481,None,663.8860925533481,None,663.8860925533481,None,663.8860925533481,None,664.8866199338263,None,664.8866199338263,None,665.883998750196,None,665.883998750196,None,h,,,,,,,,,,,,,,,,,,,,,,,,,,,,,,,,,,,,,,,,,,,,,,,3_4,001,2021_Apr_22_1508,ComputerHuman,2020.1.3,60.07214915469044,
Human.xlsx,h,Sychronize.jpg,Number8.jpg,8,Human,,,,,0,4,4,8,0,3,3,5,,,,,,,,,,,,,,,,,,,,,,,,,,,,,666.9175579845833,None,666.9175579845833,None,667.3841620328385,None,667.3841620328385,None,v,7.270609381084796,667.3841620328385,None,t,8.48172998760856,667.3841620328385,None,7.270609381084796,8.48172998760856,8.152552326623617,False,False,False,675.9486978129098,None,675.9486978129098,None,675.9486978129098,None,675.9486978129098,None,675.9486978129098,None,675.9486978129098,None,675.9486978129098,None,675.9486978129098,None,676.9340844976432,None,676.9340844976432,None,677.9315810443259,None,677.9315810443259,None,h,,,,,,,,,,,,,,,,,,,,,,,,,,,,,,,,,,,,,,,,,,,,,,,3_4,001,2021_Apr_22_1508,ComputerHuman,2020.1.3,60.07214915469044,
Human.xlsx,h,Sychronize.jpg,Number7.jpg,7,Human,,,,,0,4,4,8,0,4,4,2,,,,,,,,,,,,,,,,,,,,,,,,,,,,,678.9984598821902,None,678.9984598821902,None,679.4484645978191,None,679.4484645978191,None,v,6.386094798883278,679.4484645978191,None,t,6.973041362154618,679.4484645978191,None,6.386094798883278,6.973041362154618,6.764677881444973,False,False,False,686.4974432953713,None,686.4974432953713,None,686.4974432953713,None,686.4974432953713,None,686.4974432953713,None,686.4974432953713,None,686.4974432953713,None,686.4974432953713,None,687.4819676937732,None,687.4819676937732,None,688.4792461025463,None,688.4792461025463,None,h,,,,,,,,,,,,,,,,,,,,,,,,,,,,,,,,,,,,,,,,,,,,,,,3_4,001,2021_Apr_22_1508,ComputerHuman,2020.1.3,60.07214915469044,
Human.xlsx,h,Sychronize.jpg,Number9.jpg,9,Human,,,,,0,4,4,8,0,5,5,6,,,,,,,,,,,,,,,,,,,,,,,,,,,,,689.5464890382464,None,689.5464890382464,None,689.9793574170399,None,689.9793574170399,None,v,8.358633802265103,689.9793574170399,None,t,8.997673944133567,689.9793574170399,None,8.358633802265103,8.997673944133567,9.291549989858494,False,False,False,699.0604880386636,None,699.0604880386636,None,699.0604880386636,None,699.0604880386636,None,699.0604880386636,None,699.0604880386636,None,699.0604880386636,None,699.0604880386636,None,700.0466786257566,None,700.0466786257566,None,701.0435169092161,None,701.0435169092161,None,h,,,,,,,,,,,,,,,,,,,,,,,,,,,,,,,,,,,,,,,,,,,,,,,3_4,001,2021_Apr_22_1508,ComputerHuman,2020.1.3,60.07214915469044,
Human.xlsx,h,Sychronize.jpg,Number6.jpg,6,Human,,,,,0,4,4,8,0,6,6,1,,,,,,,,,,,,,,,,,,,,,,,,,,,,,702.0935465182301,None,702.0935465182301,None,702.5437456332293,None,702.5437456332293,None,v,5.361898171940993,702.5437456332293,None,t,5.921301936872624,702.5437456332293,None,5.361898171940993,5.921301936872624,5.848831677427516,False,False,False,708.5420938801399,None,708.5420938801399,None,708.5420938801399,None,708.5420938801399,None,708.5420938801399,None,708.5420938801399,None,708.5420938801399,None,708.5420938801399,None,709.528263295022,None,709.528263295022,None,710.5248770247526,None,710.5248770247526,None,h,,,,,,,,,,,,,,,,,,,,,,,,,,,,,,,,,,,,,,,,,,,,,,,3_4,001,2021_Apr_22_1508,ComputerHuman,2020.1.3,60.07214915469044,
Human.xlsx,h,Sychronize.jpg,Number10.jpg,10,Human,,,,,0,4,4,8,0,7,7,9,,,,,,,,,,,,,,,,,,,,,,,,,,,,,711.5914658675101,None,711.5914658675101,None,712.0416043530058,None,712.0416043530058,None,v,9.075586389990349,712.0416043530058,None,t,9.858553283713263,712.0416043530058,None,9.075586389990349,9.858553283713263,10.546520088389542,False,False,False,721.955877437289,None,721.955877437289,None,721.955877437289,None,721.955877437289,None,721.955877437289,None,721.955877437289,None,721.955877437289,None,721.955877437289,None,722.9587738596347,None,722.9587738596347,None,723.9554863930061,None,723.9554863930061,None,h,,,,,,,,,,,,,,,,,,,,,,,,,,,,,,,,,,,,,,,,,,,,,,,3_4,001,2021_Apr_22_1508,ComputerHuman,2020.1.3,60.07214915469044,
Human.xlsx,h,Sychronize.jpg,Number8.jpg,8,Human,,,,,0,4,4,8,0,8,8,4,,,,,,,,,,,,,,,,,,,,,,,,,,,,,725.0058441712572,None,725.0058441712572,None,725.4554318585288,None,725.4554318585288,None,v,7.5293555885327805,725.4554318585288,None,t,7.416727777363121,725.4554318585288,None,7.5293555885327805,7.416727777363121,8.163519267440163,True,False,False,733.0700966928343,None,733.0700966928343,None,733.0700966928343,None,733.0700966928343,None,733.0700966928343,None,733.0700966928343,None,733.0700966928343,None,733.0700966928343,None,734.0554448826442,None,734.0554448826442,None,735.0532490679398,None,735.0532490679398,None,h,,,,,,,,,,,,,,,,,,,,,,,,,,,,,,,,,,,,,,,,,,,,,,,3_4,001,2021_Apr_22_1508,ComputerHuman,2020.1.3,60.07214915469044,
Human.xlsx,h,Sychronize.jpg,Number9.jpg,9,Human,,,,,0,4,4,8,0,9,9,7,,,,,,,,,,,,,,,,,,,,,,,,,,,,,736.1036017135375,None,736.1036017135375,None,736.5534832454032,None,736.5534832454032,None,v,7.806883470086177,736.5534832454032,None,t,8.7137158060832,736.5534832454032,None,7.806883470086177,8.7137158060832,8.82375496325398,False,False,False,745.3512280201976,None,745.3512280201976,None,745.3512280201976,None,745.3512280201976,None,745.3512280201976,None,745.3512280201976,None,745.3512280201976,None,745.3512280201976,None,746.3371619744539,None,746.3371619744539,None,747.3341577663195,None,747.3341577663195,None,h,,,,,,,,,,,,,,,,,,,,,,,,,,,,,,,,,,,,,,,,,,,,,,,3_4,001,2021_Apr_22_1508,ComputerHuman,2020.1.3,60.07214915469044,
Human.xlsx,h,,,,,,,,,0,4,4,8,,,,,,,,,,,,,,,,,,,,,,,,,,,,,,,,,,,,,,,,,,,,,,,,,,,,,,,,,,,,,,,,,,,,,,,,,,,,,,,h,748.3344352505737,None,748.3344352505737,None,a,0,2.661787434870348,748.3344352505737,None,l,0,2.180948925575649,748.3344352505737,None,c,c,751.0834877942216,None,751.0834877942216,None,None,None,753.0829774156664,None,753.0829774156664,None,"['space', 'space']",754.0660483098472,None,"[2.673969474806654, 3.078000342604355]",,,,,,,,,,,,,,,,,3_4,001,2021_Apr_22_1508,ComputerHuman,2020.1.3,60.07214915469044,
Human.xlsx,h,Sychronize.jpg,Number9.jpg,9,Human,,,,,0,5,5,2,0,0,0,7,,,,,,,,,,,,,,,,,,,,,,,,,757.2024884402927,None,757.2024884402927,None,760.2650596960048,None,760.2650596960048,None,760.6986771218872,None,760.6986771218872,None,v,8.596926051890478,760.6986771218872,None,t,9.74373029941853,760.6986771218872,None,8.596926051890478,9.74373029941853,9.276912799396223,False,False,False,770.5132990343518,None,770.5132990343518,None,770.5132990343518,None,770.5132990343518,None,770.5132990343518,None,770.5132990343518,None,770.5132990343518,None,770.5132990343518,None,771.5319536752068,None,771.5319536752068,None,772.5123523799812,None,772.5123523799812,None,h,,,,,,,,,,,,,,,,,,,,,,,,,,,,,,,,,,,,,,,,,,,,,,,3_4,001,2021_Apr_22_1508,ComputerHuman,2020.1.3,60.07214915469044,
Human.xlsx,h,Sychronize.jpg,Number6.jpg,6,Human,,,,,0,5,5,2,0,1,1,0,,,,,,,,,,,,,,,,,,,,,,,,,,,,,773.5961353019629,None,773.5961353019629,None,774.0121804359806,None,774.0121804359806,None,v,5.779003520361584,774.0121804359806,None,t,6.285814235037833,774.0121804359806,None,5.779003520361584,6.285814235037833,6.353505033517635,False,False,False,780.377591911445,None,780.377591911445,None,780.377591911445,None,780.377591911445,None,780.377591911445,None,780.377591911445,None,780.377591911445,None,780.377591911445,None,781.3794823330718,None,781.3794823330718,None,782.3763777173408,None,782.3763777173408,None,h,,,,,,,,,,,,,,,,,,,,,,,,,,,,,,,,,,,,,,,,,,,,,,,3_4,001,2021_Apr_22_1508,ComputerHuman,2020.1.3,60.07214915469044,
Human.xlsx,h,Sychronize.jpg,Number8.jpg,8,Human,,,,,0,5,5,2,0,2,2,5,,,,,,,,,,,,,,,,,,,,,,,,,,,,,783.4273087491893,None,783.4273087491893,None,783.8768605078621,None,783.8768605078621,None,v,8.373911796577886,783.8768605078621,None,t,8.208737770641164,783.8768605078621,None,8.373911796577886,8.208737770641164,8.419529416809082,True,False,False,792.31014527343,None,792.31014527343,None,792.31014527343,None,792.31014527343,None,792.31014527343,None,792.31014527343,None,792.31014527343,None,792.31014527343,None,793.3100378084309,None,793.3100378084309,None,794.3079006984881,None,794.3079006984881,None,h,,,,,,,,,,,,,,,,,,,,,,,,,,,,,,,,,,,,,,,,,,,,,,,3_4,001,2021_Apr_22_1508,ComputerHuman,2020.1.3,60.07214915469044,
Human.xlsx,h,Sychronize.jpg,Number10.jpg,10,Human,,,,,0,5,5,2,0,3,3,9,,,,,,,,,,,,,,,,,,,,,,,,,,,,,795.375153899502,None,795.375153899502,None,795.8247184898173,None,795.8247184898173,None,v,9.445579723949777,795.8247184898173,None,t,9.840666295833216,795.8247184898173,None,9.445579723949777,9.840666295833216,10.741837606537699,False,False,False,805.7555739048039,None,805.7555739048039,None,805.7555739048039,None,805.7555739048039,None,805.7555739048039,None,805.7555739048039,None,805.7555739048039,None,805.7555739048039,None,806.7244404922967,None,806.7244404922967,None,807.721937038983,None,807.721937038983,None,h,,,,,,,,,,,,,,,,,,,,,,,,,,,,,,,,,,,,,,,,,,,,,,,3_4,001,2021_Apr_22_1508,ComputerHuman,2020.1.3,60.07214915469044,
Human.xlsx,h,Sychronize.jpg,Number8.jpg,8,Human,,,,,0,5,5,2,0,4,4,4,,,,,,,,,,,,,,,,,,,,,,,,,,,,,808.772442381116,None,808.772442381116,None,809.2221583848041,None,809.2221583848041,None,v,7.947837451327359,809.2221583848041,None,t,8.24716500913928,809.2221583848041,None,7.947837451327359,8.24716500913928,8.25355883940747,True,False,False,817.5368402851964,None,817.5368402851964,None,817.5368402851964,None,817.5368402851964,None,817.5368402851964,None,817.5368402851964,None,817.5368402851964,None,817.5368402851964,None,818.5385109649578,None,818.5385109649578,None,819.5361008618347,None,819.5361008618347,None,h,,,,,,,,,,,,,,,,,,,,,,,,,,,,,,,,,,,,,,,,,,,,,,,3_4,001,2021_Apr_22_1508,ComputerHuman,2020.1.3,60.07214915469044,
Human.xlsx,h,Sychronize.jpg,Number10.jpg,10,Human,,,,,0,5,5,2,0,5,5,8,,,,,,,,,,,,,,,,,,,,,,,,,,,,,820.5864929647287,None,820.5864929647287,None,821.0197918451049,None,821.0197918451049,None,v,9.845669352973346,821.0197918451049,None,t,10.572731991269393,821.0197918451049,None,9.845669352973346,10.572731991269393,9.421598198533811,False,False,False,831.667050332755,None,831.667050332755,None,831.667050332755,None,831.667050332755,None,831.667050332755,None,831.667050332755,None,831.667050332755,None,831.667050332755,None,832.6687364104873,None,832.6687364104873,None,833.6665572769198,None,833.6665572769198,None,h,,,,,,,,,,,,,,,,,,,,,,,,,,,,,,,,,,,,,,,,,,,,,,,3_4,001,2021_Apr_22_1508,ComputerHuman,2020.1.3,60.07214915469044,
Human.xlsx,h,Sychronize.jpg,Number9.jpg,9,Human,,,,,0,5,5,2,0,6,6,6,,,,,,,,,,,,,,,,,,,,,,,,,,,,,834.7169683064858,None,834.7169683064858,None,835.1664796454861,None,835.1664796454861,None,v,8.782452024097438,835.1664796454861,None,t,9.557710950586625,835.1664796454861,None,8.782452024097438,9.557710950586625,8.812239135463383,False,False,False,844.7981181755713,None,844.7981181755713,None,844.7981181755713,None,844.7981181755713,None,844.7981181755713,None,844.7981181755713,None,844.7981181755713,None,844.7981181755713,None,845.7992544174522,None,845.7992544174522,None,846.7972234893459,None,846.7972234893459,None,h,,,,,,,,,,,,,,,,,,,,,,,,,,,,,,,,,,,,,,,,,,,,,,,3_4,001,2021_Apr_22_1508,ComputerHuman,2020.1.3,60.07214915469044,
Human.xlsx,h,Sychronize.jpg,Number6.jpg,6,Human,,,,,0,5,5,2,0,7,7,1,,,,,,,,,,,,,,,,,,,,,,,,,,,,,847.8476595406137,None,847.8476595406137,None,848.2971904478691,None,848.2971904478691,None,v,6.3514330056787,848.2971904478691,None,t,5.62681190801959,848.2971904478691,None,6.3514330056787,5.62681190801959,5.861459644108494,False,False,False,854.7456354774367,None,854.7456354774367,None,854.7456354774367,None,854.7456354774367,None,854.7456354774367,None,854.7456354774367,None,854.7456354774367,None,854.7456354774367,None,855.7138008157053,None,855.7138008157053,None,856.711918093064,None,856.711918093064,None,h,,,,,,,,,,,,,,,,,,,,,,,,,,,,,,,,,,,,,,,,,,,,,,,3_4,001,2021_Apr_22_1508,ComputerHuman,2020.1.3,60.07214915469044,
Human.xlsx,h,Sychronize.jpg,Number7.jpg,7,Human,,,,,0,5,5,2,0,8,8,3,,,,,,,,,,,,,,,,,,,,,,,,,,,,,857.7785188050912,None,857.7785188050912,None,858.2121327022724,None,858.2121327022724,None,v,6.100158984041627,858.2121327022724,None,t,6.731813553677057,858.2121327022724,None,6.100158984041627,6.731813553677057,6.849358217138677,False,False,False,865.0110101902465,None,865.0110101902465,None,865.0110101902465,None,865.0110101902465,None,865.0110101902465,None,865.0110101902465,None,865.0110101902465,None,865.0110101902465,None,866.0114916976054,None,866.0114916976054,None,867.0098444355899,None,867.0098444355899,None,h,,,,,,,,,,,,,,,,,,,,,,,,,,,,,,,,,,,,,,,,,,,,,,,3_4,001,2021_Apr_22_1508,ComputerHuman,2020.1.3,60.07214915469044,
Human.xlsx,h,Sychronize.jpg,Number7.jpg,7,Human,,,,,0,5,5,2,0,9,9,2,,,,,,,,,,,,,,,,,,,,,,,,,,,,,868.0429561664678,None,868.0429561664678,None,868.5100885575739,None,868.5100885575739,None,v,6.565824718491058,868.5100885575739,None,t,7.096799018632737,868.5100885575739,None,6.565824718491058,7.096799018632737,7.026007244772239,False,False,False,875.6912389399258,None,875.6912389399258,None,875.6912389399258,None,875.6912389399258,None,875.6912389399258,None,875.6912389399258,None,875.6912389399258,None,875.6912389399258,None,876.6611859516597,None,876.6611859516597,None,877.6577355231784,None,877.6577355231784,None,h,,,,,,,,,,,,,,,,,,,,,,,,,,,,,,,,,,,,,,,,,,,,,,,3_4,001,2021_Apr_22_1508,ComputerHuman,2020.1.3,60.07214915469044,
Human.xlsx,h,,,,,,,,,0,5,5,2,,,,,,,,,,,,,,,,,,,,,,,,,,,,,,,,,,,,,,,,,,,,,,,,,,,,,,,,,,,,,,,,,,,,,,,,,,,,,,,h,878.6749170915537,None,878.6749170915537,None,q,0,2.4487847472846624,878.6749170915537,None,l,0,4.199912167408911,878.6749170915537,None,h,c,882.9569354061568,None,882.9569354061568,None,884.9729306892441,None,None,None,None,None,None,None,None,,,,,,,,,,,,,,,,,,3_4,001,2021_Apr_22_1508,ComputerHuman,2020.1.3,60.07214915469044,
Human.xlsx,h,Sychronize.jpg,Number8.jpg,8,Human,,,,,0,6,6,0,0,0,0,4,,,,,,,,,,,,,,,,,,,,,,,,,889.9584822605757,None,889.9584822605757,None,893.0384731116137,None,893.0384731116137,None,893.4714152723463,None,893.4714152723463,None,v,7.723596491061471,893.4714152723463,None,t,7.750709429394192,893.4714152723463,None,7.723596491061471,7.750709429394192,7.740442048075698,True,False,False,901.319223018425,None,901.319223018425,None,901.319223018425,None,901.319223018425,None,901.319223018425,None,901.319223018425,None,901.319223018425,None,901.319223018425,None,902.305677295757,None,902.305677295757,None,903.302021561005,None,903.302021561005,None,h,,,,,,,,,,,,,,,,,,,,,,,,,,,,,,,,,,,,,,,,,,,,,,,3_4,001,2021_Apr_22_1508,ComputerHuman,2020.1.3,60.07214915469044,
Human.xlsx,h,Sychronize.jpg,Number10.jpg,10,Human,,,,,0,6,6,0,0,1,1,9,,,,,,,,,,,,,,,,,,,,,,,,,,,,,904.3530629449779,None,904.3530629449779,None,904.8017514549465,None,904.8017514549465,None,v,8.936938254781126,904.8017514549465,None,t,10.01582365987997,904.8017514549465,None,8.936938254781126,10.01582365987997,9.96190236029398,False,False,False,914.900251949286,None,914.900251949286,None,914.900251949286,None,914.900251949286,None,914.900251949286,None,914.900251949286,None,914.900251949286,None,914.900251949286,None,915.9016201230916,None,915.9016201230916,None,916.899625123584,None,916.899625123584,None,h,,,,,,,,,,,,,,,,,,,,,,,,,,,,,,,,,,,,,,,,,,,,,,,3_4,001,2021_Apr_22_1508,ComputerHuman,2020.1.3,60.07214915469044,
Human.xlsx,h,Sychronize.jpg,Number6.jpg,6,Human,,,,,0,6,6,0,0,2,2,1,,,,,,,,,,,,,,,,,,,,,,,,,,,,,917.9499363871364,None,917.9499363871364,None,918.3996113295689,None,918.3996113295689,None,v,6.150632888649852,918.3996113295689,None,t,5.645825514053286,918.3996113295689,None,6.150632888649852,5.645825514053286,5.778055206874769,False,False,False,924.6481583065288,None,924.6481583065288,None,924.6481583065288,None,924.6481583065288,None,924.6481583065288,None,924.6481583065288,None,924.6481583065288,None,924.6481583065288,None,925.6168362688913,None,925.6168362688913,None,926.6144540745918,None,926.6144540745918,None,h,,,,,,,,,,,,,,,,,,,,,,,,,,,,,,,,,,,,,,,,,,,,,,,3_4,001,2021_Apr_22_1508,ComputerHuman,2020.1.3,60.07214915469044,
Human.xlsx,h,Sychronize.jpg,Number9.jpg,9,Human,,,,,0,6,6,0,0,3,3,7,,,,,,,,,,,,,,,,,,,,,,,,,,,,,927.6646424751707,None,927.6646424751707,None,928.1146821570219,None,928.1146821570219,None,v,8.207163969775138,928.1146821570219,None,t,9.41467599783573,928.1146821570219,None,8.207163969775138,9.41467599783573,9.438744208021753,False,False,False,937.5966148845764,None,937.5966148845764,None,937.5966148845764,None,937.5966148845764,None,937.5966148845764,None,937.5966148845764,None,937.5966148845764,None,937.5966148845764,None,938.5973324941442,None,938.5973324941442,None,939.5782425398429,None,939.5782425398429,None,h,,,,,,,,,,,,,,,,,,,,,,,,,,,,,,,,,,,,,,,,,,,,,,,3_4,001,2021_Apr_22_1508,ComputerHuman,2020.1.3,60.07214915469044,
Human.xlsx,h,Sychronize.jpg,Number7.jpg,7,Human,,,,,0,6,6,0,0,4,4,3,,,,,,,,,,,,,,,,,,,,,,,,,,,,,940.6115618225267,None,940.6115618225267,None,941.0782794308143,None,941.0782794308143,None,v,6.4591411653818795,941.0782794308143,None,t,7.294757889372704,941.0782794308143,None,6.4591411653818795,7.294757889372704,6.519029278983106,False,False,False,948.4431583931437,None,948.4431583931437,None,948.4431583931437,None,948.4431583931437,None,948.4431583931437,None,948.4431583931437,None,948.4431583931437,None,948.4431583931437,None,949.4448396590124,None,949.4448396590124,None,950.4428934197422,None,950.4428934197422,None,h,,,,,,,,,,,,,,,,,,,,,,,,,,,,,,,,,,,,,,,,,,,,,,,3_4,001,2021_Apr_22_1508,ComputerHuman,2020.1.3,60.07214915469044,
Human.xlsx,h,Sychronize.jpg,Number9.jpg,9,Human,,,,,0,6,6,0,0,5,5,6,,,,,,,,,,,,,,,,,,,,,,,,,,,,,951.4928611160831,None,951.4928611160831,None,951.9432382701125,None,951.9432382701125,None,v,8.517722422075167,951.9432382701125,None,t,8.892749609116436,951.9432382701125,None,8.517722422075167,8.892749609116436,8.364345892530475,False,False,False,960.8920666449812,None,960.8920666449812,None,960.8920666449812,None,960.8920666449812,None,960.8920666449812,None,960.8920666449812,None,960.8920666449812,None,960.8920666449812,None,961.9096520892781,None,961.9096520892781,None,962.9070864025016,None,962.9070864025016,None,h,,,,,,,,,,,,,,,,,,,,,,,,,,,,,,,,,,,,,,,,,,,,,,,3_4,001,2021_Apr_22_1508,ComputerHuman,2020.1.3,60.07214915469044,
Human.xlsx,h,Sychronize.jpg,Number6.jpg,6,Human,,,,,0,6,6,0,0,6,6,0,,,,,,,,,,,,,,,,,,,,,,,,,,,,,963.9568638697529,None,963.9568638697529,None,964.4069208743203,None,964.4069208743203,None,v,5.52978673169855,964.4069208743203,None,t,5.944806296742172,964.4069208743203,None,5.52978673169855,5.944806296742172,6.318540803182584,False,False,False,970.4234313478264,None,970.4234313478264,None,970.4234313478264,None,970.4234313478264,None,970.4234313478264,None,970.4234313478264,None,970.4234313478264,None,970.4234313478264,None,971.4080006569784,None,971.4080006569784,None,972.4050865911267,None,972.4050865911267,None,h,,,,,,,,,,,,,,,,,,,,,,,,,,,,,,,,,,,,,,,,,,,,,,,3_4,001,2021_Apr_22_1508,ComputerHuman,2020.1.3,60.07214915469044,
Human.xlsx,h,Sychronize.jpg,Number10.jpg,10,Human,,,,,0,6,6,0,0,7,7,8,,,,,,,,,,,,,,,,,,,,,,,,,,,,,973.4715512877519,None,973.4715512877519,None,973.9054263088437,None,973.9054263088437,None,v,9.591117488438613,973.9054263088437,None,t,10.570118827421538,973.9054263088437,None,9.591117488438613,10.570118827421538,10.250440324193727,False,False,False,984.569255899507,None,984.569255899507,None,984.569255899507,None,984.569255899507,None,984.569255899507,None,984.569255899507,None,984.569255899507,None,984.569255899507,None,985.5547365760176,None,985.5547365760176,None,986.5522199702682,None,986.5522199702682,None,h,,,,,,,,,,,,,,,,,,,,,,,,,,,,,,,,,,,,,,,,,,,,,,,3_4,001,2021_Apr_22_1508,ComputerHuman,2020.1.3,60.07214915469044,
Human.xlsx,h,Sychronize.jpg,Number7.jpg,7,Human,,,,,0,6,6,0,0,8,8,2,,,,,,,,,,,,,,,,,,,,,,,,,,,,,987.5864259194022,None,987.5864259194022,None,988.0358862526264,None,988.0358862526264,None,v,6.799941551871598,988.0358862526264,None,t,7.122956320450612,988.0358862526264,None,6.799941551871598,7.122956320450612,6.700492169141211,False,False,False,995.2335695638576,None,995.2335695638576,None,995.2335695638576,None,995.2335695638576,None,995.2335695638576,None,995.2335695638576,None,995.2335695638576,None,995.2335695638576,None,996.236396695338,None,996.236396695338,None,997.2334248870975,None,997.2334248870975,None,h,,,,,,,,,,,,,,,,,,,,,,,,,,,,,,,,,,,,,,,,,,,,,,,3_4,001,2021_Apr_22_1508,ComputerHuman,2020.1.3,60.07214915469044,
Human.xlsx,h,Sychronize.jpg,Number8.jpg,8,Human,,,,,0,6,6,0,0,9,9,5,,,,,,,,,,,,,,,,,,,,,,,,,,,,,998.2836322143485,None,998.2836322143485,None,998.7338335748864,None,998.7338335748864,None,None,,998.7338335748864,None,t,8.148728993801342,998.7338335748864,None,13,8.148728993801342,7.726215685595562,False,False,False,1011.8141792208226,None,1011.8141792208226,None,1011.8141792208226,None,1011.8141792208226,None,1011.8141792208226,None,1011.8141792208226,None,1011.8141792208226,None,1011.8141792208226,None,1012.7984344755423,None,1012.7984344755423,None,1013.7967262632264,None,1013.7967262632264,None,h,,,,,,,,,,,,,,,,,,,,,,,,,,,,,,,,,,,,,,,,,,,,,,,3_4,001,2021_Apr_22_1508,ComputerHuman,2020.1.3,60.07214915469044,
Human.xlsx,h,,,,,,,,,0,6,6,0,,,,,,,,,,,,,,,,,,,,,,,,,,,,,,,,,,,,,,,,,,,,,,,,,,,,,,,,,,,,,,,,,,,,,,,,,,,,,,,h,1014.7972908554657,None,1014.7972908554657,None,q,1,3.9697237411673996,1014.7972908554657,None,o,0,3.412930894552119,1014.7972908554657,None,h,h,1018.8625702291793,None,1018.8625702291793,None,1020.8619546311638,None,None,None,None,None,None,None,None,,,,,,,,,,,,,,,,,,3_4,001,2021_Apr_22_1508,ComputerHuman,2020.1.3,60.07214915469044,
Computer.xlsx,c,Sychronize.jpg,Number7.jpg,7,Computer,,,,,0,7,7,9,0,0,0,3,,,,,,,,,,,,,,,,,,,,,,,,,1025.8469582913895,None,1025.8469582913895,None,1028.9444537473828,None,1028.9444537473828,None,1029.3775229413695,None,1029.3775229413695,None,v,6.344911644522654,1029.3775229413695,None,t,6.908120953623438,1029.3775229413695,None,6.344911644522654,6.908120953623438,7.5209551609591845,False,False,False,1036.37544742331,None,1036.37544742331,None,1036.37544742331,None,1036.37544742331,None,1036.37544742331,None,1036.37544742331,None,1036.37544742331,None,1036.37544742331,None,1037.3920371322056,None,1037.3920371322056,None,1038.3583367497558,None,1038.3583367497558,None,c,,,,,,,,,,,,,,,,,,,,,,,,,,,,,,,,,,,,,,,,,,,,,,,3_4,001,2021_Apr_22_1508,ComputerHuman,2020.1.3,60.07214915469044,
Computer.xlsx,c,Sychronize.jpg,Number9.jpg,9,Computer,,,,,0,7,7,9,0,1,1,6,,,,,,,,,,,,,,,,,,,,,,,,,,,,,1039.425217833159,None,1039.425217833159,None,1039.858148124622,None,1039.858148124622,None,v,7.955948652899679,1039.858148124622,None,t,9.36666929715284,1039.858148124622,None,7.955948652899679,9.36666929715284,8.782025363934117,False,False,False,1049.3228909432328,None,1049.3228909432328,None,1049.3228909432328,None,1049.3228909432328,None,1049.3228909432328,None,1049.3228909432328,None,1049.3228909432328,None,1049.3228909432328,None,1050.322669276622,None,1050.322669276622,None,1051.3057914973688,None,1051.3057914973688,None,c,,,,,,,,,,,,,,,,,,,,,,,,,,,,,,,,,,,,,,,,,,,,,,,3_4,001,2021_Apr_22_1508,ComputerHuman,2020.1.3,60.07214915469044,
Computer.xlsx,c,Sychronize.jpg,Number6.jpg,6,Computer,,,,,0,7,7,9,0,2,2,1,,,,,,,,,,,,,,,,,,,,,,,,,,,,,1052.35563600995,None,1052.35563600995,None,1052.8059817264584,None,1052.8059817264584,None,v,5.456056759481726,1052.8059817264584,None,t,6.638835156387358,1052.8059817264584,None,5.456056759481726,6.638835156387358,5.946580512109713,False,False,False,1059.5205630267774,None,1059.5205630267774,None,1059.5205630267774,None,1059.5205630267774,None,1059.5205630267774,None,1059.5205630267774,None,1059.5205630267774,None,1059.5205630267774,None,1060.5205726505083,None,1060.5205726505083,None,1061.503684605941,None,1061.503684605941,None,c,,,,,,,,,,,,,,,,,,,,,,,,,,,,,,,,,,,,,,,,,,,,,,,3_4,001,2021_Apr_22_1508,ComputerHuman,2020.1.3,60.07214915469044,
Computer.xlsx,c,Sychronize.jpg,Number9.jpg,9,Computer,,,,,0,7,7,9,0,3,3,7,,,,,,,,,,,,,,,,,,,,,,,,,,,,,1062.5710051730748,None,1062.5710051730748,None,1063.0202855425232,None,1063.0202855425232,None,v,8.832889037734276,1063.0202855425232,None,t,9.795767098003125,1063.0202855425232,None,8.832889037734276,9.795767098003125,9.340715654422153,False,False,False,1072.9012290788087,None,1072.9012290788087,None,1072.9012290788087,None,1072.9012290788087,None,1072.9012290788087,None,1072.9012290788087,None,1072.9012290788087,None,1072.9012290788087,None,1073.8845604553171,None,1073.8845604553171,None,1074.867703848271,None,1074.867703848271,None,c,,,,,,,,,,,,,,,,,,,,,,,,,,,,,,,,,,,,,,,,,,,,,,,3_4,001,2021_Apr_22_1508,ComputerHuman,2020.1.3,60.07214915469044,
Computer.xlsx,c,Sychronize.jpg,Number7.jpg,7,Computer,,,,,0,7,7,9,0,4,4,2,,,,,,,,,,,,,,,,,,,,,,,,,,,,,1075.9342346278536,None,1075.9342346278536,None,1076.3676897334662,None,1076.3676897334662,None,v,6.861138538744854,1076.3676897334662,None,t,7.548732650819147,1076.3676897334662,None,6.861138538744854,7.548732650819147,7.206239151061117,False,False,False,1083.9990969732062,None,1083.9990969732062,None,1083.9990969732062,None,1083.9990969732062,None,1083.9990969732062,None,1083.9990969732062,None,1083.9990969732062,None,1083.9990969732062,None,1084.9989407479698,None,1084.9989407479698,None,1085.9821636971028,None,1085.9821636971028,None,c,,,,,,,,,,,,,,,,,,,,,,,,,,,,,,,,,,,,,,,,,,,,,,,3_4,001,2021_Apr_22_1508,ComputerHuman,2020.1.3,60.07214915469044,
Computer.xlsx,c,Sychronize.jpg,Number10.jpg,10,Computer,,,,,0,7,7,9,0,5,5,9,,,,,,,,,,,,,,,,,,,,,,,,,,,,,1087.0323761570107,None,1087.0323761570107,None,1087.4823969121935,None,1087.4823969121935,None,v,9.502068460657028,1087.4823969121935,None,t,10.029768446605885,1087.4823969121935,None,9.502068460657028,10.029768446605885,9.83286962262485,False,False,True,1097.5798574019645,None,1097.5798574019645,None,1097.5798574019645,None,1097.5798574019645,None,1097.5798574019645,None,1097.5798574019645,None,1097.5798574019645,None,1097.5798574019645,None,1098.596219349216,None,1098.596219349216,None,1099.579322964084,None,1099.579322964084,None,c,,,,,,,,,,,,,,,,,,,,,,,,,,,,,,,,,,,,,,,,,,,,,,,3_4,001,2021_Apr_22_1508,ComputerHuman,2020.1.3,60.07214915469044,
Computer.xlsx,c,Sychronize.jpg,Number10.jpg,10,Computer,,,,,0,7,7,9,0,6,6,8,,,,,,,,,,,,,,,,,,,,,,,,,,,,,1100.6129633586024,None,1100.6129633586024,None,1101.0793685164099,None,1101.0793685164099,None,v,9.532506077386643,1101.0793685164099,None,t,8.255759001236584,1101.0793685164099,None,9.532506077386643,8.255759001236584,9.550915420895587,False,True,False,1110.7103478208955,None,1110.7103478208955,None,1110.7103478208955,None,1110.7103478208955,None,1110.7103478208955,None,1110.7103478208955,None,1110.7103478208955,None,1110.7103478208955,None,1111.693530671153,None,1111.693530671153,None,1112.6933645013887,None,1112.6933645013887,None,c,,,,,,,,,,,,,,,,,,,,,,,,,,,,,,,,,,,,,,,,,,,,,,,3_4,001,2021_Apr_22_1508,ComputerHuman,2020.1.3,60.07214915469044,
Computer.xlsx,c,Sychronize.jpg,Number8.jpg,8,Computer,,,,,0,7,7,9,0,7,7,5,,,,,,,,,,,,,,,,,,,,,,,,,,,,,1113.7436520264055,None,1113.7436520264055,None,1114.1934799861665,None,1114.1934799861665,None,v,8.094202535918157,1114.1934799861665,None,t,8.129759336141433,1114.1934799861665,None,8.094202535918157,8.129759336141433,8.280701584720866,False,True,True,1122.408063852814,None,1122.408063852814,None,1122.408063852814,None,1122.408063852814,None,1122.408063852814,None,1122.408063852814,None,1122.408063852814,None,1122.408063852814,None,1123.4077068123806,None,1123.4077068123806,None,1124.3743131061747,None,1124.3743131061747,None,c,,,,,,,,,,,,,,,,,,,,,,,,,,,,,,,,,,,,,,,,,,,,,,,3_4,001,2021_Apr_22_1508,ComputerHuman,2020.1.3,60.07214915469044,
Computer.xlsx,c,Sychronize.jpg,Number8.jpg,8,Computer,,,,,0,7,7,9,0,8,8,4,,,,,,,,,,,,,,,,,,,,,,,,,,,,,1125.4242731035301,None,1125.4242731035301,None,1125.8743371655037,None,1125.8743371655037,None,v,7.980737139325356,1125.8743371655037,None,t,7.931757800193736,1125.8743371655037,None,7.980737139325356,7.931757800193736,8.232272523799098,False,True,False,1133.9223762660804,None,1133.9223762660804,None,1133.9223762660804,None,1133.9223762660804,None,1133.9223762660804,None,1133.9223762660804,None,1133.9223762660804,None,1133.9223762660804,None,1134.938813278437,None,1134.938813278437,None,1135.9219707861994,None,1135.9219707861994,None,c,,,,,,,,,,,,,,,,,,,,,,,,,,,,,,,,,,,,,,,,,,,,,,,3_4,001,2021_Apr_22_1508,ComputerHuman,2020.1.3,60.07214915469044,
Computer.xlsx,c,Sychronize.jpg,Number6.jpg,6,Computer,,,,,0,7,7,9,0,9,9,0,,,,,,,,,,,,,,,,,,,,,,,,,,,,,1136.972725382977,None,1136.972725382977,None,1137.4218780775882,None,1137.4218780775882,None,v,6.140970662374457,1137.4218780775882,None,t,5.755834387131472,1137.4218780775882,None,6.140970662374457,5.755834387131472,6.389536325107498,False,True,False,1143.6368116064768,None,1143.6368116064768,None,1143.6368116064768,None,1143.6368116064768,None,1143.6368116064768,None,1143.6368116064768,None,1143.6368116064768,None,1143.6368116064768,None,1144.6368417608319,None,1144.6368417608319,None,1145.636653777281,None,1145.636653777281,None,c,,,,,,,,,,,,,,,,,,,,,,,,,,,,,,,,,,,,,,,,,,,,,,,3_4,001,2021_Apr_22_1508,ComputerHuman,2020.1.3,60.07214915469044,
Computer.xlsx,c,,,,,,,,,0,7,7,9,,,,,,,,,,,,,,,,,,,,,,,,,,,,,,,,,,,,,,,,,,,,,,,,,,,,,,,,,,,,,,,,,,,,,,,,,,,,,,,c,1146.63753114079,None,1146.63753114079,None,q,0,2.6850787894909445,1146.63753114079,None,l,0,2.4439478599051654,1146.63753114079,None,h,c,1149.4188472437927,None,1149.4188472437927,None,1151.4188915129598,None,None,None,None,None,None,None,None,,,,,,,,,,,,,,,,,,3_4,001,2021_Apr_22_1508,ComputerHuman,2020.1.3,60.07214915469044,
Human.xlsx,h,Sychronize.jpg,Number9.jpg,9,Human,,,,,0,8,8,6,0,0,0,7,,,,,,,,,,,,,,,,,,,,,,,,,1156.4045027514221,None,1156.4045027514221,None,1159.4842116271357,None,1159.4842116271357,None,1159.9173712841948,None,1159.9173712841948,None,v,8.648609017949639,1159.9173712841948,None,t,8.759770493255928,1159.9173712841948,None,8.648609017949639,8.759770493255928,9.169317348275209,True,False,False,1168.7501053798587,None,1168.7501053798587,None,1168.7501053798587,None,1168.7501053798587,None,1168.7501053798587,None,1168.7501053798587,None,1168.7501053798587,None,1168.7501053798587,None,1169.750549675453,None,1169.750549675453,None,1170.7482585858124,None,1170.7482585858124,None,h,,,,,,,,,,,,,,,,,,,,,,,,,,,,,,,,,,,,,,,,,,,,,,,3_4,001,2021_Apr_22_1508,ComputerHuman,2020.1.3,60.07214915469044,
Human.xlsx,h,Sychronize.jpg,Number9.jpg,9,Human,,,,,0,8,8,6,0,1,1,6,,,,,,,,,,,,,,,,,,,,,,,,,,,,,1171.7818277647202,None,1171.7818277647202,None,1172.2314382281547,None,1172.2314382281547,None,v,8.618046613504703,1172.2314382281547,None,t,9.097768128383905,1172.2314382281547,None,8.618046613504703,9.097768128383905,8.381999313242476,False,False,False,1181.412494939519,None,1181.412494939519,None,1181.412494939519,None,1181.412494939519,None,1181.412494939519,None,1181.412494939519,None,1181.412494939519,None,1181.412494939519,None,1182.3978277313581,None,1182.3978277313581,None,1183.395696716445,None,1183.395696716445,None,h,,,,,,,,,,,,,,,,,,,,,,,,,,,,,,,,,,,,,,,,,,,,,,,3_4,001,2021_Apr_22_1508,ComputerHuman,2020.1.3,60.07214915469044,
Human.xlsx,h,Sychronize.jpg,Number10.jpg,10,Human,,,,,0,8,8,6,0,2,2,8,,,,,,,,,,,,,,,,,,,,,,,,,,,,,1184.4459810335502,None,1184.4459810335502,None,1184.8955161110862,None,1184.8955161110862,None,v,9.485483242835471,1184.8955161110862,None,t,9.24468304882248,1184.8955161110862,None,9.485483242835471,9.24468304882248,10.395442006502128,True,False,False,1194.443552645338,None,1194.443552645338,None,1194.443552645338,None,1194.443552645338,None,1194.443552645338,None,1194.443552645338,None,1194.443552645338,None,1194.443552645338,None,1195.4621030291019,None,1195.4621030291019,None,1196.4596996625914,None,1196.4596996625914,None,h,,,,,,,,,,,,,,,,,,,,,,,,,,,,,,,,,,,,,,,,,,,,,,,3_4,001,2021_Apr_22_1508,ComputerHuman,2020.1.3,60.07214915469044,
Human.xlsx,h,Sychronize.jpg,Number6.jpg,6,Human,,,,,0,8,8,6,0,3,3,1,,,,,,,,,,,,,,,,,,,,,,,,,,,,,1197.510130901992,None,1197.510130901992,None,1197.959827337425,None,1197.959827337425,None,v,5.640889823032921,1197.959827337425,None,t,5.679891598290851,1197.959827337425,None,5.640889823032921,5.679891598290851,5.564744542899227,True,False,False,1203.7086553273439,None,1203.7086553273439,None,1203.7086553273439,None,1203.7086553273439,None,1203.7086553273439,None,1203.7086553273439,None,1203.7086553273439,None,1203.7086553273439,None,1204.710390486107,None,1204.710390486107,None,1205.6911738193448,None,1205.6911738193448,None,h,,,,,,,,,,,,,,,,,,,,,,,,,,,,,,,,,,,,,,,,,,,,,,,3_4,001,2021_Apr_22_1508,ComputerHuman,2020.1.3,60.07214915469044,
Human.xlsx,h,Sychronize.jpg,Number10.jpg,10,Human,,,,,0,8,8,6,0,4,4,9,,,,,,,,,,,,,,,,,,,,,,,,,,,,,1206.7419162260594,None,1206.7419162260594,None,1207.1913990146568,None,1207.1913990146568,None,v,9.424860792725667,1207.1913990146568,None,t,9.935723419093847,1207.1913990146568,None,9.424860792725667,9.935723419093847,9.508137043914218,False,False,False,1217.2064052989554,None,1217.2064052989554,None,1217.2064052989554,None,1217.2064052989554,None,1217.2064052989554,None,1217.2064052989554,None,1217.2064052989554,None,1217.2064052989554,None,1218.2080637886575,None,1218.2080637886575,None,1219.2051311169234,None,1219.2051311169234,None,h,,,,,,,,,,,,,,,,,,,,,,,,,,,,,,,,,,,,,,,,,,,,,,,3_4,001,2021_Apr_22_1508,ComputerHuman,2020.1.3,60.07214915469044,
Human.xlsx,h,Sychronize.jpg,Number7.jpg,7,Human,,,,,0,8,8,6,0,5,5,3,,,,,,,,,,,,,,,,,,,,,,,,,,,,,1220.2551693872956,None,1220.2551693872956,None,1220.7052029741171,None,1220.7052029741171,None,v,6.802752964591491,1220.7052029741171,None,t,7.125805907300673,1220.7052029741171,None,6.802752964591491,7.125805907300673,7.069184280445451,False,False,False,1227.903278933587,None,1227.903278933587,None,1227.903278933587,None,1227.903278933587,None,1227.903278933587,None,1227.903278933587,None,1227.903278933587,None,1227.903278933587,None,1228.9055167719162,None,1228.9055167719162,None,1229.9029472356451,None,1229.9029472356451,None,h,,,,,,,,,,,,,,,,,,,,,,,,,,,,,,,,,,,,,,,,,,,,,,,3_4,001,2021_Apr_22_1508,ComputerHuman,2020.1.3,60.07214915469044,
Human.xlsx,h,Sychronize.jpg,Number8.jpg,8,Human,,,,,0,8,8,6,0,6,6,4,,,,,,,,,,,,,,,,,,,,,,,,,,,,,1230.953253045751,None,1230.953253045751,None,1231.4027432125404,None,1231.4027432125404,None,v,7.844758627194096,1231.4027432125404,None,t,7.351824049961579,1231.4027432125404,None,7.844758627194096,7.351824049961579,7.960280511908023,False,False,False,1239.318387999334,None,1239.318387999334,None,1239.318387999334,None,1239.318387999334,None,1239.318387999334,None,1239.318387999334,None,1239.318387999334,None,1239.318387999334,None,1240.302802366412,None,1240.302802366412,None,1241.300557149887,None,1241.300557149887,None,h,,,,,,,,,,,,,,,,,,,,,,,,,,,,,,,,,,,,,,,,,,,,,,,3_4,001,2021_Apr_22_1508,ComputerHuman,2020.1.3,60.07214915469044,
Human.xlsx,h,Sychronize.jpg,Number6.jpg,6,Human,,,,,0,8,8,6,0,7,7,0,,,,,,,,,,,,,,,,,,,,,,,,,,,,,1242.3670690027939,None,1242.3670690027939,None,1242.8006963732005,None,1242.8006963732005,None,v,5.710421923628019,1242.8006963732005,None,t,8.938116199497017,1242.8006963732005,None,5.710421923628019,8.938116199497017,5.926276790515296,False,False,False,1251.8312943854507,None,1251.8312943854507,None,1251.8312943854507,None,1251.8312943854507,None,1251.8312943854507,None,1251.8312943854507,None,1251.8312943854507,None,1251.8312943854507,None,1252.817752191484,None,1252.817752191484,None,1253.8147322645855,None,1253.8147322645855,None,h,,,,,,,,,,,,,,,,,,,,,,,,,,,,,,,,,,,,,,,,,,,,,,,3_4,001,2021_Apr_22_1508,ComputerHuman,2020.1.3,60.07214915469044,
Human.xlsx,h,Sychronize.jpg,Number7.jpg,7,Human,,,,,0,8,8,6,0,8,8,2,,,,,,,,,,,,,,,,,,,,,,,,,,,,,1254.86510640318,None,1254.86510640318,None,1255.2980633203006,None,1255.2980633203006,None,None,,1255.2980633203006,None,t,6.687713125553273,1255.2980633203006,None,13,6.687713125553273,7.263430933520881,False,False,False,1268.3632223973727,None,1268.3632223973727,None,1268.3632223973727,None,1268.3632223973727,None,1268.3632223973727,None,1268.3632223973727,None,1268.3632223973727,None,1268.3632223973727,None,1269.3641004024648,None,1269.3641004024648,None,1270.3613890765519,None,1270.3613890765519,None,h,,,,,,,,,,,,,,,,,,,,,,,,,,,,,,,,,,,,,,,,,,,,,,,3_4,001,2021_Apr_22_1508,ComputerHuman,2020.1.3,60.07214915469044,
Human.xlsx,h,Sychronize.jpg,Number8.jpg,8,Human,,,,,0,8,8,6,0,9,9,5,,,,,,,,,,,,,,,,,,,,,,,,,,,,,1271.4113801906387,None,1271.4113801906387,None,1271.8450037115508,None,1271.8450037115508,None,v,7.4091539007858955,1271.8450037115508,None,t,8.124848666826438,1271.8450037115508,None,7.4091539007858955,8.124848666826438,8.517239594213082,False,False,False,1280.0588821586898,None,1280.0588821586898,None,1280.0588821586898,None,1280.0588821586898,None,1280.0588821586898,None,1280.0588821586898,None,1280.0588821586898,None,1280.0588821586898,None,1281.0447426518003,None,1281.0447426518003,None,1282.0422298955418,None,1282.0422298955418,None,h,,,,,,,,,,,,,,,,,,,,,,,,,,,,,,,,,,,,,,,,,,,,,,,3_4,001,2021_Apr_22_1508,ComputerHuman,2020.1.3,60.07214915469044,
Human.xlsx,h,,,,,,,,,0,8,8,6,,,,,,,,,,,,,,,,,,,,,,,,,,,,,,,,,,,,,,,,,,,,,,,,,,,,,,,,,,,,,,,,,,,,,,,,,,,,,,,h,1283.0431072590509,None,1283.0431072590509,None,q,0,2.3708026897693344,1283.0431072590509,None,l,0,4.55786236395943,1283.0431072590509,None,h,c,1287.6916627048959,None,1287.6916627048959,None,1289.6740557675985,None,None,None,None,None,None,None,None,,,,,,,,,,,,,,,,,,3_4,001,2021_Apr_22_1508,ComputerHuman,2020.1.3,60.07214915469044,
Computer.xlsx,c,Sychronize.jpg,Number8.jpg,8,Computer,,,,,0,9,9,7,0,0,0,4,,,,,,,,,,,,,,,,,,,,,,,,,1294.676646155287,None,1294.676646155287,None,1297.7562215819235,None,1297.7562215819235,None,1298.2061329473581,None,1298.2061329473581,None,v,7.875062794846599,1298.2061329473581,None,t,7.802871015694109,1298.2061329473581,None,7.875062794846599,7.802871015694109,7.44004344608495,False,False,False,1306.1381820258212,None,1306.1381820258212,None,1306.1381820258212,None,1306.1381820258212,None,1306.1381820258212,None,1306.1381820258212,None,1306.1381820258212,None,1306.1381820258212,None,1307.1706136796856,None,1307.1706136796856,None,1308.137070164059,None,1308.137070164059,None,c,,,,,,,,,,,,,,,,,,,,,,,,,,,,,,,,,,,,,,,,,,,,,,,3_4,001,2021_Apr_22_1508,ComputerHuman,2020.1.3,60.07214915469044,
Computer.xlsx,c,Sychronize.jpg,Number10.jpg,10,Computer,,,,,0,9,9,7,0,1,1,9,,,,,,,,,,,,,,,,,,,,,,,,,,,,,1309.1883072305645,None,1309.1883072305645,None,1309.6371811577592,None,1309.6371811577592,None,v,9.399561286165408,1309.6371811577592,None,t,9.726687312777358,1309.6371811577592,None,9.399561286165408,9.726687312777358,9.53138541624022,False,True,True,1319.4514097804058,None,1319.4514097804058,None,1319.4514097804058,None,1319.4514097804058,None,1319.4514097804058,None,1319.4514097804058,None,1319.4514097804058,None,1319.4514097804058,None,1320.4511881137914,None,1320.4511881137914,None,1321.4176580713902,None,1321.4176580713902,None,c,,,,,,,,,,,,,,,,,,,,,,,,,,,,,,,,,,,,,,,,,,,,,,,3_4,001,2021_Apr_22_1508,ComputerHuman,2020.1.3,60.07214915469044,
Computer.xlsx,c,Sychronize.jpg,Number9.jpg,9,Computer,,,,,0,9,9,7,0,2,2,6,,,,,,,,,,,,,,,,,,,,,,,,,,,,,1322.4689394070629,None,1322.4689394070629,None,1322.9176215012121,None,1322.9176215012121,None,v,8.018747028672806,1322.9176215012121,None,t,8.713742431737046,1322.9176215012121,None,8.018747028672806,8.713742431737046,8.672816744121256,False,False,True,1331.69891771517,None,1331.69891771517,None,1331.69891771517,None,1331.69891771517,None,1331.69891771517,None,1331.69891771517,None,1331.69891771517,None,1331.69891771517,None,1332.7152886445729,None,1332.7152886445729,None,1333.698485609635,None,1333.698485609635,None,c,,,,,,,,,,,,,,,,,,,,,,,,,,,,,,,,,,,,,,,,,,,,,,,3_4,001,2021_Apr_22_1508,ComputerHuman,2020.1.3,60.07214915469044,
Computer.xlsx,c,Sychronize.jpg,Number7.jpg,7,Computer,,,,,0,9,9,7,0,3,3,2,,,,,,,,,,,,,,,,,,,,,,,,,,,,,1334.7491025870513,None,1334.7491025870513,None,1335.1986832169168,None,1335.1986832169168,None,v,6.469384665033431,1335.1986832169168,None,t,7.0567360666027525,1335.1986832169168,None,6.469384665033431,7.0567360666027525,6.5921645844049195,False,True,False,1342.330034639017,None,1342.330034639017,None,1342.330034639017,None,1342.330034639017,None,1342.330034639017,None,1342.330034639017,None,1342.330034639017,None,1342.330034639017,None,1343.3297991783875,None,1343.3297991783875,None,1344.312988123671,None,1344.312988123671,None,c,,,,,,,,,,,,,,,,,,,,,,,,,,,,,,,,,,,,,,,,,,,,,,,3_4,001,2021_Apr_22_1508,ComputerHuman,2020.1.3,60.07214915469044,
Computer.xlsx,c,Sychronize.jpg,Number8.jpg,8,Computer,,,,,0,9,9,7,0,4,4,5,,,,,,,,,,,,,,,,,,,,,,,,,,,,,1345.3799340068654,None,1345.3799340068654,None,1345.8299092097186,None,1345.8299092097186,None,v,6.877726002105192,1345.8299092097186,None,t,7.70078311510224,1345.8299092097186,None,6.877726002105192,7.70078311510224,8.541898371510388,False,False,False,1353.6275038543026,None,1353.6275038543026,None,1353.6275038543026,None,1353.6275038543026,None,1353.6275038543026,None,1353.6275038543026,None,1353.6275038543026,None,1353.6275038543026,None,1354.6109648303936,None,1354.6109648303936,None,1355.5940857679743,None,1355.5940857679743,None,c,,,,,,,,,,,,,,,,,,,,,,,,,,,,,,,,,,,,,,,,,,,,,,,3_4,001,2021_Apr_22_1508,ComputerHuman,2020.1.3,60.07214915469044,
Computer.xlsx,c,Sychronize.jpg,Number10.jpg,10,Computer,,,,,0,9,9,7,0,5,5,8,,,,,,,,,,,,,,,,,,,,,,,,,,,,,1356.6445593517965,None,1356.6445593517965,None,1357.0941002035725,None,1357.0941002035725,None,v,9.480937954522233,1357.0941002035725,None,t,9.920636937033123,1357.0941002035725,None,9.480937954522233,9.920636937033123,10.548772262974957,False,False,False,1367.0921286218108,None,1367.0921286218108,None,1367.0921286218108,None,1367.0921286218108,None,1367.0921286218108,None,1367.0921286218108,None,1367.0921286218108,None,1367.0921286218108,None,1368.1082169343026,None,1368.1082169343026,None,1369.0913385134663,None,1369.0913385134663,None,c,,,,,,,,,,,,,,,,,,,,,,,,,,,,,,,,,,,,,,,,,,,,,,,3_4,001,2021_Apr_22_1508,ComputerHuman,2020.1.3,60.07214915469044,
Computer.xlsx,c,Sychronize.jpg,Number6.jpg,6,Computer,,,,,0,9,9,7,0,6,6,1,,,,,,,,,,,,,,,,,,,,,,,,,,,,,1370.1409052210001,None,1370.1409052210001,None,1370.5911915911674,None,1370.5911915911674,None,v,8.03954904478087,1370.5911915911674,None,t,5.814763702106575,1370.5911915911674,None,8.03954904478087,5.814763702106575,5.663727808512319,False,False,True,1378.7076939165818,None,1378.7076939165818,None,1378.7076939165818,None,1378.7076939165818,None,1378.7076939165818,None,1378.7076939165818,None,1378.7076939165818,None,1378.7076939165818,None,1379.7226235318194,None,1379.7226235318194,None,1380.705630588578,None,1380.705630588578,None,c,,,,,,,,,,,,,,,,,,,,,,,,,,,,,,,,,,,,,,,,,,,,,,,3_4,001,2021_Apr_22_1508,ComputerHuman,2020.1.3,60.07214915469044,
Computer.xlsx,c,Sychronize.jpg,Number7.jpg,7,Computer,,,,,0,9,9,7,0,7,7,3,,,,,,,,,,,,,,,,,,,,,,,,,,,,,1381.7391413835176,None,1381.7391413835176,None,1382.2054175833255,None,1382.2054175833255,None,v,6.765041090126033,1382.2054175833255,None,t,6.931843772195862,1382.2054175833255,None,6.765041090126033,6.931843772195862,7.080315222358445,False,False,True,1389.1873230436395,None,1389.1873230436395,None,1389.1873230436395,None,1389.1873230436395,None,1389.1873230436395,None,1389.1873230436395,None,1389.1873230436395,None,1389.1873230436395,None,1390.203688519592,None,1390.203688519592,None,1391.1868729738017,None,1391.1868729738017,None,c,,,,,,,,,,,,,,,,,,,,,,,,,,,,,,,,,,,,,,,,,,,,,,,3_4,001,2021_Apr_22_1508,ComputerHuman,2020.1.3,60.07214915469044,
Computer.xlsx,c,Sychronize.jpg,Number9.jpg,9,Computer,,,,,0,9,9,7,0,8,8,7,,,,,,,,,,,,,,,,,,,,,,,,,,,,,1392.2370780555175,None,1392.2370780555175,None,1392.6870923948773,None,1392.6870923948773,None,v,8.246926019812236,1392.6870923948773,None,t,9.405715662367584,1392.6870923948773,None,8.246926019812236,9.405715662367584,9.005754472967661,False,False,False,1402.1841622894717,None,1402.1841622894717,None,1402.1841622894717,None,1402.1841622894717,None,1402.1841622894717,None,1402.1841622894717,None,1402.1841622894717,None,1402.1841622894717,None,1403.1843849184552,None,1403.1843849184552,None,1404.1508535928915,None,1404.1508535928915,None,c,,,,,,,,,,,,,,,,,,,,,,,,,,,,,,,,,,,,,,,,,,,,,,,3_4,001,2021_Apr_22_1508,ComputerHuman,2020.1.3,60.07214915469044,
Computer.xlsx,c,Sychronize.jpg,Number6.jpg,6,Computer,,,,,0,9,9,7,0,9,9,0,,,,,,,,,,,,,,,,,,,,,,,,,,,,,1405.2183416129483,None,1405.2183416129483,None,1405.6509084481586,None,1405.6509084481586,None,v,6.030607635981141,1405.6509084481586,None,t,6.469784370674461,1405.6509084481586,None,6.030607635981141,6.469784370674461,5.935198361251719,False,True,False,1412.2176839913081,None,1412.2176839913081,None,1412.2176839913081,None,1412.2176839913081,None,1412.2176839913081,None,1412.2176839913081,None,1412.2176839913081,None,1412.2176839913081,None,1413.21569540762,None,1413.21569540762,None,1414.1986671773666,None,1414.1986671773666,None,c,,,,,,,,,,,,,,,,,,,,,,,,,,,,,,,,,,,,,,,,,,,,,,,3_4,001,2021_Apr_22_1508,ComputerHuman,2020.1.3,60.07214915469044,
Computer.xlsx,c,,,,,,,,,0,9,9,7,,,,,,,,,,,,,,,,,,,,,,,,,,,,,,,,,,,,,,,,,,,,,,,,,,,,,,,,,,,,,,,,,,,,,,,,,,,,,,,c,1415.1995718081125,None,1415.1995718081125,None,a,0,4.417755591868627,1415.1995718081125,None,o,0,8.280760813708184,1415.1995718081125,None,c,h,1423.5649563371298,None,1423.5649563371298,None,None,None,1425.5466109388435,None,1425.5466109388435,None,"['space', 'space']",1426.5298149613081,None,"[197.9924575609475, 202.02040712233065]",,,,,,,,,,,,,,,,,3_4,001,2021_Apr_22_1508,ComputerHuman,2020.1.3,60.07214915469044,
Human.xlsx,h,Sychronize.jpg,Number8.jpg,8,Human,,,,,1,0,10,4,0,0,0,5,,,,,,,,,,,,,,,,,,,,,,,,,1628.6085951469431,None,1628.6085951469431,None,1631.6720889977005,None,1631.6720889977005,None,1632.12193107227,None,1632.12193107227,None,v,7.675877539943031,1632.12193107227,None,t,9.790726508312218,1632.12193107227,None,7.675877539943031,9.790726508312218,8.589606307471582,False,False,False,1642.0022352720007,None,1642.0022352720007,None,1642.0022352720007,None,1642.0022352720007,None,1642.0022352720007,None,1642.0022352720007,None,1642.0022352720007,None,1642.0022352720007,None,1642.9713421319902,None,1642.9713421319902,None,1643.968952559495,None,1643.968952559495,None,h,,,,,,,,,,,,,,,,,,,,,,,,,,,,,,,,,,,,,,,,,,,,,,,3_4,001,2021_Apr_22_1508,ComputerHuman,2020.1.3,60.07214915469044,
Human.xlsx,h,Sychronize.jpg,Number10.jpg,10,Human,,,,,1,0,10,4,0,1,1,9,,,,,,,,,,,,,,,,,,,,,,,,,,,,,1645.0363616649556,None,1645.0363616649556,None,1645.4856879075232,None,1645.4856879075232,None,v,9.29957681245287,1645.4856879075232,None,t,9.330814802840905,1645.4856879075232,None,9.29957681245287,9.330814802840905,10.027457086370948,True,False,False,1654.8847230963765,None,1654.8847230963765,None,1654.8847230963765,None,1654.8847230963765,None,1654.8847230963765,None,1654.8847230963765,None,1654.8847230963765,None,1654.8847230963765,None,1655.86871562323,None,1655.86871562323,None,1656.86632220124,None,1656.86632220124,None,h,,,,,,,,,,,,,,,,,,,,,,,,,,,,,,,,,,,,,,,,,,,,,,,3_4,001,2021_Apr_22_1508,ComputerHuman,2020.1.3,60.07214915469044,
Human.xlsx,h,Sychronize.jpg,Number6.jpg,6,Human,,,,,1,0,10,4,0,2,2,0,,,,,,,,,,,,,,,,,,,,,,,,,,,,,1657.9161343139276,None,1657.9161343139276,None,1658.3662821023609,None,1658.3662821023609,None,v,5.918640333573421,1658.3662821023609,None,t,5.533803356374847,1658.3662821023609,None,5.918640333573421,5.533803356374847,6.0518565488475335,False,False,False,1664.3811992067458,None,1664.3811992067458,None,1664.3811992067458,None,1664.3811992067458,None,1664.3811992067458,None,1664.3811992067458,None,1664.3811992067458,None,1664.3811992067458,None,1665.3663077656456,None,1665.3663077656456,None,1666.364408682657,None,1666.364408682657,None,h,,,,,,,,,,,,,,,,,,,,,,,,,,,,,,,,,,,,,,,,,,,,,,,3_4,001,2021_Apr_22_1508,ComputerHuman,2020.1.3,60.07214915469044,
Human.xlsx,h,Sychronize.jpg,Number9.jpg,9,Human,,,,,1,0,10,4,0,3,3,6,,,,,,,,,,,,,,,,,,,,,,,,,,,,,1667.4148078429535,None,1667.4148078429535,None,1667.8644590468502,None,1667.8644590468502,None,v,8.612192818516633,1667.8644590468502,None,t,8.12776048714295,1667.8644590468502,None,8.612192818516633,8.12776048714295,8.627630979178566,False,False,False,1676.5467164791007,None,1676.5467164791007,None,1676.5467164791007,None,1676.5467164791007,None,1676.5467164791007,None,1676.5467164791007,None,1676.5467164791007,None,1676.5467164791007,None,1677.531188588564,None,1677.531188588564,None,1678.5452790144263,None,1678.5452790144263,None,h,,,,,,,,,,,,,,,,,,,,,,,,,,,,,,,,,,,,,,,,,,,,,,,3_4,001,2021_Apr_22_1508,ComputerHuman,2020.1.3,60.07214915469044,
Human.xlsx,h,Sychronize.jpg,Number7.jpg,7,Human,,,,,1,0,10,4,0,4,4,3,,,,,,,,,,,,,,,,,,,,,,,,,,,,,1679.5960778803674,None,1679.5960778803674,None,1680.0453248875456,None,1680.0453248875456,None,v,5.970806410943624,1680.0453248875456,None,t,5.977666527443944,1680.0453248875456,None,5.970806410943624,5.977666527443944,6.806053230298336,True,False,False,1686.0947559004671,None,1686.0947559004671,None,1686.0947559004671,None,1686.0947559004671,None,1686.0947559004671,None,1686.0947559004671,None,1686.0947559004671,None,1686.0947559004671,None,1687.1127821116643,None,1687.1127821116643,None,1688.093299829914,None,1688.093299829914,None,h,,,,,,,,,,,,,,,,,,,,,,,,,,,,,,,,,,,,,,,,,,,,,,,3_4,001,2021_Apr_22_1508,ComputerHuman,2020.1.3,60.07214915469044,
Human.xlsx,h,Sychronize.jpg,Number8.jpg,8,Human,,,,,1,0,10,4,0,5,5,4,,,,,,,,,,,,,,,,,,,,,,,,,,,,,1689.1444255819297,None,1689.1444255819297,None,1689.5934223720942,None,1689.5934223720942,None,v,7.370414853394323,1689.5934223720942,None,t,7.305781232054869,1689.5934223720942,None,7.370414853394323,7.305781232054869,7.423528820127791,True,False,False,1697.05985800505,None,1697.05985800505,None,1697.05985800505,None,1697.05985800505,None,1697.05985800505,None,1697.05985800505,None,1697.05985800505,None,1697.05985800505,None,1698.043455638126,None,1698.043455638126,None,1699.0411940612576,None,1699.0411940612576,None,h,,,,,,,,,,,,,,,,,,,,,,,,,,,,,,,,,,,,,,,,,,,,,,,3_4,001,2021_Apr_22_1508,ComputerHuman,2020.1.3,60.07214915469044,
Human.xlsx,h,Sychronize.jpg,Number9.jpg,9,Human,,,,,1,0,10,4,0,6,6,7,,,,,,,,,,,,,,,,,,,,,,,,,,,,,1700.0908563645244,None,1700.0908563645244,None,1700.5409310126015,None,1700.5409310126015,None,v,8.214648987232067,1700.5409310126015,None,t,8.273749283835059,1700.5409310126015,None,8.214648987232067,8.273749283835059,9.544687636488257,True,False,False,1708.8723424867821,None,1708.8723424867821,None,1708.8723424867821,None,1708.8723424867821,None,1708.8723424867821,None,1708.8723424867821,None,1708.8723424867821,None,1708.8723424867821,None,1709.875080759146,None,1709.875080759146,None,1710.872048642188,None,1710.872048642188,None,h,,,,,,,,,,,,,,,,,,,,,,,,,,,,,,,,,,,,,,,,,,,,,,,3_4,001,2021_Apr_22_1508,ComputerHuman,2020.1.3,60.07214915469044,
Human.xlsx,h,Sychronize.jpg,Number10.jpg,10,Human,,,,,1,0,10,4,0,7,7,8,,,,,,,,,,,,,,,,,,,,,,,,,,,,,1711.9555361156163,None,1711.9555361156163,None,1712.3886954518894,None,1712.3886954518894,None,v,9.274333123536053,1712.3886954518894,None,t,9.541738443662325,1712.3886954518894,None,9.274333123536053,9.541738443662325,10.650790052671985,True,False,False,1722.0032986943152,None,1722.0032986943152,None,1722.0032986943152,None,1722.0032986943152,None,1722.0032986943152,None,1722.0032986943152,None,1722.0032986943152,None,1722.0032986943152,None,1723.005209967363,None,1723.005209967363,None,1723.9860231341663,None,1723.9860231341663,None,h,,,,,,,,,,,,,,,,,,,,,,,,,,,,,,,,,,,,,,,,,,,,,,,3_4,001,2021_Apr_22_1508,ComputerHuman,2020.1.3,60.07214915469044,
Human.xlsx,h,Sychronize.jpg,Number6.jpg,6,Human,,,,,1,0,10,4,0,8,8,1,,,,,,,,,,,,,,,,,,,,,,,,,,,,,1725.0358577022234,None,1725.0358577022234,None,1725.485826168464,None,1725.485826168464,None,v,5.692991421405168,1725.485826168464,None,t,6.06393429686068,1725.485826168464,None,5.692991421405168,6.06393429686068,5.603639573971739,False,False,False,1731.618308058205,None,1731.618308058205,None,1731.618308058205,None,1731.618308058205,None,1731.618308058205,None,1731.618308058205,None,1731.618308058205,None,1731.618308058205,None,1732.6201978382524,None,1732.6201978382524,None,1733.617139095637,None,1733.617139095637,None,h,,,,,,,,,,,,,,,,,,,,,,,,,,,,,,,,,,,,,,,,,,,,,,,3_4,001,2021_Apr_22_1508,ComputerHuman,2020.1.3,60.07214915469044,
Human.xlsx,h,Sychronize.jpg,Number7.jpg,7,Human,,,,,1,0,10,4,0,9,9,2,,,,,,,,,,,,,,,,,,,,,,,,,,,,,1734.6844510014125,None,1734.6844510014125,None,1735.1173790473404,None,1735.1173790473404,None,v,6.540953467974759,1735.1173790473404,None,t,6.439816392037756,1735.1173790473404,None,6.540953467974759,6.439816392037756,6.662565407264024,True,False,False,1741.7326963706328,None,1741.7326963706328,None,1741.7326963706328,None,1741.7326963706328,None,1741.7326963706328,None,1741.7326963706328,None,1741.7326963706328,None,1741.7326963706328,None,1742.7179832893526,None,1742.7179832893526,None,1743.71535504832,None,1743.71535504832,None,h,,,,,,,,,,,,,,,,,,,,,,,,,,,,,,,,,,,,,,,,,,,,,,,3_4,001,2021_Apr_22_1508,ComputerHuman,2020.1.3,60.07214915469044,
Human.xlsx,h,,,,,,,,,1,0,10,4,,,,,,,,,,,,,,,,,,,,,,,,,,,,,,,,,,,,,,,,,,,,,,,,,,,,,,,,,,,,,,,,,,,,,,,,,,,,,,,h,1744.7162436395156,None,1744.7162436395156,None,a,0,2.890280801231711,1744.7162436395156,None,l,0,1.6127285395596118,1744.7162436395156,None,c,c,1747.6977535644692,None,1747.6977535644692,None,1749.6974638901556,None,None,None,None,None,None,None,None,,,,,,,,,,,,,,,,,,3_4,001,2021_Apr_22_1508,ComputerHuman,2020.1.3,60.07214915469044,
Computer.xlsx,c,Sychronize.jpg,Number7.jpg,7,Computer,,,,,1,1,11,3,0,0,0,2,,,,,,,,,,,,,,,,,,,,,,,,,1754.7001902932461,None,1754.7001902932461,None,1757.7627317153892,None,1757.7627317153892,None,1758.1960549758842,None,1758.1960549758842,None,v,6.237508877889923,1758.1960549758842,None,t,6.648768771887262,1758.1960549758842,None,6.237508877889923,6.648768771887262,7.368237061449866,False,False,False,1764.9281565999227,None,1764.9281565999227,None,1764.9281565999227,None,1764.9281565999227,None,1764.9281565999227,None,1764.9281565999227,None,1764.9281565999227,None,1764.9281565999227,None,1765.9442089838158,None,1765.9442089838158,None,1766.9273610381315,None,1766.9273610381315,None,c,,,,,,,,,,,,,,,,,,,,,,,,,,,,,,,,,,,,,,,,,,,,,,,3_4,001,2021_Apr_22_1508,ComputerHuman,2020.1.3,60.07214915469044,
Computer.xlsx,c,Sychronize.jpg,Number9.jpg,9,Computer,,,,,1,1,11,3,0,1,1,7,,,,,,,,,,,,,,,,,,,,,,,,,,,,,1767.9606049349204,None,1767.9606049349204,None,1768.4275150178328,None,1768.4275150178328,None,v,7.989668603604514,1768.4275150178328,None,t,8.656745882810355,1768.4275150178328,None,7.989668603604514,8.656745882810355,8.365566687586469,False,False,True,1777.175198746092,None,1777.175198746092,None,1777.175198746092,None,1777.175198746092,None,1777.175198746092,None,1777.175198746092,None,1777.175198746092,None,1777.175198746092,None,1778.1583864082095,None,1778.1583864082095,None,1779.1580899972832,None,1779.1580899972832,None,c,,,,,,,,,,,,,,,,,,,,,,,,,,,,,,,,,,,,,,,,,,,,,,,3_4,001,2021_Apr_22_1508,ComputerHuman,2020.1.3,60.07214915469044,
Computer.xlsx,c,Sychronize.jpg,Number8.jpg,8,Computer,,,,,1,1,11,3,0,2,2,4,,,,,,,,,,,,,,,,,,,,,,,,,,,,,1780.2084872328378,None,1780.2084872328378,None,1780.658097375479,None,1780.658097375479,None,v,7.642757147707016,1780.658097375479,None,t,7.269793288665824,1780.658097375479,None,7.642757147707016,7.269793288665824,8.310314575299316,False,False,False,1788.3736420113091,None,1788.3736420113091,None,1788.3736420113091,None,1788.3736420113091,None,1788.3736420113091,None,1788.3736420113091,None,1788.3736420113091,None,1788.3736420113091,None,1789.3726437095756,None,1789.3726437095756,None,1790.355999145413,None,1790.355999145413,None,c,,,,,,,,,,,,,,,,,,,,,,,,,,,,,,,,,,,,,,,,,,,,,,,3_4,001,2021_Apr_22_1508,ComputerHuman,2020.1.3,60.07214915469044,
Computer.xlsx,c,Sychronize.jpg,Number10.jpg,10,Computer,,,,,1,1,11,3,0,3,3,8,,,,,,,,,,,,,,,,,,,,,,,,,,,,,1791.4225684199155,None,1791.4225684199155,None,1791.8557906312308,None,1791.8557906312308,None,v,9.768478366175259,1791.8557906312308,None,t,9.94774121401133,1791.8557906312308,None,9.768478366175259,9.94774121401133,10.410638268348503,False,False,False,1801.8534552724232,None,1801.8534552724232,None,1801.8534552724232,None,1801.8534552724232,None,1801.8534552724232,None,1801.8534552724232,None,1801.8534552724232,None,1801.8534552724232,None,1802.86950765632,None,1802.86950765632,None,1803.8698249186637,None,1803.8698249186637,None,c,,,,,,,,,,,,,,,,,,,,,,,,,,,,,,,,,,,,,,,,,,,,,,,3_4,001,2021_Apr_22_1508,ComputerHuman,2020.1.3,60.07214915469044,
Computer.xlsx,c,Sychronize.jpg,Number10.jpg,10,Computer,,,,,1,1,11,3,0,4,4,9,,,,,,,,,,,,,,,,,,,,,,,,,,,,,1804.9030072235728,None,1804.9030072235728,None,1805.3532534948572,None,1805.3532534948572,None,v,9.022672869483358,1805.3532534948572,None,t,9.077718367276248,1805.3532534948572,None,9.022672869483358,9.077718367276248,9.387341673901862,False,False,False,1814.5171055408937,None,1814.5171055408937,None,1814.5171055408937,None,1814.5171055408937,None,1814.5171055408937,None,1814.5171055408937,None,1814.5171055408937,None,1814.5171055408937,None,1815.517486640656,None,1815.517486640656,None,1816.5006524889832,None,1816.5006524889832,None,c,,,,,,,,,,,,,,,,,,,,,,,,,,,,,,,,,,,,,,,,,,,,,,,3_4,001,2021_Apr_22_1508,ComputerHuman,2020.1.3,60.07214915469044,
Computer.xlsx,c,Sychronize.jpg,Number6.jpg,6,Computer,,,,,1,1,11,3,0,5,5,0,,,,,,,,,,,,,,,,,,,,,,,,,,,,,1817.5508139431186,None,1817.5508139431186,None,1818.0008314903862,None,1818.0008314903862,None,v,5.746703711614828,1818.0008314903862,None,t,5.453808014255628,1818.0008314903862,None,5.746703711614828,5.453808014255628,6.021227660112878,False,True,False,1823.817476952765,None,1823.817476952765,None,1823.817476952765,None,1823.817476952765,None,1823.817476952765,None,1823.817476952765,None,1823.817476952765,None,1823.817476952765,None,1824.8154309474812,None,1824.8154309474812,None,1825.7987196587783,None,1825.7987196587783,None,c,,,,,,,,,,,,,,,,,,,,,,,,,,,,,,,,,,,,,,,,,,,,,,,3_4,001,2021_Apr_22_1508,ComputerHuman,2020.1.3,60.07214915469044,
Computer.xlsx,c,Sychronize.jpg,Number7.jpg,7,Computer,,,,,1,1,11,3,0,6,6,3,,,,,,,,,,,,,,,,,,,,,,,,,,,,,1826.8492962165255,None,1826.8492962165255,None,1827.2986070611223,None,1827.2986070611223,None,v,6.68456391986183,1827.2986070611223,None,t,7.135803039433085,1827.2986070611223,None,6.68456391986183,7.135803039433085,6.625336497902736,False,True,False,1834.514774031577,None,1834.514774031577,None,1834.514774031577,None,1834.514774031577,None,1834.514774031577,None,1834.514774031577,None,1834.514774031577,None,1834.514774031577,None,1835.5300475348158,None,1835.5300475348158,None,1836.5132342345642,None,1836.5132342345642,None,c,,,,,,,,,,,,,,,,,,,,,,,,,,,,,,,,,,,,,,,,,,,,,,,3_4,001,2021_Apr_22_1508,ComputerHuman,2020.1.3,60.07214915469044,
Computer.xlsx,c,Sychronize.jpg,Number8.jpg,8,Computer,,,,,1,1,11,3,0,7,7,5,,,,,,,,,,,,,,,,,,,,,,,,,,,,,1837.563106976755,None,1837.563106976755,None,1837.9966015396676,None,1837.9966015396676,None,v,7.618179741788481,1837.9966015396676,None,t,8.077763598812453,1837.9966015396676,None,7.618179741788481,8.077763598812453,7.761257677836218,False,True,False,1846.144406976051,None,1846.144406976051,None,1846.144406976051,None,1846.144406976051,None,1846.144406976051,None,1846.144406976051,None,1846.144406976051,None,1846.144406976051,None,1847.1609960433634,None,1847.1609960433634,None,1848.1441869133923,None,1848.1441869133923,None,c,,,,,,,,,,,,,,,,,,,,,,,,,,,,,,,,,,,,,,,,,,,,,,,3_4,001,2021_Apr_22_1508,ComputerHuman,2020.1.3,60.07214915469044,
Computer.xlsx,c,Sychronize.jpg,Number9.jpg,9,Computer,,,,,1,1,11,3,0,8,8,6,,,,,,,,,,,,,,,,,,,,,,,,,,,,,1849.1948558589575,None,1849.1948558589575,None,1849.644075278109,None,1849.644075278109,None,v,8.526245519351505,1849.644075278109,None,t,8.438259913888032,1849.644075278109,None,8.526245519351505,8.438259913888032,9.532548641264613,False,False,False,1858.2257967968362,None,1858.2257967968362,None,1858.2257967968362,None,1858.2257967968362,None,1858.2257967968362,None,1858.2257967968362,None,1858.2257967968362,None,1858.2257967968362,None,1859.2418892796122,None,1859.2418892796122,None,1860.2250965099847,None,1860.2250965099847,None,c,,,,,,,,,,,,,,,,,,,,,,,,,,,,,,,,,,,,,,,,,,,,,,,3_4,001,2021_Apr_22_1508,ComputerHuman,2020.1.3,60.07214915469044,
Computer.xlsx,c,Sychronize.jpg,Number6.jpg,6,Computer,,,,,1,1,11,3,0,9,9,1,,,,,,,,,,,,,,,,,,,,,,,,,,,,,1861.3081547649963,None,1861.3081547649963,None,1861.7251516860451,None,1861.7251516860451,None,v,5.848822728945379,1861.7251516860451,None,t,6.675822684672312,1861.7251516860451,None,5.848822728945379,6.675822684672312,6.191619941964445,False,False,False,1868.4749003462603,None,1868.4749003462603,None,1868.4749003462603,None,1868.4749003462603,None,1868.4749003462603,None,1868.4749003462603,None,1868.4749003462603,None,1868.4749003462603,None,1869.4898238664682,None,1869.4898238664682,None,1870.473014094914,None,1870.473014094914,None,c,,,,,,,,,,,,,,,,,,,,,,,,,,,,,,,,,,,,,,,,,,,,,,,3_4,001,2021_Apr_22_1508,ComputerHuman,2020.1.3,60.07214915469044,
Computer.xlsx,c,,,,,,,,,1,1,11,3,,,,,,,,,,,,,,,,,,,,,,,,,,,,,,,,,,,,,,,,,,,,,,,,,,,,,,,,,,,,,,,,,,,,,,,,,,,,,,,c,1871.473982242289,None,1871.473982242289,None,q,0,2.4837949195680267,1871.473982242289,None,o,0,1.9230364540526352,1871.473982242289,None,h,h,1874.0554442410612,None,1874.0554442410612,None,1876.0385407985232,None,None,None,None,None,None,None,None,,,,,,,,,,,,,,,,,,3_4,001,2021_Apr_22_1508,ComputerHuman,2020.1.3,60.07214915469044,
Human.xlsx,h,Sychronize.jpg,Number9.jpg,9,Human,,,,,1,2,12,2,0,0,0,6,,,,,,,,,,,,,,,,,,,,,,,,,1881.056572463167,None,1881.056572463167,None,1884.1208801608045,None,1884.1208801608045,None,1884.5705445171334,None,1884.5705445171334,None,v,8.806676880652958,1884.5705445171334,None,t,9.021778824837384,1884.5705445171334,None,8.806676880652958,9.021778824837384,8.7475069120514,True,False,False,1893.6518778786958,None,1893.6518778786958,None,1893.6518778786958,None,1893.6518778786958,None,1893.6518778786958,None,1893.6518778786958,None,1893.6518778786958,None,1893.6518778786958,None,1894.6704811929812,None,1894.6704811929812,None,1895.6845048943069,None,1895.6845048943069,None,h,,,,,,,,,,,,,,,,,,,,,,,,,,,,,,,,,,,,,,,,,,,,,,,3_4,001,2021_Apr_22_1508,ComputerHuman,2020.1.3,60.07214915469044,
