Condition,CorrectTuringReply,Sychronize,NumberImage,Number,Partner,trials.thisRepN,trials.thisTrialN,trials.thisN,trials.thisIndex,Block.thisRepN,Block.thisTrialN,Block.thisN,Block.thisIndex,trials_loop.thisRepN,trials_loop.thisTrialN,trials_loop.thisN,trials_loop.thisIndex,key_resp_Istr.keys,key_resp_Istr.rt,key_resp_Istr.started,key_resp_Istr.stopped,key_respPrLeft.keys,key_respPrLeft.rt,key_respPrRight.keys,key_respPrRight.rt,RTPrLeft,RTPrRight,CompPr,SychronizedRTsPr,SychronizedRTsLeftCPr,SychronizedRTsRightCPr,CreditLeftPr.started,CreditLeftPr.stopped,CreditRightPr.started,CreditRightPr.stopped,text_StartExp.started,text_StartExp.stopped,key_startExp.keys,key_startExp.rt,key_startExp.started,key_startExp.stopped,SychroLeft.started,SychroLeft.stopped,SychroRight.started,SychroRight.stopped,NumberLeft.started,NumberLeft.stopped,NumberRight.started,NumberRight.stopped,CrossLeft.started,CrossLeft.stopped,CrossRight.started,CrossRight.stopped,key_respLeft.keys,key_respLeft.rt,key_respLeft.started,key_respLeft.stopped,key_respRight.keys,key_respRight.rt,key_respRight.started,key_respRight.stopped,RTLeft,RTRight,Comp,SychronizedRTs,SychronizedRTsLeftC,SychronizedRTsRightC,FeedbackLeftLeft.started,FeedbackLeftLeft.stopped,FeedbackLeftRight.started,FeedbackLeftRight.stopped,FeedbackRightLeft.started,FeedbackRightLeft.stopped,FeedbackRightRight.started,FeedbackRightRight.stopped,textLeftLeft.started,textLeftLeft.stopped,textLeftRight.started,textLeftRight.stopped,textRightLeft.started,textRightLeft.stopped,textRightRight.started,textRightRight.stopped,CreditLeft.started,CreditLeft.stopped,CreditRight.started,CreditRight.stopped,BlankLeft.started,BlankLeft.stopped,BlankRight.started,BlankRight.stopped,CorrectTuringReply,TuringtextLeft.started,TuringtextLeft.stopped,TuringtextRight.started,TuringtextRight.stopped,keyTuringLeft.keys,keyTuringLeft.corr,keyTuringLeft.rt,keyTuringLeft.started,keyTuringLeft.stopped,keyTuringRight.keys,keyTuringRight.corr,keyTuringRight.rt,keyTuringRight.started,keyTuringRight.stopped,RespTuringLeft,RespTuringRight,ScoreLeft.started,ScoreLeft.stopped,ScoreRight.started,ScoreRight.stopped,BlockText.started,BlockText.stopped,text_Pause.started,text_Pause.stopped,text_LongPause.started,text_LongPause.stopped,key_respPause.keys,key_respPause.started,key_respPause.stopped,key_respPause.rt,QuestImageLeft.started,QuestImageLeft.stopped,QuestImageRight.started,QuestImageRight.stopped,respQuestLeft.keys,respQuestLeft.rt,respQuestLeft.started,respQuestLeft.stopped,respQuestRight.keys,respQuestRight.rt,respQuestRight.started,respQuestRight.stopped,RespInclusionLeft,RespInclusionRight,EndText.started,EndText.stopped,participant,session,date,expName,psychopyVersion,frameRate,
,,,,,,,,,,,,,,,,,,"['t', 'v']","[319.36821155724647, 330.03988143452625]",24.9158512349768,None,,,,,,,,,,,,,,,,,,,,,,,,,,,,,,,,,,,,,,,,,,,,,,,,,,,,,,,,,,,,,,,,,,,,,,,,,,,,,,,,,,,,,,,,,,,,,,,,,,,,,,,,,,,,,,,,,,,,,,41_42Exp,001,2021_May_12_1507,ComputerHuman,2020.1.3,59.99713223834501,
,,,,,,,,,,,,,,,,,,,,,,v,7.217445100110126,t,7.392770264959836,7.217445100110126,7.392770264959836,8,False,False,False,417.6898133459945,None,417.6898133459945,None,418.6895608810937,None,"['space', 'space']","[0.9613648502763681, 6.353259989124126]",419.672755444275,None,,,,,,,,,,,,,,,,,,,,,,,,,,,,,,,,,,,,,,,,,,,,,,,,,,,,,,,,,,,,,,,,,,,,,,,,,,,,,,,,,,,,,,,,,,,,,,,,,,41_42Exp,001,2021_May_12_1507,ComputerHuman,2020.1.3,59.99713223834501,
Human.xlsx,h,Sychronize.jpg,Number10.jpg,10,Human,,,,,0,0,0,0,0,0,0,9,,,,,,,,,,,,,,,,,,,,,,,,,426.10707719747916,None,426.10707719747916,None,429.13802772622876,None,429.13802772622876,None,429.58801128553387,None,429.58801128553387,None,v,11.277609378734269,429.58801128553387,None,t,9.360735452391964,429.58801128553387,None,11.277609378734269,9.360735452391964,9.642831126606538,False,False,False,440.9519800209473,None,440.9519800209473,None,440.9519800209473,None,440.9519800209473,None,440.9519800209473,None,440.9519800209473,None,440.9519800209473,None,440.9519800209473,None,441.95599572060746,None,441.95599572060746,None,442.9515392499525,None,442.9515392499525,None,h,,,,,,,,,,,,,,,,,,,,,,,,,,,,,,,,,,,,,,,,,,,,,,,41_42Exp,001,2021_May_12_1507,ComputerHuman,2020.1.3,59.99713223834501,
Human.xlsx,h,Sychronize.jpg,Number10.jpg,10,Human,,,,,0,0,0,0,0,1,1,8,,,,,,,,,,,,,,,,,,,,,,,,,,,,,444.00160429094103,None,444.00160429094103,None,444.43511636001494,None,444.43511636001494,None,v,9.054463127131385,444.43511636001494,None,None,,444.43511636001494,None,9.054463127131385,13,9.908177633885714,False,False,False,457.50036746955993,None,457.50036746955993,None,457.50036746955993,None,457.50036746955993,None,457.50036746955993,None,457.50036746955993,None,457.50036746955993,None,457.50036746955993,None,458.4847448003293,None,458.4847448003293,None,459.4817062392831,None,459.4817062392831,None,h,,,,,,,,,,,,,,,,,,,,,,,,,,,,,,,,,,,,,,,,,,,,,,,41_42Exp,001,2021_May_12_1507,ComputerHuman,2020.1.3,59.99713223834501,
Human.xlsx,h,Sychronize.jpg,Number8.jpg,8,Human,,,,,0,0,0,0,0,2,2,5,,,,,,,,,,,,,,,,,,,,,,,,,,,,,460.5487794589171,None,460.5487794589171,None,460.9817923724804,None,460.9817923724804,None,None,,460.9817923724804,None,t,7.671083145000011,460.9817923724804,None,13,7.671083145000011,7.606907331744696,False,False,False,474.04576832576095,None,474.04576832576095,None,474.04576832576095,None,474.04576832576095,None,474.04576832576095,None,474.04576832576095,None,474.04576832576095,None,474.04576832576095,None,475.03115294978124,None,475.03115294978124,None,476.0284865098092,None,476.0284865098092,None,h,,,,,,,,,,,,,,,,,,,,,,,,,,,,,,,,,,,,,,,,,,,,,,,41_42Exp,001,2021_May_12_1507,ComputerHuman,2020.1.3,59.99713223834501,
Human.xlsx,h,Sychronize.jpg,Number7.jpg,7,Human,,,,,0,0,0,0,0,3,3,3,,,,,,,,,,,,,,,,,,,,,,,,,,,,,477.09583047960405,None,477.09583047960405,None,477.5285027099071,None,477.5285027099071,None,v,6.036011696149217,477.5285027099071,None,t,7.423731059116108,477.5285027099071,None,6.036011696149217,7.423731059116108,7.426349329002222,False,False,False,485.0273624475303,None,485.0273624475303,None,485.0273624475303,None,485.0273624475303,None,485.0273624475303,None,485.0273624475303,None,485.0273624475303,None,485.0273624475303,None,486.0279222331119,None,486.0279222331119,None,487.0263856297115,None,487.0263856297115,None,h,,,,,,,,,,,,,,,,,,,,,,,,,,,,,,,,,,,,,,,,,,,,,,,41_42Exp,001,2021_May_12_1507,ComputerHuman,2020.1.3,59.99713223834501,
Human.xlsx,h,Sychronize.jpg,Number6.jpg,6,Human,,,,,0,0,0,0,0,4,4,0,,,,,,,,,,,,,,,,,,,,,,,,,,,,,488.07647505104615,None,488.07647505104615,None,488.52665493629866,None,488.52665493629866,None,v,5.225644595502672,488.52665493629866,None,t,5.316856603463748,488.52665493629866,None,5.225644595502672,5.316856603463748,5.918094568834086,True,False,False,493.9417107624795,None,493.9417107624795,None,493.9417107624795,None,493.9417107624795,None,493.9417107624795,None,493.9417107624795,None,493.9417107624795,None,493.9417107624795,None,494.90979913481897,None,494.90979913481897,None,495.90795488994445,None,495.90795488994445,None,h,,,,,,,,,,,,,,,,,,,,,,,,,,,,,,,,,,,,,,,,,,,,,,,41_42Exp,001,2021_May_12_1507,ComputerHuman,2020.1.3,59.99713223834501,
Human.xlsx,h,Sychronize.jpg,Number8.jpg,8,Human,,,,,0,0,0,0,0,5,5,4,,,,,,,,,,,,,,,,,,,,,,,,,,,,,496.9743265330344,None,496.9743265330344,None,497.4082989415401,None,497.4082989415401,None,v,7.027727190341466,497.4082989415401,None,t,8.374713089840952,497.4082989415401,None,7.027727190341466,8.374713089840952,8.491372118839983,False,False,False,505.8579068510371,None,505.8579068510371,None,505.8579068510371,None,505.8579068510371,None,505.8579068510371,None,505.8579068510371,None,505.8579068510371,None,505.8579068510371,None,506.8587155727855,None,506.8587155727855,None,507.8390361422589,None,507.8390361422589,None,h,,,,,,,,,,,,,,,,,,,,,,,,,,,,,,,,,,,,,,,,,,,,,,,41_42Exp,001,2021_May_12_1507,ComputerHuman,2020.1.3,59.99713223834501,
Human.xlsx,h,Sychronize.jpg,Number9.jpg,9,Human,,,,,0,0,0,0,0,6,6,7,,,,,,,,,,,,,,,,,,,,,,,,,,,,,508.90648244534896,None,508.90648244534896,None,509.3388566579997,None,509.3388566579997,None,v,8.16879026967581,509.3388566579997,None,t,9.235749286634018,509.3388566579997,None,8.16879026967581,9.235749286634018,9.277516765268732,False,False,False,518.6537400573907,None,518.6537400573907,None,518.6537400573907,None,518.6537400573907,None,518.6537400573907,None,518.6537400573907,None,518.6537400573907,None,518.6537400573907,None,519.6564116300669,None,519.6564116300669,None,520.6532376939394,None,520.6532376939394,None,h,,,,,,,,,,,,,,,,,,,,,,,,,,,,,,,,,,,,,,,,,,,,,,,41_42Exp,001,2021_May_12_1507,ComputerHuman,2020.1.3,59.99713223834501,
Human.xlsx,h,Sychronize.jpg,Number7.jpg,7,Human,,,,,0,0,0,0,0,7,7,2,,,,,,,,,,,,,,,,,,,,,,,,,,,,,521.7034772468814,None,521.7034772468814,None,522.1533671343313,None,522.1533671343313,None,v,6.406088991470824,522.1533671343313,None,t,4.741876933787353,522.1533671343313,None,6.406088991470824,4.741876933787353,7.514576194384262,False,False,False,528.6360145832969,None,528.6360145832969,None,528.6360145832969,None,528.6360145832969,None,528.6360145832969,None,528.6360145832969,None,528.6360145832969,None,528.6360145832969,None,529.6195469425929,None,529.6195469425929,None,530.6178996652525,None,530.6178996652525,None,h,,,,,,,,,,,,,,,,,,,,,,,,,,,,,,,,,,,,,,,,,,,,,,,41_42Exp,001,2021_May_12_1507,ComputerHuman,2020.1.3,59.99713223834501,
Human.xlsx,h,Sychronize.jpg,Number9.jpg,9,Human,,,,,0,0,0,0,0,8,8,6,,,,,,,,,,,,,,,,,,,,,,,,,,,,,531.6858172147695,None,531.6858172147695,None,532.1345573764174,None,532.1345573764174,None,v,8.276581554664517,532.1345573764174,None,t,7.727745956792205,532.1345573764174,None,8.276581554664517,7.727745956792205,8.874382047947277,False,False,False,540.483987405627,None,540.483987405627,None,540.483987405627,None,540.483987405627,None,540.483987405627,None,540.483987405627,None,540.483987405627,None,540.483987405627,None,541.4842918391605,None,541.4842918391605,None,542.4656793695758,None,542.4656793695758,None,h,,,,,,,,,,,,,,,,,,,,,,,,,,,,,,,,,,,,,,,,,,,,,,,41_42Exp,001,2021_May_12_1507,ComputerHuman,2020.1.3,59.99713223834501,
Human.xlsx,h,Sychronize.jpg,Number6.jpg,6,Human,,,,,0,0,0,0,0,9,9,1,,,,,,,,,,,,,,,,,,,,,,,,,,,,,543.5334352389036,None,543.5334352389036,None,543.9657600492737,None,543.9657600492737,None,v,5.069152606532953,543.9657600492737,None,t,5.220816966155326,543.9657600492737,None,5.069152606532953,5.220816966155326,5.6753558850679156,True,False,False,549.2810675383716,None,549.2810675383716,None,549.2810675383716,None,549.2810675383716,None,549.2810675383716,None,549.2810675383716,None,549.2810675383716,None,549.2810675383716,None,550.2663738886495,None,550.2663738886495,None,551.2639733869273,None,551.2639733869273,None,h,,,,,,,,,,,,,,,,,,,,,,,,,,,,,,,,,,,,,,,,,,,,,,,41_42Exp,001,2021_May_12_1507,ComputerHuman,2020.1.3,59.99713223834501,
Human.xlsx,h,,,,,,,,,0,0,0,0,,,,,,,,,,,,,,,,,,,,,,,,,,,,,,,,,,,,,,,,,,,,,,,,,,,,,,,,,,,,,,,,,,,,,,,,,,,,,,,h,552.264658602975,None,552.264658602975,None,q,1,14.301803985224979,552.264658602975,None,o,0,13.061622608280231,552.264658602975,None,h,h,566.6779891988645,None,566.6779891988645,None,568.6605293422272,None,None,None,None,None,None,None,None,,,,,,,,,,,,,,,,,,41_42Exp,001,2021_May_12_1507,ComputerHuman,2020.1.3,59.99713223834501,
Computer.xlsx,c,Sychronize.jpg,Number6.jpg,6,Computer,,,,,0,1,1,9,0,0,0,1,,,,,,,,,,,,,,,,,,,,,,,,,573.6624560311684,None,573.6624560311684,None,576.7262950053973,None,576.7262950053973,None,577.1591603537072,None,577.1591603537072,None,v,5.194914773046548,577.1591603537072,None,None,,577.1591603537072,None,5.194914773046548,13,5.836962162914558,False,False,False,590.2248843136531,None,590.2248843136531,None,590.2248843136531,None,590.2248843136531,None,590.2248843136531,None,590.2248843136531,None,590.2248843136531,None,590.2248843136531,None,591.2395045015419,None,591.2395045015419,None,592.2060899538537,None,592.2060899538537,None,c,,,,,,,,,,,,,,,,,,,,,,,,,,,,,,,,,,,,,,,,,,,,,,,41_42Exp,001,2021_May_12_1507,ComputerHuman,2020.1.3,59.99713223834501,
Computer.xlsx,c,Sychronize.jpg,Number9.jpg,9,Computer,,,,,0,1,1,9,0,1,1,7,,,,,,,,,,,,,,,,,,,,,,,,,,,,,593.2731477753732,None,593.2731477753732,None,593.7060423159401,None,593.7060423159401,None,None,,593.7060423159401,None,t,7.834549196171793,593.7060423159401,None,13,7.834549196171793,8.443433863550856,False,False,False,606.7713662457318,None,606.7713662457318,None,606.7713662457318,None,606.7713662457318,None,606.7713662457318,None,606.7713662457318,None,606.7713662457318,None,606.7713662457318,None,607.7695643456682,None,607.7695643456682,None,608.7527274710374,None,608.7527274710374,None,c,,,,,,,,,,,,,,,,,,,,,,,,,,,,,,,,,,,,,,,,,,,,,,,41_42Exp,001,2021_May_12_1507,ComputerHuman,2020.1.3,59.99713223834501,
Computer.xlsx,c,Sychronize.jpg,Number9.jpg,9,Computer,,,,,0,1,1,9,0,2,2,6,,,,,,,,,,,,,,,,,,,,,,,,,,,,,609.8024377138299,None,609.8024377138299,None,610.2529476961372,None,610.2529476961372,None,v,8.220289259976198,610.2529476961372,None,None,,610.2529476961372,None,8.220289259976198,13,8.465624433039771,False,True,False,623.3004563295071,None,623.3004563295071,None,623.3004563295071,None,623.3004563295071,None,623.3004563295071,None,623.3004563295071,None,623.3004563295071,None,623.3004563295071,None,624.3331956057627,None,624.3331956057627,None,625.2995821657769,None,625.2995821657769,None,c,,,,,,,,,,,,,,,,,,,,,,,,,,,,,,,,,,,,,,,,,,,,,,,41_42Exp,001,2021_May_12_1507,ComputerHuman,2020.1.3,59.99713223834501,
Computer.xlsx,c,Sychronize.jpg,Number10.jpg,10,Computer,,,,,0,1,1,9,0,3,3,8,,,,,,,,,,,,,,,,,,,,,,,,,,,,,626.3662691493992,None,626.3662691493992,None,626.7999104984665,None,626.7999104984665,None,v,9.108889042157898,626.7999104984665,None,t,8.859734414623745,626.7999104984665,None,9.108889042157898,8.859734414623745,10.389832587060427,False,False,False,635.9817561227555,None,635.9817561227555,None,635.9817561227555,None,635.9817561227555,None,635.9817561227555,None,635.9817561227555,None,635.9817561227555,None,635.9817561227555,None,636.9972735715437,None,636.9972735715437,None,637.9805406341784,None,637.9805406341784,None,c,,,,,,,,,,,,,,,,,,,,,,,,,,,,,,,,,,,,,,,,,,,,,,,41_42Exp,001,2021_May_12_1507,ComputerHuman,2020.1.3,59.99713223834501,
Computer.xlsx,c,Sychronize.jpg,Number7.jpg,7,Computer,,,,,0,1,1,9,0,4,4,3,,,,,,,,,,,,,,,,,,,,,,,,,,,,,639.030710254021,None,639.030710254021,None,639.4807772197746,None,639.4807772197746,None,v,6.5356920249014365,639.4807772197746,None,t,6.270960601681509,639.4807772197746,None,6.5356920249014365,6.270960601681509,7.048426751680912,False,False,False,646.112278551871,None,646.112278551871,None,646.112278551871,None,646.112278551871,None,646.112278551871,None,646.112278551871,None,646.112278551871,None,646.112278551871,None,647.0953595539686,None,647.0953595539686,None,648.0785085643984,None,648.0785085643984,None,c,,,,,,,,,,,,,,,,,,,,,,,,,,,,,,,,,,,,,,,,,,,,,,,41_42Exp,001,2021_May_12_1507,ComputerHuman,2020.1.3,59.99713223834501,
Computer.xlsx,c,Sychronize.jpg,Number7.jpg,7,Computer,,,,,0,1,1,9,0,5,5,2,,,,,,,,,,,,,,,,,,,,,,,,,,,,,649.1453498499486,None,649.1453498499486,None,649.5953879442404,None,649.5953879442404,None,v,6.464919408519563,649.5953879442404,None,None,,649.5953879442404,None,6.464919408519563,13,7.235438831675135,False,False,False,662.6757022582296,None,662.6757022582296,None,662.6757022582296,None,662.6757022582296,None,662.6757022582296,None,662.6757022582296,None,662.6757022582296,None,662.6757022582296,None,663.6588637796267,None,663.6588637796267,None,664.6419627461892,None,664.6419627461892,None,c,,,,,,,,,,,,,,,,,,,,,,,,,,,,,,,,,,,,,,,,,,,,,,,41_42Exp,001,2021_May_12_1507,ComputerHuman,2020.1.3,59.99713223834501,
Computer.xlsx,c,Sychronize.jpg,Number8.jpg,8,Computer,,,,,0,1,1,9,0,6,6,4,,,,,,,,,,,,,,,,,,,,,,,,,,,,,665.6922401528263,None,665.6922401528263,None,666.1588126129791,None,666.1588126129791,None,v,7.625038294787373,666.1588126129791,None,None,,666.1588126129791,None,7.625038294787373,13,7.671262941166534,False,True,False,679.2391837075138,None,679.2391837075138,None,679.2391837075138,None,679.2391837075138,None,679.2391837075138,None,679.2391837075138,None,679.2391837075138,None,679.2391837075138,None,680.2222839572514,None,680.2222839572514,None,681.2054300805357,None,681.2054300805357,None,c,,,,,,,,,,,,,,,,,,,,,,,,,,,,,,,,,,,,,,,,,,,,,,,41_42Exp,001,2021_May_12_1507,ComputerHuman,2020.1.3,59.99713223834501,
Computer.xlsx,c,Sychronize.jpg,Number6.jpg,6,Computer,,,,,0,1,1,9,0,7,7,0,,,,,,,,,,,,,,,,,,,,,,,,,,,,,682.2715957738601,None,682.2715957738601,None,682.7223014405263,None,682.7223014405263,None,v,4.897205402814507,682.7223014405263,None,t,5.416794529819526,682.7223014405263,None,4.897205402814507,5.416794529819526,5.767326125562433,False,False,False,688.2374947269491,None,688.2374947269491,None,688.2374947269491,None,688.2374947269491,None,688.2374947269491,None,688.2374947269491,None,688.2374947269491,None,688.2374947269491,None,689.2372053707331,None,689.2372053707331,None,690.2204265598211,None,690.2204265598211,None,c,,,,,,,,,,,,,,,,,,,,,,,,,,,,,,,,,,,,,,,,,,,,,,,41_42Exp,001,2021_May_12_1507,ComputerHuman,2020.1.3,59.99713223834501,
Computer.xlsx,c,Sychronize.jpg,Number8.jpg,8,Computer,,,,,0,1,1,9,0,8,8,5,,,,,,,,,,,,,,,,,,,,,,,,,,,,,691.2706455819443,None,691.2706455819443,None,691.7039189802599,None,691.7039189802599,None,v,7.419318858035695,691.7039189802599,None,t,7.422848554742814,691.7039189802599,None,7.419318858035695,7.422848554742814,8.58339352931291,False,False,False,699.2200730448003,None,699.2200730448003,None,699.2200730448003,None,699.2200730448003,None,699.2200730448003,None,699.2200730448003,None,699.2200730448003,None,699.2200730448003,None,700.2349623788796,None,700.2349623788796,None,701.2182663328276,None,701.2182663328276,None,c,,,,,,,,,,,,,,,,,,,,,,,,,,,,,,,,,,,,,,,,,,,,,,,41_42Exp,001,2021_May_12_1507,ComputerHuman,2020.1.3,59.99713223834501,
Computer.xlsx,c,Sychronize.jpg,Number10.jpg,10,Computer,,,,,0,1,1,9,0,9,9,9,,,,,,,,,,,,,,,,,,,,,,,,,,,,,702.268495299566,None,702.268495299566,None,702.7183004973922,None,702.7183004973922,None,v,9.312586193345851,702.7183004973922,None,t,9.559656622070179,702.7183004973922,None,9.312586193345851,9.559656622070179,10.006734987392049,False,False,False,712.3505492795775,None,712.3505492795775,None,712.3505492795775,None,712.3505492795775,None,712.3505492795775,None,712.3505492795775,None,712.3505492795775,None,712.3505492795775,None,713.3488538831316,None,713.3488538831316,None,714.332375656224,None,714.332375656224,None,c,,,,,,,,,,,,,,,,,,,,,,,,,,,,,,,,,,,,,,,,,,,,,,,41_42Exp,001,2021_May_12_1507,ComputerHuman,2020.1.3,59.99713223834501,
Computer.xlsx,c,,,,,,,,,0,1,1,9,,,,,,,,,,,,,,,,,,,,,,,,,,,,,,,,,,,,,,,,,,,,,,,,,,,,,,,,,,,,,,,,,,,,,,,,,,,,,,,c,715.3496289215072,None,715.3496289215072,None,q,0,11.012891108070107,715.3496289215072,None,l,0,4.360863449210228,715.3496289215072,None,h,c,726.4303137526003,None,726.4303137526003,None,728.4296144216169,None,None,None,None,None,None,None,None,,,,,,,,,,,,,,,,,,41_42Exp,001,2021_May_12_1507,ComputerHuman,2020.1.3,59.99713223834501,
Human.xlsx,h,Sychronize.jpg,Number8.jpg,8,Human,,,,,0,2,2,8,0,0,0,4,,,,,,,,,,,,,,,,,,,,,,,,,733.4474200942168,None,733.4474200942168,None,736.5123260293876,None,736.5123260293876,None,736.9615185106177,None,736.9615185106177,None,v,6.980525556858993,736.9615185106177,None,t,7.423773083135529,736.9615185106177,None,6.980525556858993,7.423773083135529,7.441230084162236,False,False,False,744.4602233047244,None,744.4602233047244,None,744.4602233047244,None,744.4602233047244,None,744.4602233047244,None,744.4602233047244,None,744.4602233047244,None,744.4602233047244,None,745.4615084056059,None,745.4615084056059,None,746.4594344722063,None,746.4594344722063,None,h,,,,,,,,,,,,,,,,,,,,,,,,,,,,,,,,,,,,,,,,,,,,,,,41_42Exp,001,2021_May_12_1507,ComputerHuman,2020.1.3,59.99713223834501,
Human.xlsx,h,Sychronize.jpg,Number8.jpg,8,Human,,,,,0,2,2,8,0,1,1,5,,,,,,,,,,,,,,,,,,,,,,,,,,,,,747.5099178286091,None,747.5099178286091,None,747.9597390661365,None,747.9597390661365,None,v,6.7940672352197,747.9597390661365,None,t,7.257792327569405,747.9597390661365,None,6.7940672352197,7.257792327569405,7.796078866049144,False,False,False,755.2917506211379,None,755.2917506211379,None,755.2917506211379,None,755.2917506211379,None,755.2917506211379,None,755.2917506211379,None,755.2917506211379,None,755.2917506211379,None,756.2933064721801,None,756.2933064721801,None,757.2740610759756,None,757.2740610759756,None,h,,,,,,,,,,,,,,,,,,,,,,,,,,,,,,,,,,,,,,,,,,,,,,,41_42Exp,001,2021_May_12_1507,ComputerHuman,2020.1.3,59.99713223834501,
Human.xlsx,h,Sychronize.jpg,Number7.jpg,7,Human,,,,,0,2,2,8,0,2,2,2,,,,,,,,,,,,,,,,,,,,,,,,,,,,,758.3409880135314,None,758.3409880135314,None,758.7742922080743,None,758.7742922080743,None,v,6.171560967706682,758.7742922080743,None,t,6.686760670010699,758.7742922080743,None,6.171560967706682,6.686760670010699,6.543347168378905,False,False,False,765.5393195637844,None,765.5393195637844,None,765.5393195637844,None,765.5393195637844,None,765.5393195637844,None,765.5393195637844,None,765.5393195637844,None,765.5393195637844,None,766.5409960333818,None,766.5409960333818,None,767.538764910907,None,767.538764910907,None,h,,,,,,,,,,,,,,,,,,,,,,,,,,,,,,,,,,,,,,,,,,,,,,,41_42Exp,001,2021_May_12_1507,ComputerHuman,2020.1.3,59.99713223834501,
Human.xlsx,h,Sychronize.jpg,Number10.jpg,10,Human,,,,,0,2,2,8,0,3,3,9,,,,,,,,,,,,,,,,,,,,,,,,,,,,,768.5885450867991,None,768.5885450867991,None,769.0387503147795,None,769.0387503147795,None,v,9.406495116712904,769.0387503147795,None,t,9.601674544834168,769.0387503147795,None,9.406495116712904,9.601674544834168,9.441187902105234,True,False,False,778.720541243687,None,778.720541243687,None,778.720541243687,None,778.720541243687,None,778.720541243687,None,778.720541243687,None,778.720541243687,None,778.720541243687,None,779.7058533682575,None,779.7058533682575,None,780.7029004592168,None,780.7029004592168,None,h,,,,,,,,,,,,,,,,,,,,,,,,,,,,,,,,,,,,,,,,,,,,,,,41_42Exp,001,2021_May_12_1507,ComputerHuman,2020.1.3,59.99713223834501,
Human.xlsx,h,Sychronize.jpg,Number10.jpg,10,Human,,,,,0,2,2,8,0,4,4,8,,,,,,,,,,,,,,,,,,,,,,,,,,,,,781.7693420354062,None,781.7693420354062,None,782.2194417221508,None,782.2194417221508,None,v,9.277468229362057,782.2194417221508,None,t,9.604741014960382,782.2194417221508,None,9.277468229362057,9.604741014960382,10.233601817266273,False,False,False,791.917340360862,None,791.917340360862,None,791.917340360862,None,791.917340360862,None,791.917340360862,None,791.917340360862,None,791.917340360862,None,791.917340360862,None,792.8863773211451,None,792.8863773211451,None,793.8836832928864,None,793.8836832928864,None,h,,,,,,,,,,,,,,,,,,,,,,,,,,,,,,,,,,,,,,,,,,,,,,,41_42Exp,001,2021_May_12_1507,ComputerHuman,2020.1.3,59.99713223834501,
Human.xlsx,h,Sychronize.jpg,Number6.jpg,6,Human,,,,,0,2,2,8,0,5,5,0,,,,,,,,,,,,,,,,,,,,,,,,,,,,,794.9500610310643,None,794.9500610310643,None,795.383728364448,None,795.383728364448,None,v,5.152900699811653,795.383728364448,None,t,5.647755965565011,795.383728364448,None,5.152900699811653,5.647755965565011,6.371586455482409,False,False,False,801.0995587478119,None,801.0995587478119,None,801.0995587478119,None,801.0995587478119,None,801.0995587478119,None,801.0995587478119,None,801.0995587478119,None,801.0995587478119,None,802.1009397661091,None,802.1009397661091,None,803.0983807921366,None,803.0983807921366,None,h,,,,,,,,,,,,,,,,,,,,,,,,,,,,,,,,,,,,,,,,,,,,,,,41_42Exp,001,2021_May_12_1507,ComputerHuman,2020.1.3,59.99713223834501,
Human.xlsx,h,Sychronize.jpg,Number9.jpg,9,Human,,,,,0,2,2,8,0,6,6,7,,,,,,,,,,,,,,,,,,,,,,,,,,,,,804.1327657417642,None,804.1327657417642,None,804.6154892189152,None,804.6154892189152,None,None,,804.6154892189152,None,t,8.283682651299387,804.6154892189152,None,13,8.283682651299387,9.040649413485262,False,False,False,817.6792810364223,None,817.6792810364223,None,817.6792810364223,None,817.6792810364223,None,817.6792810364223,None,817.6792810364223,None,817.6792810364223,None,817.6792810364223,None,818.6806732825098,None,818.6806732825098,None,819.6786904546134,None,819.6786904546134,None,h,,,,,,,,,,,,,,,,,,,,,,,,,,,,,,,,,,,,,,,,,,,,,,,41_42Exp,001,2021_May_12_1507,ComputerHuman,2020.1.3,59.99713223834501,
Human.xlsx,h,Sychronize.jpg,Number6.jpg,6,Human,,,,,0,2,2,8,0,7,7,1,,,,,,,,,,,,,,,,,,,,,,,,,,,,,820.7284276441042,None,820.7284276441042,None,821.1789514205557,None,821.1789514205557,None,v,5.045115189115677,821.1789514205557,None,t,5.284801580874046,821.1789514205557,None,5.045115189115677,5.284801580874046,5.8471106082754645,True,False,False,826.5454525040386,None,826.5454525040386,None,826.5454525040386,None,826.5454525040386,None,826.5454525040386,None,826.5454525040386,None,826.5454525040386,None,826.5454525040386,None,827.5294708662877,None,827.5294708662877,None,828.5269378766316,None,828.5269378766316,None,h,,,,,,,,,,,,,,,,,,,,,,,,,,,,,,,,,,,,,,,,,,,,,,,41_42Exp,001,2021_May_12_1507,ComputerHuman,2020.1.3,59.99713223834501,
Human.xlsx,h,Sychronize.jpg,Number9.jpg,9,Human,,,,,0,2,2,8,0,8,8,6,,,,,,,,,,,,,,,,,,,,,,,,,,,,,829.5768149323212,None,829.5768149323212,None,830.0268716326646,None,830.0268716326646,None,v,8.084881458586096,830.0268716326646,None,t,8.179761425481047,830.0268716326646,None,8.084881458586096,8.179761425481047,9.397463408060526,True,False,False,838.2766877374888,None,838.2766877374888,None,838.2766877374888,None,838.2766877374888,None,838.2766877374888,None,838.2766877374888,None,838.2766877374888,None,838.2766877374888,None,839.276868986115,None,839.276868986115,None,840.2747071551512,None,840.2747071551512,None,h,,,,,,,,,,,,,,,,,,,,,,,,,,,,,,,,,,,,,,,,,,,,,,,41_42Exp,001,2021_May_12_1507,ComputerHuman,2020.1.3,59.99713223834501,
Human.xlsx,h,Sychronize.jpg,Number7.jpg,7,Human,,,,,0,2,2,8,0,9,9,3,,,,,,,,,,,,,,,,,,,,,,,,,,,,,841.3245412244396,None,841.3245412244396,None,841.7582290886403,None,841.7582290886403,None,v,6.317252463297336,841.7582290886403,None,t,6.205065016929439,841.7582290886403,None,6.317252463297336,6.205065016929439,7.130928718337643,True,False,False,848.1404500419449,None,848.1404500419449,None,848.1404500419449,None,848.1404500419449,None,848.1404500419449,None,848.1404500419449,None,848.1404500419449,None,848.1404500419449,None,849.1575740272328,None,849.1575740272328,None,850.1560855429361,None,850.1560855429361,None,h,,,,,,,,,,,,,,,,,,,,,,,,,,,,,,,,,,,,,,,,,,,,,,,41_42Exp,001,2021_May_12_1507,ComputerHuman,2020.1.3,59.99713223834501,
Human.xlsx,h,,,,,,,,,0,2,2,8,,,,,,,,,,,,,,,,,,,,,,,,,,,,,,,,,,,,,,,,,,,,,,,,,,,,,,,,,,,,,,,,,,,,,,,,,,,,,,,h,851.1563152314611,None,851.1563152314611,None,a,0,5.074958016082746,851.1563152314611,None,l,0,21.80942685334776,851.1563152314611,None,c,c,873.0514983487137,None,873.0514983487137,None,875.0346181668865,None,None,None,None,None,None,None,None,,,,,,,,,,,,,,,,,,41_42Exp,001,2021_May_12_1507,ComputerHuman,2020.1.3,59.99713223834501,
Human.xlsx,h,Sychronize.jpg,Number7.jpg,7,Human,,,,,0,3,3,4,0,0,0,3,,,,,,,,,,,,,,,,,,,,,,,,,880.036838061571,None,880.036838061571,None,883.1167465711133,None,883.1167465711133,None,883.5665334836795,None,883.5665334836795,None,v,6.119969909519568,883.5665334836795,None,None,,883.5665334836795,None,6.119969909519568,13,6.98700585769328,False,False,False,896.6471169438591,None,896.6471169438591,None,896.6471169438591,None,896.6471169438591,None,896.6471169438591,None,896.6471169438591,None,896.6471169438591,None,896.6471169438591,None,897.6330998487465,None,897.6330998487465,None,898.6467563713704,None,898.6467563713704,None,h,,,,,,,,,,,,,,,,,,,,,,,,,,,,,,,,,,,,,,,,,,,,,,,41_42Exp,001,2021_May_12_1507,ComputerHuman,2020.1.3,59.99713223834501,
Human.xlsx,h,Sychronize.jpg,Number9.jpg,9,Human,,,,,0,3,3,4,0,1,1,7,,,,,,,,,,,,,,,,,,,,,,,,,,,,,899.6964820122776,None,899.6964820122776,None,900.1468771503223,None,900.1468771503223,None,v,8.487102957238676,900.1468771503223,None,t,7.89476576422021,900.1468771503223,None,8.487102957238676,7.89476576422021,8.512721832786815,False,False,False,908.7125111275436,None,908.7125111275436,None,908.7125111275436,None,908.7125111275436,None,908.7125111275436,None,908.7125111275436,None,908.7125111275436,None,908.7125111275436,None,909.6963549778411,None,909.6963549778411,None,910.6944170611096,None,910.6944170611096,None,h,,,,,,,,,,,,,,,,,,,,,,,,,,,,,,,,,,,,,,,,,,,,,,,41_42Exp,001,2021_May_12_1507,ComputerHuman,2020.1.3,59.99713223834501,
Human.xlsx,h,Sychronize.jpg,Number10.jpg,10,Human,,,,,0,3,3,4,0,2,2,9,,,,,,,,,,,,,,,,,,,,,,,,,,,,,911.762272055792,None,911.762272055792,None,912.1943729519317,None,912.1943729519317,None,v,9.239329027206622,912.1943729519317,None,t,8.771068228077638,912.1943729519317,None,9.239329027206622,8.771068228077638,9.38003662966832,False,False,False,921.5095777869392,None,921.5095777869392,None,921.5095777869392,None,921.5095777869392,None,921.5095777869392,None,921.5095777869392,None,921.5095777869392,None,921.5095777869392,None,922.5114075960828,None,922.5114075960828,None,923.5086192543786,None,923.5086192543786,None,h,,,,,,,,,,,,,,,,,,,,,,,,,,,,,,,,,,,,,,,,,,,,,,,41_42Exp,001,2021_May_12_1507,ComputerHuman,2020.1.3,59.99713223834501,
Human.xlsx,h,Sychronize.jpg,Number8.jpg,8,Human,,,,,0,3,3,4,0,3,3,4,,,,,,,,,,,,,,,,,,,,,,,,,,,,,924.5592318907766,None,924.5592318907766,None,924.9920799162082,None,924.9920799162082,None,v,7.477335420633608,924.9920799162082,None,None,,924.9920799162082,None,7.477335420633608,13,7.539247429174271,False,False,False,938.0724609553563,None,938.0724609553563,None,938.0724609553563,None,938.0724609553563,None,938.0724609553563,None,938.0724609553563,None,938.0724609553563,None,938.0724609553563,None,939.057956894907,None,939.057956894907,None,940.0553976001393,None,940.0553976001393,None,h,,,,,,,,,,,,,,,,,,,,,,,,,,,,,,,,,,,,,,,,,,,,,,,41_42Exp,001,2021_May_12_1507,ComputerHuman,2020.1.3,59.99713223834501,
Human.xlsx,h,Sychronize.jpg,Number10.jpg,10,Human,,,,,0,3,3,4,0,4,4,8,,,,,,,,,,,,,,,,,,,,,,,,,,,,,941.1061215520658,None,941.1061215520658,None,941.5389047771041,None,941.5389047771041,None,v,9.086027334858954,941.5389047771041,None,t,9.02175689266005,941.5389047771041,None,9.086027334858954,9.02175689266005,9.709760387487561,True,False,False,950.7038127974356,None,950.7038127974356,None,950.7038127974356,None,950.7038127974356,None,950.7038127974356,None,950.7038127974356,None,950.7038127974356,None,950.7038127974356,None,951.7056442105495,None,951.7056442105495,None,952.7029630140532,None,952.7029630140532,None,h,,,,,,,,,,,,,,,,,,,,,,,,,,,,,,,,,,,,,,,,,,,,,,,41_42Exp,001,2021_May_12_1507,ComputerHuman,2020.1.3,59.99713223834501,
Human.xlsx,h,Sychronize.jpg,Number9.jpg,9,Human,,,,,0,3,3,4,0,5,5,6,,,,,,,,,,,,,,,,,,,,,,,,,,,,,953.7527877803132,None,953.7527877803132,None,954.2031033614403,None,954.2031033614403,None,v,8.0575501280764,954.2031033614403,None,t,7.984702615915012,954.2031033614403,None,8.0575501280764,7.984702615915012,8.783313973152994,True,False,False,962.3184948985727,None,962.3184948985727,None,962.3184948985727,None,962.3184948985727,None,962.3184948985727,None,962.3184948985727,None,962.3184948985727,None,962.3184948985727,None,963.3187791220826,None,963.3187791220826,None,964.3173673075598,None,964.3173673075598,None,h,,,,,,,,,,,,,,,,,,,,,,,,,,,,,,,,,,,,,,,,,,,,,,,41_42Exp,001,2021_May_12_1507,ComputerHuman,2020.1.3,59.99713223834501,
Human.xlsx,h,Sychronize.jpg,Number8.jpg,8,Human,,,,,0,3,3,4,0,6,6,5,,,,,,,,,,,,,,,,,,,,,,,,,,,,,965.3838938941662,None,965.3838938941662,None,965.8339400083096,None,965.8339400083096,None,v,6.850447427474137,965.8339400083096,None,t,6.929788773171822,965.8339400083096,None,6.850447427474137,6.929788773171822,7.978680889062263,True,False,False,972.8490147613375,None,972.8490147613375,None,972.8490147613375,None,972.8490147613375,None,972.8490147613375,None,972.8490147613375,None,972.8490147613375,None,972.8490147613375,None,973.8337292466313,None,973.8337292466313,None,974.8153730914764,None,974.8153730914764,None,h,,,,,,,,,,,,,,,,,,,,,,,,,,,,,,,,,,,,,,,,,,,,,,,41_42Exp,001,2021_May_12_1507,ComputerHuman,2020.1.3,59.99713223834501,
Human.xlsx,h,Sychronize.jpg,Number6.jpg,6,Human,,,,,0,3,3,4,0,7,7,0,,,,,,,,,,,,,,,,,,,,,,,,,,,,,975.8666857004464,None,975.8666857004464,None,976.3154900208992,None,976.3154900208992,None,v,5.2767435556488635,976.3154900208992,None,t,4.85586916736429,976.3154900208992,None,5.2767435556488635,4.85586916736429,5.607922308889978,False,False,False,981.6479975234706,None,981.6479975234706,None,981.6479975234706,None,981.6479975234706,None,981.6479975234706,None,981.6479975234706,None,981.6479975234706,None,981.6479975234706,None,982.6654981209485,None,982.6654981209485,None,983.6636638206892,None,983.6636638206892,None,h,,,,,,,,,,,,,,,,,,,,,,,,,,,,,,,,,,,,,,,,,,,,,,,41_42Exp,001,2021_May_12_1507,ComputerHuman,2020.1.3,59.99713223834501,
Human.xlsx,h,Sychronize.jpg,Number6.jpg,6,Human,,,,,0,3,3,4,0,8,8,1,,,,,,,,,,,,,,,,,,,,,,,,,,,,,984.7131681137143,None,984.7131681137143,None,985.1637403300647,None,985.1637403300647,None,v,4.908263814593738,985.1637403300647,None,None,,985.1637403300647,None,4.908263814593738,13,6.316184157247946,False,False,False,998.2123505701311,None,998.2123505701311,None,998.2123505701311,None,998.2123505701311,None,998.2123505701311,None,998.2123505701311,None,998.2123505701311,None,998.2123505701311,None,999.2294658939809,None,999.2294658939809,None,1000.2270750160806,None,1000.2270750160806,None,h,,,,,,,,,,,,,,,,,,,,,,,,,,,,,,,,,,,,,,,,,,,,,,,41_42Exp,001,2021_May_12_1507,ComputerHuman,2020.1.3,59.99713223834501,
Human.xlsx,h,Sychronize.jpg,Number7.jpg,7,Human,,,,,0,3,3,4,0,9,9,2,,,,,,,,,,,,,,,,,,,,,,,,,,,,,1001.2768378690944,None,1001.2768378690944,None,1001.7269183081971,None,1001.7269183081971,None,v,6.116597081094369,1001.7269183081971,None,t,6.463790534329746,1001.7269183081971,None,6.116597081094369,6.463790534329746,7.010581713664641,False,False,False,1008.2604709577154,None,1008.2604709577154,None,1008.2604709577154,None,1008.2604709577154,None,1008.2604709577154,None,1008.2604709577154,None,1008.2604709577154,None,1008.2604709577154,None,1009.2441287474758,None,1009.2441287474758,None,1010.2417773272409,None,1010.2417773272409,None,h,,,,,,,,,,,,,,,,,,,,,,,,,,,,,,,,,,,,,,,,,,,,,,,41_42Exp,001,2021_May_12_1507,ComputerHuman,2020.1.3,59.99713223834501,
Human.xlsx,h,,,,,,,,,0,3,3,4,,,,,,,,,,,,,,,,,,,,,,,,,,,,,,,,,,,,,,,,,,,,,,,,,,,,,,,,,,,,,,,,,,,,,,,,,,,,,,,h,1011.242490773162,None,1011.242490773162,None,a,0,6.196716993903465,1011.242490773162,None,l,0,3.807862020072207,1011.242490773162,None,c,c,1017.5239044482914,None,1017.5239044482914,None,1019.5233443419147,None,None,None,None,None,None,None,None,,,,,,,,,,,,,,,,,,41_42Exp,001,2021_May_12_1507,ComputerHuman,2020.1.3,59.99713223834501,
Human.xlsx,h,Sychronize.jpg,Number10.jpg,10,Human,,,,,0,4,4,2,0,0,0,9,,,,,,,,,,,,,,,,,,,,,,,,,1024.5252684645038,None,1024.5252684645038,None,1027.5881809855764,None,1027.5881809855764,None,1028.021790896828,None,1028.021790896828,None,None,,1028.021790896828,None,t,8.240772600340279,1028.021790896828,None,13,8.240772600340279,9.621371175259348,False,False,False,1041.0862079418985,None,1041.0862079418985,None,1041.0862079418985,None,1041.0862079418985,None,1041.0862079418985,None,1041.0862079418985,None,1041.0862079418985,None,1041.0862079418985,None,1042.1041560470476,None,1042.1041560470476,None,1043.0854226381143,None,1043.0854226381143,None,h,,,,,,,,,,,,,,,,,,,,,,,,,,,,,,,,,,,,,,,,,,,,,,,41_42Exp,001,2021_May_12_1507,ComputerHuman,2020.1.3,59.99713223834501,
Human.xlsx,h,Sychronize.jpg,Number7.jpg,7,Human,,,,,0,4,4,2,0,1,1,3,,,,,,,,,,,,,,,,,,,,,,,,,,,,,1044.1516066166987,None,1044.1516066166987,None,1044.5854773334959,None,1044.5854773334959,None,v,6.1410447940743325,1044.5854773334959,None,t,6.267744320743077,1044.5854773334959,None,6.1410447940743325,6.267744320743077,6.933874764560138,True,False,False,1050.9343456523584,None,1050.9343456523584,None,1050.9343456523584,None,1050.9343456523584,None,1050.9343456523584,None,1050.9343456523584,None,1050.9343456523584,None,1050.9343456523584,None,1051.9359839474673,None,1051.9359839474673,None,1052.9335067759712,None,1052.9335067759712,None,h,,,,,,,,,,,,,,,,,,,,,,,,,,,,,,,,,,,,,,,,,,,,,,,41_42Exp,001,2021_May_12_1507,ComputerHuman,2020.1.3,59.99713223834501,
Human.xlsx,h,Sychronize.jpg,Number6.jpg,6,Human,,,,,0,4,4,2,0,2,2,1,,,,,,,,,,,,,,,,,,,,,,,,,,,,,1053.9834354794984,None,1053.9834354794984,None,1054.4335929091685,None,1054.4335929091685,None,v,5.120745910277037,1054.4335929091685,None,t,5.371952336423419,1054.4335929091685,None,5.120745910277037,5.371952336423419,5.63426603556871,True,False,False,1059.8987702360882,None,1059.8987702360882,None,1059.8987702360882,None,1059.8987702360882,None,1059.8987702360882,None,1059.8987702360882,None,1059.8987702360882,None,1059.8987702360882,None,1060.8676570647676,None,1060.8676570647676,None,1061.8651192632005,None,1061.8651192632005,None,h,,,,,,,,,,,,,,,,,,,,,,,,,,,,,,,,,,,,,,,,,,,,,,,41_42Exp,001,2021_May_12_1507,ComputerHuman,2020.1.3,59.99713223834501,
Human.xlsx,h,Sychronize.jpg,Number8.jpg,8,Human,,,,,0,4,4,2,0,3,3,5,,,,,,,,,,,,,,,,,,,,,,,,,,,,,1062.9324555339372,None,1062.9324555339372,None,1063.365029280476,None,1063.365029280476,None,v,7.5809332860681025,1063.365029280476,None,None,,1063.365029280476,None,7.5809332860681025,13,8.479869014607818,False,False,False,1076.429610892883,None,1076.429610892883,None,1076.429610892883,None,1076.429610892883,None,1076.429610892883,None,1076.429610892883,None,1076.429610892883,None,1076.429610892883,None,1077.4141024263263,None,1077.4141024263263,None,1078.411850131446,None,1078.411850131446,None,h,,,,,,,,,,,,,,,,,,,,,,,,,,,,,,,,,,,,,,,,,,,,,,,41_42Exp,001,2021_May_12_1507,ComputerHuman,2020.1.3,59.99713223834501,
Human.xlsx,h,Sychronize.jpg,Number9.jpg,9,Human,,,,,0,4,4,2,0,4,4,7,,,,,,,,,,,,,,,,,,,,,,,,,,,,,1079.4790564806008,None,1079.4790564806008,None,1079.911732881228,None,1079.911732881228,None,v,8.089825536168064,1079.911732881228,None,t,8.508778689010796,1079.911732881228,None,8.089825536168064,8.508778689010796,9.11844011129563,False,False,False,1088.4946522031332,None,1088.4946522031332,None,1088.4946522031332,None,1088.4946522031332,None,1088.4946522031332,None,1088.4946522031332,None,1088.4946522031332,None,1088.4946522031332,None,1089.49497524272,None,1089.49497524272,None,1090.4929423709564,None,1090.4929423709564,None,h,,,,,,,,,,,,,,,,,,,,,,,,,,,,,,,,,,,,,,,,,,,,,,,41_42Exp,001,2021_May_12_1507,ComputerHuman,2020.1.3,59.99713223834501,
Human.xlsx,h,Sychronize.jpg,Number7.jpg,7,Human,,,,,0,4,4,2,0,5,5,2,,,,,,,,,,,,,,,,,,,,,,,,,,,,,1091.5425544507762,None,1091.5425544507762,None,1091.9763478562145,None,1091.9763478562145,None,None,,1091.9763478562145,None,t,5.89579904178936,1091.9763478562145,None,13,5.89579904178936,7.5035358814607935,False,False,False,1105.056775731291,None,1105.056775731291,None,1105.056775731291,None,1105.056775731291,None,1105.056775731291,None,1105.056775731291,None,1105.056775731291,None,1105.056775731291,None,1106.041460061946,None,1106.041460061946,None,1107.0397544000916,None,1107.0397544000916,None,h,,,,,,,,,,,,,,,,,,,,,,,,,,,,,,,,,,,,,,,,,,,,,,,41_42Exp,001,2021_May_12_1507,ComputerHuman,2020.1.3,59.99713223834501,
Human.xlsx,h,Sychronize.jpg,Number8.jpg,8,Human,,,,,0,4,4,2,0,6,6,4,,,,,,,,,,,,,,,,,,,,,,,,,,,,,1108.0902990281538,None,1108.0902990281538,None,1108.5232567651456,None,1108.5232567651456,None,None,,1108.5232567651456,None,t,7.408799701021053,1108.5232567651456,None,13,7.408799701021053,8.280964291010356,False,False,False,1121.5879779229545,None,1121.5879779229545,None,1121.5879779229545,None,1121.5879779229545,None,1121.5879779229545,None,1121.5879779229545,None,1121.5879779229545,None,1121.5879779229545,None,1122.5894365734075,None,1122.5894365734075,None,1123.5865574469935,None,1123.5865574469935,None,h,,,,,,,,,,,,,,,,,,,,,,,,,,,,,,,,,,,,,,,,,,,,,,,41_42Exp,001,2021_May_12_1507,ComputerHuman,2020.1.3,59.99713223834501,
Human.xlsx,h,Sychronize.jpg,Number6.jpg,6,Human,,,,,0,4,4,2,0,7,7,0,,,,,,,,,,,,,,,,,,,,,,,,,,,,,1124.6197054148433,None,1124.6197054148433,None,1125.0701538046978,None,1125.0701538046978,None,v,5.52235757948074,1125.0701538046978,None,t,5.31384274355878,1125.0701538046978,None,5.52235757948074,5.31384274355878,6.188132075218773,True,False,False,1130.6688430402937,None,1130.6688430402937,None,1130.6688430402937,None,1130.6688430402937,None,1130.6688430402937,None,1130.6688430402937,None,1130.6688430402937,None,1130.6688430402937,None,1131.6538783196174,None,1131.6538783196174,None,1132.668125103255,None,1132.668125103255,None,h,,,,,,,,,,,,,,,,,,,,,,,,,,,,,,,,,,,,,,,,,,,,,,,41_42Exp,001,2021_May_12_1507,ComputerHuman,2020.1.3,59.99713223834501,
Human.xlsx,h,Sychronize.jpg,Number10.jpg,10,Human,,,,,0,4,4,2,0,8,8,8,,,,,,,,,,,,,,,,,,,,,,,,,,,,,1133.7185629069081,None,1133.7185629069081,None,1134.1683908811083,None,1134.1683908811083,None,v,8.823796821894575,1134.1683908811083,None,t,9.066660678512562,1134.1683908811083,None,8.823796821894575,9.066660678512562,9.971997308529618,True,False,False,1143.3327484188867,None,1143.3327484188867,None,1143.3327484188867,None,1143.3327484188867,None,1143.3327484188867,None,1143.3327484188867,None,1143.3327484188867,None,1143.3327484188867,None,1144.3015896948127,None,1144.3015896948127,None,1145.298957579802,None,1145.298957579802,None,h,,,,,,,,,,,,,,,,,,,,,,,,,,,,,,,,,,,,,,,,,,,,,,,41_42Exp,001,2021_May_12_1507,ComputerHuman,2020.1.3,59.99713223834501,
Human.xlsx,h,Sychronize.jpg,Number9.jpg,9,Human,,,,,0,4,4,2,0,9,9,6,,,,,,,,,,,,,,,,,,,,,,,,,,,,,1146.3491868673336,None,1146.3491868673336,None,1146.79891956571,None,1146.79891956571,None,v,8.125003167840987,1146.79891956571,None,t,7.407752308514318,1146.79891956571,None,8.125003167840987,7.407752308514318,9.23812456439767,False,False,False,1154.997791653901,None,1154.997791653901,None,1154.997791653901,None,1154.997791653901,None,1154.997791653901,None,1154.997791653901,None,1154.997791653901,None,1154.997791653901,None,1155.9995605121803,None,1155.9995605121803,None,1156.9967615842743,None,1156.9967615842743,None,h,,,,,,,,,,,,,,,,,,,,,,,,,,,,,,,,,,,,,,,,,,,,,,,41_42Exp,001,2021_May_12_1507,ComputerHuman,2020.1.3,59.99713223834501,
Human.xlsx,h,,,,,,,,,0,4,4,2,,,,,,,,,,,,,,,,,,,,,,,,,,,,,,,,,,,,,,,,,,,,,,,,,,,,,,,,,,,,,,,,,,,,,,,,,,,,,,,h,1157.9975687020524,None,1157.9975687020524,None,q,1,6.682104665467705,1157.9975687020524,None,l,0,1.7698495315598848,1157.9975687020524,None,h,c,1164.7619563944681,None,1164.7619563944681,None,None,None,1166.7781548889816,None,1166.7781548889816,None,"['space', 'space']",1167.7613577928096,None,"[0.2461747717952676, 20.82567539173033]",,,,,,,,,,,,,,,,,41_42Exp,001,2021_May_12_1507,ComputerHuman,2020.1.3,59.99713223834501,
Computer.xlsx,c,Sychronize.jpg,Number7.jpg,7,Computer,,,,,0,5,5,3,0,0,0,2,,,,,,,,,,,,,,,,,,,,,,,,,1188.643047992391,None,1188.643047992391,None,1191.7237745267084,None,1191.7237745267084,None,1192.1405151631316,None,1192.1405151631316,None,v,6.402226631356825,1192.1405151631316,None,t,6.149784506611468,1192.1405151631316,None,6.402226631356825,6.149784506611468,6.920716877016725,False,False,False,1198.6229181670478,None,1198.6229181670478,None,1198.6229181670478,None,1198.6229181670478,None,1198.6229181670478,None,1198.6229181670478,None,1198.6229181670478,None,1198.6229181670478,None,1199.6551582877946,None,1199.6551582877946,None,1200.638273935645,None,1200.638273935645,None,c,,,,,,,,,,,,,,,,,,,,,,,,,,,,,,,,,,,,,,,,,,,,,,,41_42Exp,001,2021_May_12_1507,ComputerHuman,2020.1.3,59.99713223834501,
Computer.xlsx,c,Sychronize.jpg,Number7.jpg,7,Computer,,,,,0,5,5,3,0,1,1,3,,,,,,,,,,,,,,,,,,,,,,,,,,,,,1201.6885920831246,None,1201.6885920831246,None,1202.1385021805982,None,1202.1385021805982,None,v,6.388318927007276,1202.1385021805982,None,t,5.255893868503335,1202.1385021805982,None,6.388318927007276,5.255893868503335,6.8337937543998075,False,False,False,1208.6035293759105,None,1208.6035293759105,None,1208.6035293759105,None,1208.6035293759105,None,1208.6035293759105,None,1208.6035293759105,None,1208.6035293759105,None,1208.6035293759105,None,1209.603237132551,None,1209.603237132551,None,1210.5863784439243,None,1210.5863784439243,None,c,,,,,,,,,,,,,,,,,,,,,,,,,,,,,,,,,,,,,,,,,,,,,,,41_42Exp,001,2021_May_12_1507,ComputerHuman,2020.1.3,59.99713223834501,
Computer.xlsx,c,Sychronize.jpg,Number10.jpg,10,Computer,,,,,0,5,5,3,0,2,2,9,,,,,,,,,,,,,,,,,,,,,,,,,,,,,1211.6525755750627,None,1211.6525755750627,None,1212.0863465249186,None,1212.0863465249186,None,v,10.195836093498656,1212.0863465249186,None,t,8.446787167596995,1212.0863465249186,None,10.195836093498656,8.446787167596995,9.814610858296511,False,False,False,1222.3512142855998,None,1222.3512142855998,None,1222.3512142855998,None,1222.3512142855998,None,1222.3512142855998,None,1222.3512142855998,None,1222.3512142855998,None,1222.3512142855998,None,1223.3672469295998,None,1223.3672469295998,None,1224.3336928365097,None,1224.3336928365097,None,c,,,,,,,,,,,,,,,,,,,,,,,,,,,,,,,,,,,,,,,,,,,,,,,41_42Exp,001,2021_May_12_1507,ComputerHuman,2020.1.3,59.99713223834501,
Computer.xlsx,c,Sychronize.jpg,Number6.jpg,6,Computer,,,,,0,5,5,3,0,3,3,0,,,,,,,,,,,,,,,,,,,,,,,,,,,,,1225.3834775035175,None,1225.3834775035175,None,1225.8337571557113,None,1225.8337571557113,None,v,5.59624991779674,1225.8337571557113,None,t,5.119868538607989,1225.8337571557113,None,5.59624991779674,5.119868538607989,5.783364592821994,False,True,False,1231.4827311762074,None,1231.4827311762074,None,1231.4827311762074,None,1231.4827311762074,None,1231.4827311762074,None,1231.4827311762074,None,1231.4827311762074,None,1231.4827311762074,None,1232.5151637733725,None,1232.5151637733725,None,1233.4986335778322,None,1233.4986335778322,None,c,,,,,,,,,,,,,,,,,,,,,,,,,,,,,,,,,,,,,,,,,,,,,,,41_42Exp,001,2021_May_12_1507,ComputerHuman,2020.1.3,59.99713223834501,
Computer.xlsx,c,Sychronize.jpg,Number9.jpg,9,Computer,,,,,0,5,5,3,0,4,4,7,,,,,,,,,,,,,,,,,,,,,,,,,,,,,1234.548220314924,None,1234.548220314924,None,1234.9987861153932,None,1234.9987861153932,None,v,8.686844718047723,1234.9987861153932,None,t,7.533716896059559,1234.9987861153932,None,8.686844718047723,7.533716896059559,8.825971131577921,False,True,False,1243.7635953311637,None,1243.7635953311637,None,1243.7635953311637,None,1243.7635953311637,None,1243.7635953311637,None,1243.7635953311637,None,1243.7635953311637,None,1243.7635953311637,None,1244.7630381119343,None,1244.7630381119343,None,1245.7462131066823,None,1245.7462131066823,None,c,,,,,,,,,,,,,,,,,,,,,,,,,,,,,,,,,,,,,,,,,,,,,,,41_42Exp,001,2021_May_12_1507,ComputerHuman,2020.1.3,59.99713223834501,
Computer.xlsx,c,Sychronize.jpg,Number10.jpg,10,Computer,,,,,0,5,5,3,0,5,5,8,,,,,,,,,,,,,,,,,,,,,,,,,,,,,1246.8127714518978,None,1246.8127714518978,None,1247.246223211694,None,1247.246223211694,None,v,9.33117203702568,1247.246223211694,None,t,8.502768933663901,1247.246223211694,None,9.33117203702568,8.502768933663901,10.583781719159564,False,False,False,1256.6606929471836,None,1256.6606929471836,None,1256.6606929471836,None,1256.6606929471836,None,1256.6606929471836,None,1256.6606929471836,None,1256.6606929471836,None,1256.6606929471836,None,1257.6603666996543,None,1257.6603666996543,None,1258.627068600199,None,1258.627068600199,None,c,,,,,,,,,,,,,,,,,,,,,,,,,,,,,,,,,,,,,,,,,,,,,,,41_42Exp,001,2021_May_12_1507,ComputerHuman,2020.1.3,59.99713223834501,
Computer.xlsx,c,Sychronize.jpg,Number8.jpg,8,Computer,,,,,0,5,5,3,0,6,6,5,,,,,,,,,,,,,,,,,,,,,,,,,,,,,1259.6933995024483,None,1259.6933995024483,None,1260.1270610615393,None,1260.1270610615393,None,v,7.245994164755757,1260.1270610615393,None,t,7.329652114915007,1260.1270610615393,None,7.245994164755757,7.329652114915007,8.288423323787647,False,False,False,1267.525565198981,None,1267.525565198981,None,1267.525565198981,None,1267.525565198981,None,1267.525565198981,None,1267.525565198981,None,1267.525565198981,None,1267.525565198981,None,1268.5416616809925,None,1268.5416616809925,None,1269.5249736547903,None,1269.5249736547903,None,c,,,,,,,,,,,,,,,,,,,,,,,,,,,,,,,,,,,,,,,,,,,,,,,41_42Exp,001,2021_May_12_1507,ComputerHuman,2020.1.3,59.99713223834501,
Computer.xlsx,c,Sychronize.jpg,Number6.jpg,6,Computer,,,,,0,5,5,3,0,7,7,1,,,,,,,,,,,,,,,,,,,,,,,,,,,,,1270.5919185568127,None,1270.5919185568127,None,1271.0250825643634,None,1271.0250825643634,None,v,5.323810776433675,1271.0250825643634,None,t,4.826836666115923,1271.0250825643634,None,5.323810776433675,4.826836666115923,5.889162585190871,False,False,False,1276.4401871512364,None,1276.4401871512364,None,1276.4401871512364,None,1276.4401871512364,None,1276.4401871512364,None,1276.4401871512364,None,1276.4401871512364,None,1276.4401871512364,None,1277.4233878095056,None,1277.4233878095056,None,1278.4065653706057,None,1278.4065653706057,None,c,,,,,,,,,,,,,,,,,,,,,,,,,,,,,,,,,,,,,,,,,,,,,,,41_42Exp,001,2021_May_12_1507,ComputerHuman,2020.1.3,59.99713223834501,
Computer.xlsx,c,Sychronize.jpg,Number9.jpg,9,Computer,,,,,0,5,5,3,0,8,8,6,,,,,,,,,,,,,,,,,,,,,,,,,,,,,1279.4569820018514,None,1279.4569820018514,None,1279.9065443585969,None,1279.9065443585969,None,v,8.949805679018027,1279.9065443585969,None,t,7.638094290989102,1279.9065443585969,None,8.949805679018027,7.638094290989102,9.672587924881142,False,False,False,1288.9215443666162,None,1288.9215443666162,None,1288.9215443666162,None,1288.9215443666162,None,1288.9215443666162,None,1288.9215443666162,None,1288.9215443666162,None,1288.9215443666162,None,1289.954427358598,None,1289.954427358598,None,1290.9208196929048,None,1290.9208196929048,None,c,,,,,,,,,,,,,,,,,,,,,,,,,,,,,,,,,,,,,,,,,,,,,,,41_42Exp,001,2021_May_12_1507,ComputerHuman,2020.1.3,59.99713223834501,
Computer.xlsx,c,Sychronize.jpg,Number8.jpg,8,Computer,,,,,0,5,5,3,0,9,9,4,,,,,,,,,,,,,,,,,,,,,,,,,,,,,1291.9875156587586,None,1291.9875156587586,None,1292.4206543235814,None,1292.4206543235814,None,v,8.595589082096922,1292.4206543235814,None,t,7.282798863747303,1292.4206543235814,None,8.595589082096922,7.282798863747303,7.865127627534723,False,False,False,1301.087158775401,None,1301.087158775401,None,1301.087158775401,None,1301.087158775401,None,1301.087158775401,None,1301.087158775401,None,1301.087158775401,None,1301.087158775401,None,1302.1019050353443,None,1302.1019050353443,None,1303.0852506925148,None,1303.0852506925148,None,c,,,,,,,,,,,,,,,,,,,,,,,,,,,,,,,,,,,,,,,,,,,,,,,41_42Exp,001,2021_May_12_1507,ComputerHuman,2020.1.3,59.99713223834501,
Computer.xlsx,c,,,,,,,,,0,5,5,3,,,,,,,,,,,,,,,,,,,,,,,,,,,,,,,,,,,,,,,,,,,,,,,,,,,,,,,,,,,,,,,,,,,,,,,,,,,,,,,c,1304.0852805263585,None,1304.0852805263585,None,q,0,4.814749467883303,1304.0852805263585,None,l,1,19.053494329164096,1304.0852805263585,None,h,c,1323.2312171085869,None,1323.2312171085869,None,1325.2141916070668,None,None,None,None,None,None,None,None,,,,,,,,,,,,,,,,,,41_42Exp,001,2021_May_12_1507,ComputerHuman,2020.1.3,59.99713223834501,
Computer.xlsx,c,Sychronize.jpg,Number6.jpg,6,Computer,,,,,0,6,6,5,0,0,0,1,,,,,,,,,,,,,,,,,,,,,,,,,1330.2158096921503,None,1330.2158096921503,None,1333.2966007060677,None,1333.2966007060677,None,1333.746300362658,None,1333.746300362658,None,v,5.24101415824407,1333.746300362658,None,t,4.975830415443852,1333.746300362658,None,5.24101415824407,4.975830415443852,5.76349840232684,False,False,False,1339.0625182652093,None,1339.0625182652093,None,1339.0625182652093,None,1339.0625182652093,None,1339.0625182652093,None,1339.0625182652093,None,1339.0625182652093,None,1339.0625182652093,None,1340.0945062418505,None,1340.0945062418505,None,1341.0778563901367,None,1341.0778563901367,None,c,,,,,,,,,,,,,,,,,,,,,,,,,,,,,,,,,,,,,,,,,,,,,,,41_42Exp,001,2021_May_12_1507,ComputerHuman,2020.1.3,59.99713223834501,
Computer.xlsx,c,Sychronize.jpg,Number7.jpg,7,Computer,,,,,0,6,6,5,0,1,1,2,,,,,,,,,,,,,,,,,,,,,,,,,,,,,1342.1274610916935,None,1342.1274610916935,None,1342.5611130269644,None,1342.5611130269644,None,v,6.61394908677903,1342.5611130269644,None,t,5.688837490557489,1342.5611130269644,None,6.61394908677903,5.688837490557489,7.287119450995456,False,False,False,1349.2431076600806,None,1349.2431076600806,None,1349.2431076600806,None,1349.2431076600806,None,1349.2431076600806,None,1349.2431076600806,None,1349.2431076600806,None,1349.2431076600806,None,1350.259232051174,None,1350.259232051174,None,1351.2425106623923,None,1351.2425106623923,None,c,,,,,,,,,,,,,,,,,,,,,,,,,,,,,,,,,,,,,,,,,,,,,,,41_42Exp,001,2021_May_12_1507,ComputerHuman,2020.1.3,59.99713223834501,
Computer.xlsx,c,Sychronize.jpg,Number9.jpg,9,Computer,,,,,0,6,6,5,0,2,2,7,,,,,,,,,,,,,,,,,,,,,,,,,,,,,1352.293291715654,None,1352.293291715654,None,1352.7424482679526,None,1352.7424482679526,None,v,9.424315225045575,1352.7424482679526,None,None,,1352.7424482679526,None,9.424315225045575,13,9.007526935666018,False,False,False,1365.806973420611,None,1365.806973420611,None,1365.806973420611,None,1365.806973420611,None,1365.806973420611,None,1365.806973420611,None,1365.806973420611,None,1365.806973420611,None,1366.8225312894483,None,1366.8225312894483,None,1367.8059613154473,None,1367.8059613154473,None,c,,,,,,,,,,,,,,,,,,,,,,,,,,,,,,,,,,,,,,,,,,,,,,,41_42Exp,001,2021_May_12_1507,ComputerHuman,2020.1.3,59.99713223834501,
Computer.xlsx,c,Sychronize.jpg,Number10.jpg,10,Computer,,,,,0,6,6,5,0,3,3,9,,,,,,,,,,,,,,,,,,,,,,,,,,,,,1368.8558159155546,None,1368.8558159155546,None,1369.3058001164482,None,1369.3058001164482,None,v,9.17648579764682,1369.3058001164482,None,t,9.091739072553537,1369.3058001164482,None,9.17648579764682,9.091739072553537,10.430323246813195,False,False,False,1378.554356142322,None,1378.554356142322,None,1378.554356142322,None,1378.554356142322,None,1378.554356142322,None,1378.554356142322,None,1378.554356142322,None,1378.554356142322,None,1379.5536375636984,None,1379.5536375636984,None,1380.5368112752694,None,1380.5368112752694,None,c,,,,,,,,,,,,,,,,,,,,,,,,,,,,,,,,,,,,,,,,,,,,,,,41_42Exp,001,2021_May_12_1507,ComputerHuman,2020.1.3,59.99713223834501,
Computer.xlsx,c,Sychronize.jpg,Number7.jpg,7,Computer,,,,,0,6,6,5,0,4,4,3,,,,,,,,,,,,,,,,,,,,,,,,,,,,,1381.6046877631525,None,1381.6046877631525,None,1382.0535376363587,None,1382.0535376363587,None,v,7.208520289423177,1382.0535376363587,None,None,,1382.0535376363587,None,7.208520289423177,13,6.8151748875911045,False,False,False,1395.1183899989264,None,1395.1183899989264,None,1395.1183899989264,None,1395.1183899989264,None,1395.1183899989264,None,1395.1183899989264,None,1395.1183899989264,None,1395.1183899989264,None,1396.117120616953,None,1396.117120616953,None,1397.1002029022238,None,1397.1002029022238,None,c,,,,,,,,,,,,,,,,,,,,,,,,,,,,,,,,,,,,,,,,,,,,,,,41_42Exp,001,2021_May_12_1507,ComputerHuman,2020.1.3,59.99713223834501,
Computer.xlsx,c,Sychronize.jpg,Number8.jpg,8,Computer,,,,,0,6,6,5,0,5,5,5,,,,,,,,,,,,,,,,,,,,,,,,,,,,,1398.1669210028667,None,1398.1669210028667,None,1398.616892692793,None,1398.616892692793,None,v,7.856743010299397,1398.616892692793,None,t,6.971801242434594,1398.616892692793,None,7.856743010299397,6.971801242434594,8.238768376080012,False,False,False,1406.5500565399489,None,1406.5500565399489,None,1406.5500565399489,None,1406.5500565399489,None,1406.5500565399489,None,1406.5500565399489,None,1406.5500565399489,None,1406.5500565399489,None,1407.5645942837727,None,1407.5645942837727,None,1408.5313965928472,None,1408.5313965928472,None,c,,,,,,,,,,,,,,,,,,,,,,,,,,,,,,,,,,,,,,,,,,,,,,,41_42Exp,001,2021_May_12_1507,ComputerHuman,2020.1.3,59.99713223834501,
Computer.xlsx,c,Sychronize.jpg,Number10.jpg,10,Computer,,,,,0,6,6,5,0,6,6,8,,,,,,,,,,,,,,,,,,,,,,,,,,,,,1409.581842416348,None,1409.581842416348,None,1410.0316299705046,None,1410.0316299705046,None,v,10.48560549071044,1410.0316299705046,None,t,8.356753436106374,1410.0316299705046,None,10.48560549071044,8.356753436106374,10.416131901190372,False,True,False,1420.5973351639987,None,1420.5973351639987,None,1420.5973351639987,None,1420.5973351639987,None,1420.5973351639987,None,1420.5973351639987,None,1420.5973351639987,None,1420.5973351639987,None,1421.6121789453246,None,1421.6121789453246,None,1422.5953439954574,None,1422.5953439954574,None,c,,,,,,,,,,,,,,,,,,,,,,,,,,,,,,,,,,,,,,,,,,,,,,,41_42Exp,001,2021_May_12_1507,ComputerHuman,2020.1.3,59.99713223834501,
Computer.xlsx,c,Sychronize.jpg,Number8.jpg,8,Computer,,,,,0,6,6,5,0,7,7,4,,,,,,,,,,,,,,,,,,,,,,,,,,,,,1423.6453272339713,None,1423.6453272339713,None,1424.0953797639922,None,1424.0953797639922,None,v,7.985552720092528,1424.0953797639922,None,None,,1424.0953797639922,None,7.985552720092528,13,7.463629059883,False,False,False,1437.1759045188664,None,1437.1759045188664,None,1437.1759045188664,None,1437.1759045188664,None,1437.1759045188664,None,1437.1759045188664,None,1437.1759045188664,None,1437.1759045188664,None,1438.175649808407,None,1438.175649808407,None,1439.1588799797246,None,1439.1588799797246,None,c,,,,,,,,,,,,,,,,,,,,,,,,,,,,,,,,,,,,,,,,,,,,,,,41_42Exp,001,2021_May_12_1507,ComputerHuman,2020.1.3,59.99713223834501,
Computer.xlsx,c,Sychronize.jpg,Number6.jpg,6,Computer,,,,,0,6,6,5,0,8,8,0,,,,,,,,,,,,,,,,,,,,,,,,,,,,,1440.2096311991445,None,1440.2096311991445,None,1440.6589189562,None,1440.6589189562,None,v,5.725707631529076,1440.6589189562,None,t,5.272788165268139,1440.6589189562,None,5.725707631529076,5.272788165268139,5.844448068025685,False,True,False,1446.4739067740484,None,1446.4739067740484,None,1446.4739067740484,None,1446.4739067740484,None,1446.4739067740484,None,1446.4739067740484,None,1446.4739067740484,None,1446.4739067740484,None,1447.4571109610515,None,1447.4571109610515,None,1448.4403991960899,None,1448.4403991960899,None,c,,,,,,,,,,,,,,,,,,,,,,,,,,,,,,,,,,,,,,,,,,,,,,,41_42Exp,001,2021_May_12_1507,ComputerHuman,2020.1.3,59.99713223834501,
Computer.xlsx,c,Sychronize.jpg,Number9.jpg,9,Computer,,,,,0,6,6,5,0,9,9,6,,,,,,,,,,,,,,,,,,,,,,,,,,,,,1449.5074984000385,None,1449.5074984000385,None,1449.9569433461693,None,1449.9569433461693,None,None,,1449.9569433461693,None,t,7.862754690409929,1449.9569433461693,None,13,7.862754690409929,8.870628140912102,False,False,False,1463.0047907380358,None,1463.0047907380358,None,1463.0047907380358,None,1463.0047907380358,None,1463.0047907380358,None,1463.0047907380358,None,1463.0047907380358,None,1463.0047907380358,None,1464.020473716544,None,1464.020473716544,None,1465.0037641971394,None,1465.0037641971394,None,c,,,,,,,,,,,,,,,,,,,,,,,,,,,,,,,,,,,,,,,,,,,,,,,41_42Exp,001,2021_May_12_1507,ComputerHuman,2020.1.3,59.99713223834501,
Computer.xlsx,c,,,,,,,,,0,6,6,5,,,,,,,,,,,,,,,,,,,,,,,,,,,,,,,,,,,,,,,,,,,,,,,,,,,,,,,,,,,,,,,,,,,,,,,,,,,,,,,c,1466.0209988563693,None,1466.0209988563693,None,q,0,42.05806885202037,1466.0209988563693,None,l,0,1.597855812706257,1466.0209988563693,None,h,c,1508.145871781835,None,1508.145871781835,None,1510.1451114999836,None,None,None,None,None,None,None,None,,,,,,,,,,,,,,,,,,41_42Exp,001,2021_May_12_1507,ComputerHuman,2020.1.3,59.99713223834501,
Human.xlsx,h,Sychronize.jpg,Number8.jpg,8,Human,,,,,0,7,7,6,0,0,0,4,,,,,,,,,,,,,,,,,,,,,,,,,1515.1638651189423,None,1515.1638651189423,None,1518.2271866524025,None,1518.2271866524025,None,1518.677303020435,None,1518.677303020435,None,v,7.493325078234193,1518.677303020435,None,t,6.248746577530255,1518.677303020435,None,7.493325078234193,6.248746577530255,8.598373653905115,False,False,False,1526.2423666258728,None,1526.2423666258728,None,1526.2423666258728,None,1526.2423666258728,None,1526.2423666258728,None,1526.2423666258728,None,1526.2423666258728,None,1526.2423666258728,None,1527.2440376419727,None,1527.2440376419727,None,1528.2415989657602,None,1528.2415989657602,None,h,,,,,,,,,,,,,,,,,,,,,,,,,,,,,,,,,,,,,,,,,,,,,,,41_42Exp,001,2021_May_12_1507,ComputerHuman,2020.1.3,59.99713223834501,
Human.xlsx,h,Sychronize.jpg,Number9.jpg,9,Human,,,,,0,7,7,6,0,1,1,7,,,,,,,,,,,,,,,,,,,,,,,,,,,,,1529.309111673214,None,1529.309111673214,None,1529.7418487039104,None,1529.7418487039104,None,v,7.880537586632272,1529.7418487039104,None,t,6.888042242157098,1529.7418487039104,None,7.880537586632272,6.888042242157098,8.34934845481217,False,False,False,1537.6912527488057,None,1537.6912527488057,None,1537.6912527488057,None,1537.6912527488057,None,1537.6912527488057,None,1537.6912527488057,None,1537.6912527488057,None,1537.6912527488057,None,1538.691854237608,None,1538.691854237608,None,1539.6893966345488,None,1539.6893966345488,None,h,,,,,,,,,,,,,,,,,,,,,,,,,,,,,,,,,,,,,,,,,,,,,,,41_42Exp,001,2021_May_12_1507,ComputerHuman,2020.1.3,59.99713223834501,
Human.xlsx,h,Sychronize.jpg,Number7.jpg,7,Human,,,,,0,7,7,6,0,2,2,3,,,,,,,,,,,,,,,,,,,,,,,,,,,,,1540.739274331827,None,1540.739274331827,None,1541.1725724312819,None,1541.1725724312819,None,v,5.8615414473897545,1541.1725724312819,None,None,,1541.1725724312819,None,5.8615414473897545,13,6.907846284631225,False,False,False,1554.237747191848,None,1554.237747191848,None,1554.237747191848,None,1554.237747191848,None,1554.237747191848,None,1554.237747191848,None,1554.237747191848,None,1554.237747191848,None,1555.23832686666,None,1555.23832686666,None,1556.2361374474094,None,1556.2361374474094,None,h,,,,,,,,,,,,,,,,,,,,,,,,,,,,,,,,,,,,,,,,,,,,,,,41_42Exp,001,2021_May_12_1507,ComputerHuman,2020.1.3,59.99713223834501,
Human.xlsx,h,Sychronize.jpg,Number7.jpg,7,Human,,,,,0,7,7,6,0,3,3,2,,,,,,,,,,,,,,,,,,,,,,,,,,,,,1557.2691153944252,None,1557.2691153944252,None,1557.7195820695379,None,1557.7195820695379,None,v,6.714129854215571,1557.7195820695379,None,t,5.541808604655671,1557.7195820695379,None,6.714129854215571,5.541808604655671,6.919402694593597,False,False,False,1564.4855166307643,None,1564.4855166307643,None,1564.4855166307643,None,1564.4855166307643,None,1564.4855166307643,None,1564.4855166307643,None,1564.4855166307643,None,1564.4855166307643,None,1565.5030457789107,None,1565.5030457789107,None,1566.500947465167,None,1566.500947465167,None,h,,,,,,,,,,,,,,,,,,,,,,,,,,,,,,,,,,,,,,,,,,,,,,,41_42Exp,001,2021_May_12_1507,ComputerHuman,2020.1.3,59.99713223834501,
Human.xlsx,h,Sychronize.jpg,Number8.jpg,8,Human,,,,,0,7,7,6,0,4,4,5,,,,,,,,,,,,,,,,,,,,,,,,,,,,,1567.5506050977383,None,1567.5506050977383,None,1568.00080808016,None,1568.00080808016,None,v,7.64458138784903,1568.00080808016,None,t,5.863806894823938,1568.00080808016,None,7.64458138784903,5.863806894823938,7.829640408930039,False,False,False,1575.7167109629772,None,1575.7167109629772,None,1575.7167109629772,None,1575.7167109629772,None,1575.7167109629772,None,1575.7167109629772,None,1575.7167109629772,None,1575.7167109629772,None,1576.7008326209034,None,1576.7008326209034,None,1577.6985841755522,None,1577.6985841755522,None,h,,,,,,,,,,,,,,,,,,,,,,,,,,,,,,,,,,,,,,,,,,,,,,,41_42Exp,001,2021_May_12_1507,ComputerHuman,2020.1.3,59.99713223834501,
Human.xlsx,h,Sychronize.jpg,Number6.jpg,6,Human,,,,,0,7,7,6,0,5,5,1,,,,,,,,,,,,,,,,,,,,,,,,,,,,,1578.748694448499,None,1578.748694448499,None,1579.1984428657815,None,1579.1984428657815,None,v,5.306792011586367,1579.1984428657815,None,t,4.697919169528177,1579.1984428657815,None,5.306792011586367,4.697919169528177,5.636061707451591,False,False,False,1584.5811498220392,None,1584.5811498220392,None,1584.5811498220392,None,1584.5811498220392,None,1584.5811498220392,None,1584.5811498220392,None,1584.5811498220392,None,1584.5811498220392,None,1585.5826383063359,None,1585.5826383063359,None,1586.580262505755,None,1586.580262505755,None,h,,,,,,,,,,,,,,,,,,,,,,,,,,,,,,,,,,,,,,,,,,,,,,,41_42Exp,001,2021_May_12_1507,ComputerHuman,2020.1.3,59.99713223834501,
Human.xlsx,h,Sychronize.jpg,Number10.jpg,10,Human,,,,,0,7,7,6,0,6,6,8,,,,,,,,,,,,,,,,,,,,,,,,,,,,,1587.596567503886,None,1587.596567503886,None,1588.0804086274366,None,1588.0804086274366,None,None,,1588.0804086274366,None,t,8.27178087201537,1588.0804086274366,None,13,8.27178087201537,10.486627299345148,False,False,False,1601.1443913173898,None,1601.1443913173898,None,1601.1443913173898,None,1601.1443913173898,None,1601.1443913173898,None,1601.1443913173898,None,1601.1443913173898,None,1601.1443913173898,None,1602.1462506395837,None,1602.1462506395837,None,1603.1436419425372,None,1603.1436419425372,None,h,,,,,,,,,,,,,,,,,,,,,,,,,,,,,,,,,,,,,,,,,,,,,,,41_42Exp,001,2021_May_12_1507,ComputerHuman,2020.1.3,59.99713223834501,
Human.xlsx,h,Sychronize.jpg,Number6.jpg,6,Human,,,,,0,7,7,6,0,7,7,0,,,,,,,,,,,,,,,,,,,,,,,,,,,,,1604.1939411631683,None,1604.1939411631683,None,1604.6435285418484,None,1604.6435285418484,None,v,4.465033611195395,1604.6435285418484,None,t,4.679845954706252,1604.6435285418484,None,4.465033611195395,4.679845954706252,5.763730973684671,True,False,False,1609.3928491802908,None,1609.3928491802908,None,1609.3928491802908,None,1609.3928491802908,None,1609.3928491802908,None,1609.3928491802908,None,1609.3928491802908,None,1609.3928491802908,None,1610.3776839633465,None,1610.3776839633465,None,1611.3754621439002,None,1611.3754621439002,None,h,,,,,,,,,,,,,,,,,,,,,,,,,,,,,,,,,,,,,,,,,,,,,,,41_42Exp,001,2021_May_12_1507,ComputerHuman,2020.1.3,59.99713223834501,
Human.xlsx,h,Sychronize.jpg,Number9.jpg,9,Human,,,,,0,7,7,6,0,8,8,6,,,,,,,,,,,,,,,,,,,,,,,,,,,,,1612.441828654286,None,1612.441828654286,None,1612.8753740859393,None,1612.8753740859393,None,v,7.332903041609825,1612.8753740859393,None,t,7.067757152504782,1612.8753740859393,None,7.332903041609825,7.067757152504782,8.575867363083807,True,False,False,1620.291407692319,None,1620.291407692319,None,1620.291407692319,None,1620.291407692319,None,1620.291407692319,None,1620.291407692319,None,1620.291407692319,None,1620.291407692319,None,1621.2927646510652,None,1621.2927646510652,None,1622.2900632445417,None,1622.2900632445417,None,h,,,,,,,,,,,,,,,,,,,,,,,,,,,,,,,,,,,,,,,,,,,,,,,41_42Exp,001,2021_May_12_1507,ComputerHuman,2020.1.3,59.99713223834501,
Human.xlsx,h,Sychronize.jpg,Number10.jpg,10,Human,,,,,0,7,7,6,0,9,9,9,,,,,,,,,,,,,,,,,,,,,,,,,,,,,1623.323581408702,None,1623.323581408702,None,1623.7901946096972,None,1623.7901946096972,None,None,,1623.7901946096972,None,t,7.980712579777901,1623.7901946096972,None,13,7.980712579777901,10.598474613318434,False,False,False,1636.8705323416507,None,1636.8705323416507,None,1636.8705323416507,None,1636.8705323416507,None,1636.8705323416507,None,1636.8705323416507,None,1636.8705323416507,None,1636.8705323416507,None,1637.8551095271032,None,1637.8551095271032,None,1638.8535100480694,None,1638.8535100480694,None,h,,,,,,,,,,,,,,,,,,,,,,,,,,,,,,,,,,,,,,,,,,,,,,,41_42Exp,001,2021_May_12_1507,ComputerHuman,2020.1.3,59.99713223834501,
Human.xlsx,h,,,,,,,,,0,7,7,6,,,,,,,,,,,,,,,,,,,,,,,,,,,,,,,,,,,,,,,,,,,,,,,,,,,,,,,,,,,,,,,,,,,,,,,,,,,,,,,h,1639.8539504982728,None,1639.8539504982728,None,a,0,3.4217690828336345,1639.8539504982728,None,l,0,3.808871558881947,1639.8539504982728,None,c,c,1643.7356095808354,None,1643.7356095808354,None,1645.7356012401906,None,None,None,None,None,None,None,None,,,,,,,,,,,,,,,,,,41_42Exp,001,2021_May_12_1507,ComputerHuman,2020.1.3,59.99713223834501,
Computer.xlsx,c,Sychronize.jpg,Number8.jpg,8,Computer,,,,,0,8,8,7,0,0,0,5,,,,,,,,,,,,,,,,,,,,,,,,,1650.7536375636992,None,1650.7536375636992,None,1653.834875122906,None,1653.834875122906,None,1654.2677603604461,None,1654.2677603604461,None,v,7.051474930747645,1654.2677603604461,None,t,0.24292192033681204,1654.2677603604461,None,7.051474930747645,0.24292192033681204,8.156554816720623,False,False,False,1661.4158129000898,None,1661.4158129000898,None,1661.4158129000898,None,1661.4158129000898,None,1661.4158129000898,None,1661.4158129000898,None,1661.4158129000898,None,1661.4158129000898,None,1662.4154552147484,None,1662.4154552147484,None,1663.39857727848,None,1663.39857727848,None,c,,,,,,,,,,,,,,,,,,,,,,,,,,,,,,,,,,,,,,,,,,,,,,,41_42Exp,001,2021_May_12_1507,ComputerHuman,2020.1.3,59.99713223834501,
Computer.xlsx,c,Sychronize.jpg,Number6.jpg,6,Computer,,,,,0,8,8,7,0,1,1,1,,,,,,,,,,,,,,,,,,,,,,,,,,,,,1664.482679849163,None,1664.482679849163,None,1664.8989938295272,None,1664.8989938295272,None,v,5.664069625137927,1664.8989938295272,None,t,4.672317560423835,1664.8989938295272,None,5.664069625137927,4.672317560423835,6.070140784243761,False,False,False,1670.6311304941992,None,1670.6311304941992,None,1670.6311304941992,None,1670.6311304941992,None,1670.6311304941992,None,1670.6311304941992,None,1670.6311304941992,None,1670.6311304941992,None,1671.646957509227,None,1671.646957509227,None,1672.630207890572,None,1672.630207890572,None,c,,,,,,,,,,,,,,,,,,,,,,,,,,,,,,,,,,,,,,,,,,,,,,,41_42Exp,001,2021_May_12_1507,ComputerHuman,2020.1.3,59.99713223834501,
Computer.xlsx,c,Sychronize.jpg,Number9.jpg,9,Computer,,,,,0,8,8,7,0,2,2,6,,,,,,,,,,,,,,,,,,,,,,,,,,,,,1673.6799283987712,None,1673.6799283987712,None,1674.1139941583424,None,1674.1139941583424,None,v,8.992763207494136,1674.1139941583424,None,None,,1674.1139941583424,None,8.992763207494136,13,9.1489122836116,False,True,False,1687.1778231879543,None,1687.1778231879543,None,1687.1778231879543,None,1687.1778231879543,None,1687.1778231879543,None,1687.1778231879543,None,1687.1778231879543,None,1687.1778231879543,None,1688.1938596814834,None,1688.1938596814834,None,1689.1770866448642,None,1689.1770866448642,None,c,,,,,,,,,,,,,,,,,,,,,,,,,,,,,,,,,,,,,,,,,,,,,,,41_42Exp,001,2021_May_12_1507,ComputerHuman,2020.1.3,59.99713223834501,
Computer.xlsx,c,Sychronize.jpg,Number9.jpg,9,Computer,,,,,0,8,8,7,0,3,3,7,,,,,,,,,,,,,,,,,,,,,,,,,,,,,1690.226635528259,None,1690.226635528259,None,1690.6605841980054,None,1690.6605841980054,None,v,8.697789568741428,1690.6605841980054,None,t,7.040765222074697,1690.6605841980054,None,8.697789568741428,7.040765222074697,8.63947603412256,False,True,False,1699.4252400742334,None,1699.4252400742334,None,1699.4252400742334,None,1699.4252400742334,None,1699.4252400742334,None,1699.4252400742334,None,1699.4252400742334,None,1699.4252400742334,None,1700.4414132260172,None,1700.4414132260172,None,1701.4247223126695,None,1701.4247223126695,None,c,,,,,,,,,,,,,,,,,,,,,,,,,,,,,,,,,,,,,,,,,,,,,,,41_42Exp,001,2021_May_12_1507,ComputerHuman,2020.1.3,59.99713223834501,
Computer.xlsx,c,Sychronize.jpg,Number8.jpg,8,Computer,,,,,0,8,8,7,0,4,4,4,,,,,,,,,,,,,,,,,,,,,,,,,,,,,1702.4919090933872,None,1702.4919090933872,None,1702.9246769203128,None,1702.9246769203128,None,v,7.3573991944867885,1702.9246769203128,None,t,5.364870166638866,1702.9246769203128,None,7.3573991944867885,5.364870166638866,8.170289516775824,False,False,False,1710.372947118707,None,1710.372947118707,None,1710.372947118707,None,1710.372947118707,None,1710.372947118707,None,1710.372947118707,None,1710.372947118707,None,1710.372947118707,None,1711.3561535512708,None,1711.3561535512708,None,1712.3391107268726,None,1712.3391107268726,None,c,,,,,,,,,,,,,,,,,,,,,,,,,,,,,,,,,,,,,,,,,,,,,,,41_42Exp,001,2021_May_12_1507,ComputerHuman,2020.1.3,59.99713223834501,
Computer.xlsx,c,Sychronize.jpg,Number7.jpg,7,Computer,,,,,0,8,8,7,0,5,5,2,,,,,,,,,,,,,,,,,,,,,,,,,,,,,1713.3891151377902,None,1713.3891151377902,None,1713.839332555941,None,1713.839332555941,None,v,6.8864786920566985,1713.839332555941,None,t,5.073844219212333,1713.839332555941,None,6.8864786920566985,5.073844219212333,7.043355603862161,False,True,False,1720.8057184743666,None,1720.8057184743666,None,1720.8057184743666,None,1720.8057184743666,None,1720.8057184743666,None,1720.8057184743666,None,1720.8057184743666,None,1720.8057184743666,None,1721.8207351636775,None,1721.8207351636775,None,1722.8039470497388,None,1722.8039470497388,None,c,,,,,,,,,,,,,,,,,,,,,,,,,,,,,,,,,,,,,,,,,,,,,,,41_42Exp,001,2021_May_12_1507,ComputerHuman,2020.1.3,59.99713223834501,
Computer.xlsx,c,Sychronize.jpg,Number10.jpg,10,Computer,,,,,0,8,8,7,0,6,6,9,,,,,,,,,,,,,,,,,,,,,,,,,,,,,1723.8538324460715,None,1723.8538324460715,None,1724.2874352998551,None,1724.2874352998551,None,v,9.958029875546345,1724.2874352998551,None,t,8.069743829928484,1724.2874352998551,None,9.958029875546345,8.069743829928484,9.874145189678984,False,True,False,1734.3350574943106,None,1734.3350574943106,None,1734.3350574943106,None,1734.3350574943106,None,1734.3350574943106,None,1734.3350574943106,None,1734.3350574943106,None,1734.3350574943106,None,1735.3346901851473,None,1735.3346901851473,None,1736.3179874024172,None,1736.3179874024172,None,c,,,,,,,,,,,,,,,,,,,,,,,,,,,,,,,,,,,,,,,,,,,,,,,41_42Exp,001,2021_May_12_1507,ComputerHuman,2020.1.3,59.99713223834501,
Computer.xlsx,c,Sychronize.jpg,Number7.jpg,7,Computer,,,,,0,8,8,7,0,7,7,3,,,,,,,,,,,,,,,,,,,,,,,,,,,,,1737.3681862145168,None,1737.3681862145168,None,1737.8177633277883,None,1737.8177633277883,None,v,6.583458255874575,1737.8177633277883,None,t,5.455062370379892,1737.8177633277883,None,6.583458255874575,5.455062370379892,7.251609947779092,False,False,False,1744.4831883076986,None,1744.4831883076986,None,1744.4831883076986,None,1744.4831883076986,None,1744.4831883076986,None,1744.4831883076986,None,1744.4831883076986,None,1744.4831883076986,None,1745.4828248480626,None,1745.4828248480626,None,1746.465997918047,None,1746.465997918047,None,c,,,,,,,,,,,,,,,,,,,,,,,,,,,,,,,,,,,,,,,,,,,,,,,41_42Exp,001,2021_May_12_1507,ComputerHuman,2020.1.3,59.99713223834501,
Computer.xlsx,c,Sychronize.jpg,Number10.jpg,10,Computer,,,,,0,8,8,7,0,8,8,8,,,,,,,,,,,,,,,,,,,,,,,,,,,,,1747.5500161199016,None,1747.5500161199016,None,1747.965979151595,None,1747.965979151595,None,v,9.774893376084947,1747.965979151595,None,t,7.945766240598459,1747.965979151595,None,9.774893376084947,7.945766240598459,10.315096594855886,False,False,False,1757.8305197023692,None,1757.8305197023692,None,1757.8305197023692,None,1757.8305197023692,None,1757.8305197023692,None,1757.8305197023692,None,1757.8305197023692,None,1757.8305197023692,None,1758.8136035916104,None,1758.8136035916104,None,1759.79673175043,None,1759.79673175043,None,c,,,,,,,,,,,,,,,,,,,,,,,,,,,,,,,,,,,,,,,,,,,,,,,41_42Exp,001,2021_May_12_1507,ComputerHuman,2020.1.3,59.99713223834501,
Computer.xlsx,c,Sychronize.jpg,Number6.jpg,6,Computer,,,,,0,8,8,7,0,9,9,0,,,,,,,,,,,,,,,,,,,,,,,,,,,,,1760.8640032207732,None,1760.8640032207732,None,1761.2966953403047,None,1761.2966953403047,None,v,5.643942366143165,1761.2966953403047,None,t,4.510850697646674,1761.2966953403047,None,5.643942366143165,4.510850697646674,5.598667073223061,False,True,False,1767.0125449713123,None,1767.0125449713123,None,1767.0125449713123,None,1767.0125449713123,None,1767.0125449713123,None,1767.0125449713123,None,1767.0125449713123,None,1767.0125449713123,None,1768.028370703163,None,1768.028370703163,None,1769.0116797898154,None,1769.0116797898154,None,c,,,,,,,,,,,,,,,,,,,,,,,,,,,,,,,,,,,,,,,,,,,,,,,41_42Exp,001,2021_May_12_1507,ComputerHuman,2020.1.3,59.99713223834501,
Computer.xlsx,c,,,,,,,,,0,8,8,7,,,,,,,,,,,,,,,,,,,,,,,,,,,,,,,,,,,,,,,,,,,,,,,,,,,,,,,,,,,,,,,,,,,,,,,,,,,,,,,c,1770.0121109369902,None,1770.0121109369902,None,q,0,83.94637510766552,1770.0121109369902,None,l,0,1.6039380675028951,1770.0121109369902,None,h,c,1854.0451488724902,None,1854.0451488724902,None,1856.0448341735464,None,None,None,None,None,None,None,None,,,,,,,,,,,,,,,,,,41_42Exp,001,2021_May_12_1507,ComputerHuman,2020.1.3,59.99713223834501,
Computer.xlsx,c,Sychronize.jpg,Number7.jpg,7,Computer,,,,,0,9,9,1,0,0,0,2,,,,,,,,,,,,,,,,,,,,,,,,,1861.0307801871204,None,1861.0307801871204,None,1864.126940442984,None,1864.126940442984,None,1864.543355152673,None,1864.543355152673,None,v,6.702654089400312,1864.543355152673,None,t,4.993698001293524,1864.543355152673,None,6.702654089400312,4.993698001293524,6.546087403170973,False,True,False,1871.3260088571224,None,1871.3260088571224,None,1871.3260088571224,None,1871.3260088571224,None,1871.3260088571224,None,1871.3260088571224,None,1871.3260088571224,None,1871.3260088571224,None,1872.3583080039716,None,1872.3583080039716,None,1873.3414778660153,None,1873.3414778660153,None,c,,,,,,,,,,,,,,,,,,,,,,,,,,,,,,,,,,,,,,,,,,,,,,,41_42Exp,001,2021_May_12_1507,ComputerHuman,2020.1.3,59.99713223834501,
Computer.xlsx,c,Sychronize.jpg,Number8.jpg,8,Computer,,,,,0,9,9,1,0,1,1,5,,,,,,,,,,,,,,,,,,,,,,,,,,,,,1874.3912468141134,None,1874.3912468141134,None,1874.8250450314627,None,1874.8250450314627,None,v,7.156794176946278,1874.8250450314627,None,t,5.827811879964429,1874.8250450314627,None,7.156794176946278,5.827811879964429,8.443789256971415,False,False,False,1882.089733147488,None,1882.089733147488,None,1882.089733147488,None,1882.089733147488,None,1882.089733147488,None,1882.089733147488,None,1882.089733147488,None,1882.089733147488,None,1883.0728366051662,None,1883.0728366051662,None,1884.0559888235366,None,1884.0559888235366,None,c,,,,,,,,,,,,,,,,,,,,,,,,,,,,,,,,,,,,,,,,,,,,,,,41_42Exp,001,2021_May_12_1507,ComputerHuman,2020.1.3,59.99713223834501,
Computer.xlsx,c,Sychronize.jpg,Number8.jpg,8,Computer,,,,,0,9,9,1,0,2,2,4,,,,,,,,,,,,,,,,,,,,,,,,,,,,,1885.105962759022,None,1885.105962759022,None,1885.5559020487526,None,1885.5559020487526,None,v,7.445648669585353,1885.5559020487526,None,t,6.536745512490597,1885.5559020487526,None,7.445648669585353,6.536745512490597,7.988031238418274,False,False,False,1893.071374425981,None,1893.071374425981,None,1893.071374425981,None,1893.071374425981,None,1893.071374425981,None,1893.071374425981,None,1893.071374425981,None,1893.071374425981,None,1894.070657130531,None,1894.070657130531,None,1895.0537974795225,None,1895.0537974795225,None,c,,,,,,,,,,,,,,,,,,,,,,,,,,,,,,,,,,,,,,,,,,,,,,,41_42Exp,001,2021_May_12_1507,ComputerHuman,2020.1.3,59.99713223834501,
Computer.xlsx,c,Sychronize.jpg,Number9.jpg,9,Computer,,,,,0,9,9,1,0,3,3,6,,,,,,,,,,,,,,,,,,,,,,,,,,,,,1896.1207054902297,None,1896.1207054902297,None,1896.5542239751849,None,1896.5542239751849,None,v,8.42698679772002,1896.5542239751849,None,t,6.955053227749886,1896.5542239751849,None,8.42698679772002,6.955053227749886,8.7067203362267,False,True,False,1905.0685010738598,None,1905.0685010738598,None,1905.0685010738598,None,1905.0685010738598,None,1905.0685010738598,None,1905.0685010738598,None,1905.0685010738598,None,1905.0685010738598,None,1906.0682893497979,None,1906.0682893497979,None,1907.051627307912,None,1907.051627307912,None,c,,,,,,,,,,,,,,,,,,,,,,,,,,,,,,,,,,,,,,,,,,,,,,,41_42Exp,001,2021_May_12_1507,ComputerHuman,2020.1.3,59.99713223834501,
Computer.xlsx,c,Sychronize.jpg,Number6.jpg,6,Computer,,,,,0,9,9,1,0,4,4,0,,,,,,,,,,,,,,,,,,,,,,,,,,,,,1908.1013205486233,None,1908.1013205486233,None,1908.5349323846385,None,1908.5349323846385,None,v,5.198042514832196,1908.5349323846385,None,t,4.173842775639059,1908.5349323846385,None,5.198042514832196,4.173842775639059,6.287904146747469,False,False,False,1913.8007018973367,None,1913.8007018973367,None,1913.8007018973367,None,1913.8007018973367,None,1913.8007018973367,None,1913.8007018973367,None,1913.8007018973367,None,1913.8007018973367,None,1914.8000526102223,None,1914.8000526102223,None,1915.799937765958,None,1915.799937765958,None,c,,,,,,,,,,,,,,,,,,,,,,,,,,,,,,,,,,,,,,,,,,,,,,,41_42Exp,001,2021_May_12_1507,ComputerHuman,2020.1.3,59.99713223834501,
Computer.xlsx,c,Sychronize.jpg,Number9.jpg,9,Computer,,,,,0,9,9,1,0,5,5,7,,,,,,,,,,,,,,,,,,,,,,,,,,,,,1916.8501555049043,None,1916.8501555049043,None,1917.3001162878354,None,1917.3001162878354,None,v,9.228545535912417,1917.3001162878354,None,t,4.843825597119576,1917.3001162878354,None,9.228545535912417,4.843825597119576,8.630031510871541,False,False,False,1926.6144857751897,None,1926.6144857751897,None,1926.6144857751897,None,1926.6144857751897,None,1926.6144857751897,None,1926.6144857751897,None,1926.6144857751897,None,1926.6144857751897,None,1927.5973746216623,None,1927.5973746216623,None,1928.5807918159044,None,1928.5807918159044,None,c,,,,,,,,,,,,,,,,,,,,,,,,,,,,,,,,,,,,,,,,,,,,,,,41_42Exp,001,2021_May_12_1507,ComputerHuman,2020.1.3,59.99713223834501,
Computer.xlsx,c,Sychronize.jpg,Number10.jpg,10,Computer,,,,,0,9,9,1,0,6,6,9,,,,,,,,,,,,,,,,,,,,,,,,,,,,,1929.6307705632971,None,1929.6307705632971,None,1930.081066575989,None,1930.081066575989,None,v,9.51529144939559,1930.081066575989,None,None,,1930.081066575989,None,9.51529144939559,13,10.7096447181416,False,False,False,1943.161259309043,None,1943.161259309043,None,1943.161259309043,None,1943.161259309043,None,1943.161259309043,None,1943.161259309043,None,1943.161259309043,None,1943.161259309043,None,1944.1443255546146,None,1944.1443255546146,None,1945.1275691992814,None,1945.1275691992814,None,c,,,,,,,,,,,,,,,,,,,,,,,,,,,,,,,,,,,,,,,,,,,,,,,41_42Exp,001,2021_May_12_1507,ComputerHuman,2020.1.3,59.99713223834501,
Computer.xlsx,c,Sychronize.jpg,Number6.jpg,6,Computer,,,,,0,9,9,1,0,7,7,1,,,,,,,,,,,,,,,,,,,,,,,,,,,,,1946.1774671065832,None,1946.1774671065832,None,1946.6277425884546,None,1946.6277425884546,None,v,5.464319202892511,1946.6277425884546,None,t,4.30790131734102,1946.6277425884546,None,5.464319202892511,4.30790131734102,6.444019871748302,False,False,False,1952.159646035867,None,1952.159646035867,None,1952.159646035867,None,1952.159646035867,None,1952.159646035867,None,1952.159646035867,None,1952.159646035867,None,1952.159646035867,None,1953.1759651489374,None,1953.1759651489374,None,1954.159200132166,None,1954.159200132166,None,c,,,,,,,,,,,,,,,,,,,,,,,,,,,,,,,,,,,,,,,,,,,,,,,41_42Exp,001,2021_May_12_1507,ComputerHuman,2020.1.3,59.99713223834501,
Computer.xlsx,c,Sychronize.jpg,Number10.jpg,10,Computer,,,,,0,9,9,1,0,8,8,8,,,,,,,,,,,,,,,,,,,,,,,,,,,,,1955.2091022097884,None,1955.2091022097884,None,1955.6591707795124,None,1955.6591707795124,None,v,9.644536797481123,1955.6591707795124,None,t,6.279794306869007,1955.6591707795124,None,9.644536797481123,6.279794306869007,10.410732816247624,False,False,False,1965.3902613348546,None,1965.3902613348546,None,1965.3902613348546,None,1965.3902613348546,None,1965.3902613348546,None,1965.3902613348546,None,1965.3902613348546,None,1965.3902613348546,None,1966.3898712493174,None,1966.3898712493174,None,1967.3733214853419,None,1967.3733214853419,None,c,,,,,,,,,,,,,,,,,,,,,,,,,,,,,,,,,,,,,,,,,,,,,,,41_42Exp,001,2021_May_12_1507,ComputerHuman,2020.1.3,59.99713223834501,
Computer.xlsx,c,Sychronize.jpg,Number7.jpg,7,Computer,,,,,0,9,9,1,0,9,9,3,,,,,,,,,,,,,,,,,,,,,,,,,,,,,1968.4233765817153,None,1968.4233765817153,None,1968.87324786311,None,1968.87324786311,None,v,7.13021959955222,1968.87324786311,None,t,4.581836321263836,1968.87324786311,None,7.13021959955222,4.581836321263836,6.791175855806732,False,False,False,1976.07204873503,None,1976.07204873503,None,1976.07204873503,None,1976.07204873503,None,1976.07204873503,None,1976.07204873503,None,1976.07204873503,None,1976.07204873503,None,1977.0711816287694,None,1977.0711816287694,None,1978.0544804500096,None,1978.0544804500096,None,c,,,,,,,,,,,,,,,,,,,,,,,,,,,,,,,,,,,,,,,,,,,,,,,41_42Exp,001,2021_May_12_1507,ComputerHuman,2020.1.3,59.99713223834501,
Computer.xlsx,c,,,,,,,,,0,9,9,1,,,,,,,,,,,,,,,,,,,,,,,,,,,,,,,,,,,,,,,,,,,,,,,,,,,,,,,,,,,,,,,,,,,,,,,,,,,,,,,c,1979.0552898133465,None,1979.0552898133465,None,a,1,39.739078326674644,1979.0552898133465,None,l,0,3.086879363800108,1979.0552898133465,None,c,c,2018.8802135846636,None,2018.8802135846636,None,None,None,2020.8795601272286,None,2020.8795601272286,None,"['space', 'space']",2021.862726781328,None,"[374.5902809032923, 387.03399903441095]",,,,,,,,,,,,,,,,,41_42Exp,001,2021_May_12_1507,ComputerHuman,2020.1.3,59.99713223834501,
Computer.xlsx,c,Sychronize.jpg,Number10.jpg,10,Computer,,,,,1,0,10,5,0,0,0,8,,,,,,,,,,,,,,,,,,,,,,,,,2408.9578274545165,None,2408.9578274545165,None,2412.0207441459097,None,2412.0207441459097,None,2412.4542331178127,None,2412.4542331178127,None,v,9.294128025692771,2412.4542331178127,None,t,7.869747358661698,2412.4542331178127,None,9.294128025692771,7.869747358661698,9.2777001238047,False,True,False,2421.82029118474,None,2421.82029118474,None,2421.82029118474,None,2421.82029118474,None,2421.82029118474,None,2421.82029118474,None,2421.82029118474,None,2421.82029118474,None,2422.851704940069,None,2422.851704940069,None,2423.8349569253805,None,2423.8349569253805,None,c,,,,,,,,,,,,,,,,,,,,,,,,,,,,,,,,,,,,,,,,,,,,,,,41_42Exp,001,2021_May_12_1507,ComputerHuman,2020.1.3,59.99713223834501,
Computer.xlsx,c,Sychronize.jpg,Number9.jpg,9,Computer,,,,,1,0,10,5,0,1,1,6,,,,,,,,,,,,,,,,,,,,,,,,,,,,,2424.885164078125,None,2424.885164078125,None,2425.3181487618167,None,2425.3181487618167,None,v,8.229918855151482,2425.3181487618167,None,t,6.176613152874779,2425.3181487618167,None,8.229918855151482,6.176613152874779,8.356085928222075,False,True,False,2433.61808732976,None,2433.61808732976,None,2433.61808732976,None,2433.61808732976,None,2433.61808732976,None,2433.61808732976,None,2433.61808732976,None,2433.61808732976,None,2434.6328361560554,None,2434.6328361560554,None,2435.615998319041,None,2435.615998319041,None,c,,,,,,,,,,,,,,,,,,,,,,,,,,,,,,,,,,,,,,,,,,,,,,,41_42Exp,001,2021_May_12_1507,ComputerHuman,2020.1.3,59.99713223834501,
Computer.xlsx,c,Sychronize.jpg,Number8.jpg,8,Computer,,,,,1,0,10,5,0,2,2,4,,,,,,,,,,,,,,,,,,,,,,,,,,,,,2436.6660999305495,None,2436.6660999305495,None,2437.116248698778,None,2437.116248698778,None,v,7.475572015853686,2437.116248698778,None,t,5.686817129761039,2437.116248698778,None,7.475572015853686,5.686817129761039,7.718741572820511,False,True,False,2444.6658400873857,None,2444.6658400873857,None,2444.6658400873857,None,2444.6658400873857,None,2444.6658400873857,None,2444.6658400873857,None,2444.6658400873857,None,2444.6658400873857,None,2445.6639387411706,None,2445.6639387411706,None,2446.647155759936,None,2446.647155759936,None,c,,,,,,,,,,,,,,,,,,,,,,,,,,,,,,,,,,,,,,,,,,,,,,,41_42Exp,001,2021_May_12_1507,ComputerHuman,2020.1.3,59.99713223834501,
Computer.xlsx,c,Sychronize.jpg,Number6.jpg,6,Computer,,,,,1,0,10,5,0,3,3,1,,,,,,,,,,,,,,,,,,,,,,,,,,,,,2447.7141141353095,None,2447.7141141353095,None,2448.147370210747,None,2448.147370210747,None,v,5.252172016174882,2448.147370210747,None,t,4.179839057633217,2448.147370210747,None,5.252172016174882,4.179839057633217,5.851422852954684,False,False,False,2453.4794196194416,None,2453.4794196194416,None,2453.4794196194416,None,2453.4794196194416,None,2453.4794196194416,None,2453.4794196194416,None,2453.4794196194416,None,2453.4794196194416,None,2454.4956845183187,None,2454.4956845183187,None,2455.47887715674,None,2455.47887715674,None,c,,,,,,,,,,,,,,,,,,,,,,,,,,,,,,,,,,,,,,,,,,,,,,,41_42Exp,001,2021_May_12_1507,ComputerHuman,2020.1.3,59.99713223834501,
Computer.xlsx,c,Sychronize.jpg,Number6.jpg,6,Computer,,,,,1,0,10,5,0,4,4,0,,,,,,,,,,,,,,,,,,,,,,,,,,,,,2456.5125576426763,None,2456.5125576426763,None,2456.978880845869,None,2456.978880845869,None,v,5.588987782561162,2456.978880845869,None,t,4.443821426793875,2456.978880845869,None,5.588987782561162,4.443821426793875,5.85471716126865,False,True,False,2462.6606005585018,None,2462.6606005585018,None,2462.6606005585018,None,2462.6606005585018,None,2462.6606005585018,None,2462.6606005585018,None,2462.6606005585018,None,2462.6606005585018,None,2463.6438907183074,None,2463.6438907183074,None,2464.6269935343953,None,2464.6269935343953,None,c,,,,,,,,,,,,,,,,,,,,,,,,,,,,,,,,,,,,,,,,,,,,,,,41_42Exp,001,2021_May_12_1507,ComputerHuman,2020.1.3,59.99713223834501,
Computer.xlsx,c,Sychronize.jpg,Number9.jpg,9,Computer,,,,,1,0,10,5,0,5,5,7,,,,,,,,,,,,,,,,,,,,,,,,,,,,,2465.6931880991833,None,2465.6931880991833,None,2466.1438462883343,None,2466.1438462883343,None,v,8.387241059066582,2466.1438462883343,None,t,6.874788316039485,2466.1438462883343,None,8.387241059066582,6.874788316039485,8.598095615245299,False,True,False,2474.625155705402,None,2474.625155705402,None,2474.625155705402,None,2474.625155705402,None,2474.625155705402,None,2474.625155705402,None,2474.625155705402,None,2474.625155705402,None,2475.6082764859566,None,2475.6082764859566,None,2476.5911938831014,None,2476.5911938831014,None,c,,,,,,,,,,,,,,,,,,,,,,,,,,,,,,,,,,,,,,,,,,,,,,,41_42Exp,001,2021_May_12_1507,ComputerHuman,2020.1.3,59.99713223834501,
Computer.xlsx,c,Sychronize.jpg,Number7.jpg,7,Computer,,,,,1,0,10,5,0,6,6,3,,,,,,,,,,,,,,,,,,,,,,,,,,,,,2477.6579132669176,None,2477.6579132669176,None,2478.0916415511674,None,2478.0916415511674,None,v,6.61929736483944,2478.0916415511674,None,t,5.358805555511935,2478.0916415511674,None,6.61929736483944,5.358805555511935,6.7563119548659625,False,True,False,2484.8064540550768,None,2484.8064540550768,None,2484.8064540550768,None,2484.8064540550768,None,2484.8064540550768,None,2484.8064540550768,None,2484.8064540550768,None,2484.8064540550768,None,2485.8061345442256,None,2485.8061345442256,None,2486.7894211752937,None,2486.7894211752937,None,c,,,,,,,,,,,,,,,,,,,,,,,,,,,,,,,,,,,,,,,,,,,,,,,41_42Exp,001,2021_May_12_1507,ComputerHuman,2020.1.3,59.99713223834501,
Computer.xlsx,c,Sychronize.jpg,Number8.jpg,8,Computer,,,,,1,0,10,5,0,7,7,5,,,,,,,,,,,,,,,,,,,,,,,,,,,,,2487.839787441877,None,2487.839787441877,None,2488.2897424505136,None,2488.2897424505136,None,None,,2488.2897424505136,None,t,6.391781898557383,2488.2897424505136,None,13,6.391781898557383,8.499580845240803,False,False,False,2501.369941278652,None,2501.369941278652,None,2501.369941278652,None,2501.369941278652,None,2501.369941278652,None,2501.369941278652,None,2501.369941278652,None,2501.369941278652,None,2502.369703570279,None,2502.369703570279,None,2503.3528753570827,None,2503.3528753570827,None,c,,,,,,,,,,,,,,,,,,,,,,,,,,,,,,,,,,,,,,,,,,,,,,,41_42Exp,001,2021_May_12_1507,ComputerHuman,2020.1.3,59.99713223834501,
Computer.xlsx,c,Sychronize.jpg,Number10.jpg,10,Computer,,,,,1,0,10,5,0,8,8,9,,,,,,,,,,,,,,,,,,,,,,,,,,,,,2504.402966061596,None,2504.402966061596,None,2504.8529746428358,None,2504.8529746428358,None,v,9.025098604066443,2504.8529746428358,None,t,8.256754558882676,2504.8529746428358,None,9.025098604066443,8.256754558882676,9.66509526656613,False,False,False,2513.934789952091,None,2513.934789952091,None,2513.934789952091,None,2513.934789952091,None,2513.934789952091,None,2513.934789952091,None,2513.934789952091,None,2513.934789952091,None,2514.9504937822094,None,2514.9504937822094,None,2515.9504344353154,None,2515.9504344353154,None,c,,,,,,,,,,,,,,,,,,,,,,,,,,,,,,,,,,,,,,,,,,,,,,,41_42Exp,001,2021_May_12_1507,ComputerHuman,2020.1.3,59.99713223834501,
Computer.xlsx,c,Sychronize.jpg,Number7.jpg,7,Computer,,,,,1,0,10,5,0,9,9,2,,,,,,,,,,,,,,,,,,,,,,,,,,,,,2517.0007416757944,None,2517.0007416757944,None,2517.4507168944583,None,2517.4507168944583,None,v,6.123149940736766,2517.4507168944583,None,t,5.970821858263662,2517.4507168944583,None,6.123149940736766,5.970821858263662,7.17609731742433,False,False,False,2523.6496149669656,None,2523.6496149669656,None,2523.6496149669656,None,2523.6496149669656,None,2523.6496149669656,None,2523.6496149669656,None,2523.6496149669656,None,2523.6496149669656,None,2524.6654410196134,None,2524.6654410196134,None,2525.6318987958985,None,2525.6318987958985,None,c,,,,,,,,,,,,,,,,,,,,,,,,,,,,,,,,,,,,,,,,,,,,,,,41_42Exp,001,2021_May_12_1507,ComputerHuman,2020.1.3,59.99713223834501,
Computer.xlsx,c,,,,,,,,,1,0,10,5,,,,,,,,,,,,,,,,,,,,,,,,,,,,,,,,,,,,,,,,,,,,,,,,,,,,,,,,,,,,,,,,,,,,,,,,,,,,,,,c,2526.6324335595455,None,2526.6324335595455,None,a,1,39.05634554649805,2526.6324335595455,None,l,0,1.4609056336230424,2526.6324335595455,None,c,c,2565.774266223758,None,2565.774266223758,None,2567.7737430086963,None,None,None,None,None,None,None,None,,,,,,,,,,,,,,,,,,41_42Exp,001,2021_May_12_1507,ComputerHuman,2020.1.3,59.99713223834501,
Human.xlsx,h,Sychronize.jpg,Number9.jpg,9,Human,,,,,1,1,11,2,0,0,0,6,,,,,,,,,,,,,,,,,,,,,,,,,2572.7760860882845,None,2572.7760860882845,None,2575.857043915097,None,2575.857043915097,None,2576.27263322175,None,2576.27263322175,None,v,7.875696483937645,2576.27263322175,None,None,,2576.27263322175,None,7.875696483937645,13,9.652750911550385,False,False,False,2589.352857713413,None,2589.352857713413,None,2589.352857713413,None,2589.352857713413,None,2589.352857713413,None,2589.352857713413,None,2589.352857713413,None,2589.352857713413,None,2590.3546852769978,None,2590.3546852769978,None,2591.33586493288,None,2591.33586493288,None,h,,,,,,,,,,,,,,,,,,,,,,,,,,,,,,,,,,,,,,,,,,,,,,,41_42Exp,001,2021_May_12_1507,ComputerHuman,2020.1.3,59.99713223834501,
Human.xlsx,h,Sychronize.jpg,Number6.jpg,6,Human,,,,,1,1,11,2,0,1,1,0,,,,,,,,,,,,,,,,,,,,,,,,,,,,,2592.4022490869393,None,2592.4022490869393,None,2592.8359449709933,None,2592.8359449709933,None,v,5.612079499176616,2592.8359449709933,None,t,4.851767815696803,2592.8359449709933,None,5.612079499176616,4.851767815696803,6.229602456383336,False,False,False,2598.5344922552285,None,2598.5344922552285,None,2598.5344922552285,None,2598.5344922552285,None,2598.5344922552285,None,2598.5344922552285,None,2598.5344922552285,None,2598.5344922552285,None,2599.5193469275146,None,2599.5193469275146,None,2600.5174340327176,None,2600.5174340327176,None,h,,,,,,,,,,,,,,,,,,,,,,,,,,,,,,,,,,,,,,,,,,,,,,,41_42Exp,001,2021_May_12_1507,ComputerHuman,2020.1.3,59.99713223834501,
Human.xlsx,h,Sychronize.jpg,Number7.jpg,7,Human,,,,,1,1,11,2,0,2,2,3,,,,,,,,,,,,,,,,,,,,,,,,,,,,,2601.5678907632173,None,2601.5678907632173,None,2602.0175124668567,None,2602.0175124668567,None,v,6.17422067100415,2602.0175124668567,None,t,5.201765971130953,2602.0175124668567,None,6.17422067100415,5.201765971130953,6.493504220467605,False,False,False,2608.2676220982175,None,2608.2676220982175,None,2608.2676220982175,None,2608.2676220982175,None,2608.2676220982175,None,2608.2676220982175,None,2608.2676220982175,None,2608.2676220982175,None,2609.251259677956,None,2609.251259677956,None,2610.248845702885,None,2610.248845702885,None,h,,,,,,,,,,,,,,,,,,,,,,,,,,,,,,,,,,,,,,,,,,,,,,,41_42Exp,001,2021_May_12_1507,ComputerHuman,2020.1.3,59.99713223834501,
Human.xlsx,h,Sychronize.jpg,Number10.jpg,10,Human,,,,,1,1,11,2,0,3,3,9,,,,,,,,,,,,,,,,,,,,,,,,,,,,,2611.316339162695,None,2611.316339162695,None,2611.7487425676045,None,2611.7487425676045,None,v,8.614792133488663,2611.7487425676045,None,t,8.569753293351823,2611.7487425676045,None,8.614792133488663,8.569753293351823,10.031671161601421,True,False,False,2620.430668550798,None,2620.430668550798,None,2620.430668550798,None,2620.430668550798,None,2620.430668550798,None,2620.430668550798,None,2620.430668550798,None,2620.430668550798,None,2621.4321114823397,None,2621.4321114823397,None,2622.429840581408,None,2622.429840581408,None,h,,,,,,,,,,,,,,,,,,,,,,,,,,,,,,,,,,,,,,,,,,,,,,,41_42Exp,001,2021_May_12_1507,ComputerHuman,2020.1.3,59.99713223834501,
Human.xlsx,h,Sychronize.jpg,Number8.jpg,8,Human,,,,,1,1,11,2,0,4,4,4,,,,,,,,,,,,,,,,,,,,,,,,,,,,,2623.4796833121327,None,2623.4796833121327,None,2623.9298250228967,None,2623.9298250228967,None,v,6.993340636741777,2623.9298250228967,None,t,6.732721472188132,2623.9298250228967,None,6.993340636741777,6.732721472188132,8.118418899026192,True,False,False,2630.9793934747286,None,2630.9793934747286,None,2630.9793934747286,None,2630.9793934747286,None,2630.9793934747286,None,2630.9793934747286,None,2630.9793934747286,None,2630.9793934747286,None,2631.9965761653257,None,2631.9965761653257,None,2632.994478493165,None,2632.994478493165,None,h,,,,,,,,,,,,,,,,,,,,,,,,,,,,,,,,,,,,,,,,,,,,,,,41_42Exp,001,2021_May_12_1507,ComputerHuman,2020.1.3,59.99713223834501,
Human.xlsx,h,Sychronize.jpg,Number7.jpg,7,Human,,,,,1,1,11,2,0,5,5,2,,,,,,,,,,,,,,,,,,,,,,,,,,,,,2634.0440761372556,None,2634.0440761372556,None,2634.4943609221555,None,2634.4943609221555,None,v,5.824592070293875,2634.4943609221555,None,t,5.979819489202782,2634.4943609221555,None,5.824592070293875,5.979819489202782,6.739252041415658,True,False,False,2640.5596123524956,None,2640.5596123524956,None,2640.5596123524956,None,2640.5596123524956,None,2640.5596123524956,None,2640.5596123524956,None,2640.5596123524956,None,2640.5596123524956,None,2641.5441555337784,None,2641.5441555337784,None,2642.5259645875485,None,2642.5259645875485,None,h,,,,,,,,,,,,,,,,,,,,,,,,,,,,,,,,,,,,,,,,,,,,,,,41_42Exp,001,2021_May_12_1507,ComputerHuman,2020.1.3,59.99713223834501,
Human.xlsx,h,Sychronize.jpg,Number10.jpg,10,Human,,,,,1,1,11,2,0,6,6,8,,,,,,,,,,,,,,,,,,,,,,,,,,,,,2643.5771466333463,None,2643.5771466333463,None,2644.025754307062,None,2644.025754307062,None,v,8.840858893934637,2644.025754307062,None,t,8.76379711060872,2644.025754307062,None,8.840858893934637,8.76379711060872,10.516695422476028,True,False,False,2652.957123311622,None,2652.957123311622,None,2652.957123311622,None,2652.957123311622,None,2652.957123311622,None,2652.957123311622,None,2652.957123311622,None,2652.957123311622,None,2653.942744040047,None,2653.942744040047,None,2654.94024345059,None,2654.94024345059,None,h,,,,,,,,,,,,,,,,,,,,,,,,,,,,,,,,,,,,,,,,,,,,,,,41_42Exp,001,2021_May_12_1507,ComputerHuman,2020.1.3,59.99713223834501,
Human.xlsx,h,Sychronize.jpg,Number6.jpg,6,Human,,,,,1,1,11,2,0,7,7,1,,,,,,,,,,,,,,,,,,,,,,,,,,,,,2655.9747474148026,None,2655.9747474148026,None,2656.440515965118,None,2656.440515965118,None,v,5.097891902034462,2656.440515965118,None,t,4.812824382912368,2656.440515965118,None,5.097891902034462,4.812824382912368,6.271762072747803,True,False,False,2661.622262143257,None,2661.622262143257,None,2661.622262143257,None,2661.622262143257,None,2661.622262143257,None,2661.622262143257,None,2661.622262143257,None,2661.622262143257,None,2662.590933077554,None,2662.590933077554,None,2663.588498892459,None,2663.588498892459,None,h,,,,,,,,,,,,,,,,,,,,,,,,,,,,,,,,,,,,,,,,,,,,,,,41_42Exp,001,2021_May_12_1507,ComputerHuman,2020.1.3,59.99713223834501,
Human.xlsx,h,Sychronize.jpg,Number9.jpg,9,Human,,,,,1,1,11,2,0,8,8,7,,,,,,,,,,,,,,,,,,,,,,,,,,,,,2664.657079202443,None,2664.657079202443,None,2665.0888086190935,None,2665.0888086190935,None,v,7.725325245046406,2665.0888086190935,None,t,7.444616995988326,2665.0888086190935,None,7.725325245046406,7.444616995988326,9.415150973816392,True,False,False,2672.9032635980584,None,2672.9032635980584,None,2672.9032635980584,None,2672.9032635980584,None,2672.9032635980584,None,2672.9032635980584,None,2672.9032635980584,None,2672.9032635980584,None,2673.888575722627,None,2673.888575722627,None,2674.86968352065,None,2674.86968352065,None,h,,,,,,,,,,,,,,,,,,,,,,,,,,,,,,,,,,,,,,,,,,,,,,,41_42Exp,001,2021_May_12_1507,ComputerHuman,2020.1.3,59.99713223834501,
Human.xlsx,h,Sychronize.jpg,Number8.jpg,8,Human,,,,,1,1,11,2,0,9,9,5,,,,,,,,,,,,,,,,,,,,,,,,,,,,,2675.9379080700564,None,2675.9379080700564,None,2676.3696920216935,None,2676.3696920216935,None,v,6.552113150468358,2676.3696920216935,None,t,6.379794467266038,2676.3696920216935,None,6.552113150468358,6.379794467266038,8.244039712442982,True,False,False,2683.001600762207,None,2683.001600762207,None,2683.001600762207,None,2683.001600762207,None,2683.001600762207,None,2683.001600762207,None,2683.001600762207,None,2683.001600762207,None,2684.0032528514566,None,2684.0032528514566,None,2685.001086529377,None,2685.001086529377,None,h,,,,,,,,,,,,,,,,,,,,,,,,,,,,,,,,,,,,,,,,,,,,,,,41_42Exp,001,2021_May_12_1507,ComputerHuman,2020.1.3,59.99713223834501,
Human.xlsx,h,,,,,,,,,1,1,11,2,,,,,,,,,,,,,,,,,,,,,,,,,,,,,,,,,,,,,,,,,,,,,,,,,,,,,,,,,,,,,,,,,,,,,,,,,,,,,,,h,2686.001706303443,None,2686.001706303443,None,q,0,5.031919968307193,2686.001706303443,None,o,1,68.19722801879107,2686.001706303443,None,h,h,2754.287703483664,None,2754.287703483664,None,2756.2872886969817,None,None,None,None,None,None,None,None,,,,,,,,,,,,,,,,,,41_42Exp,001,2021_May_12_1507,ComputerHuman,2020.1.3,59.99713223834501,
Human.xlsx,h,Sychronize.jpg,Number7.jpg,7,Human,,,,,1,2,12,4,0,0,0,2,,,,,,,,,,,,,,,,,,,,,,,,,2761.2718437476433,None,2761.2718437476433,None,2764.36886533548,None,2764.36886533548,None,2764.7858051849944,None,2764.7858051849944,None,None,,2764.7858051849944,None,t,5.296841301587847,2764.7858051849944,None,13,5.296841301587847,7.184407941422173,False,False,False,2777.8664014769347,None,2777.8664014769347,None,2777.8664014769347,None,2777.8664014769347,None,2777.8664014769347,None,2777.8664014769347,None,2777.8664014769347,None,2777.8664014769347,None,2778.852014827102,None,2778.852014827102,None,2779.849338442513,None,2779.849338442513,None,h,,,,,,,,,,,,,,,,,,,,,,,,,,,,,,,,,,,,,,,,,,,,,,,41_42Exp,001,2021_May_12_1507,ComputerHuman,2020.1.3,59.99713223834501,
