Condition,CorrectTuringReply,Sychronize,NumberImage,Number,Partner,trials.thisRepN,trials.thisTrialN,trials.thisN,trials.thisIndex,Block.thisRepN,Block.thisTrialN,Block.thisN,Block.thisIndex,trials_loop.thisRepN,trials_loop.thisTrialN,trials_loop.thisN,trials_loop.thisIndex,key_resp_Istr.keys,key_resp_Istr.rt,key_resp_Istr.started,key_resp_Istr.stopped,key_respPrLeft.keys,key_respPrLeft.rt,key_respPrRight.keys,key_respPrRight.rt,RTPrLeft,RTPrRight,CompPr,SychronizedRTsPr,SychronizedRTsLeftCPr,SychronizedRTsRightCPr,CreditLeftPr.started,CreditLeftPr.stopped,CreditRightPr.started,CreditRightPr.stopped,text_StartExp.started,text_StartExp.stopped,key_startExp.keys,key_startExp.rt,key_startExp.started,key_startExp.stopped,SychroLeft.started,SychroLeft.stopped,SychroRight.started,SychroRight.stopped,NumberLeft.started,NumberLeft.stopped,NumberRight.started,NumberRight.stopped,CrossLeft.started,CrossLeft.stopped,CrossRight.started,CrossRight.stopped,key_respLeft.keys,key_respLeft.rt,key_respLeft.started,key_respLeft.stopped,key_respRight.keys,key_respRight.rt,key_respRight.started,key_respRight.stopped,RTLeft,RTRight,Comp,SychronizedRTs,SychronizedRTsLeftC,SychronizedRTsRightC,FeedbackLeftLeft.started,FeedbackLeftLeft.stopped,FeedbackLeftRight.started,FeedbackLeftRight.stopped,FeedbackRightLeft.started,FeedbackRightLeft.stopped,FeedbackRightRight.started,FeedbackRightRight.stopped,textLeftLeft.started,textLeftLeft.stopped,textLeftRight.started,textLeftRight.stopped,textRightLeft.started,textRightLeft.stopped,textRightRight.started,textRightRight.stopped,CreditLeft.started,CreditLeft.stopped,CreditRight.started,CreditRight.stopped,BlankLeft.started,BlankLeft.stopped,BlankRight.started,BlankRight.stopped,CorrectTuringReply,TuringtextLeft.started,TuringtextLeft.stopped,TuringtextRight.started,TuringtextRight.stopped,keyTuringLeft.keys,keyTuringLeft.corr,keyTuringLeft.rt,keyTuringLeft.started,keyTuringLeft.stopped,keyTuringRight.keys,keyTuringRight.corr,keyTuringRight.rt,keyTuringRight.started,keyTuringRight.stopped,RespTuringLeft,RespTuringRight,ScoreLeft.started,ScoreLeft.stopped,ScoreRight.started,ScoreRight.stopped,BlockText.started,BlockText.stopped,text_Pause.started,text_Pause.stopped,text_LongPause.started,text_LongPause.stopped,key_respPause.keys,key_respPause.started,key_respPause.stopped,key_respPause.rt,QuestImageLeft.started,QuestImageLeft.stopped,QuestImageRight.started,QuestImageRight.stopped,respQuestLeft.keys,respQuestLeft.rt,respQuestLeft.started,respQuestLeft.stopped,respQuestRight.keys,respQuestRight.rt,respQuestRight.started,respQuestRight.stopped,RespInclusionLeft,RespInclusionRight,EndText.started,EndText.stopped,participant,session,date,expName,psychopyVersion,frameRate,
,,,,,,,,,,,,,,,,,,"['t', 'v']","[295.35963994078145, 316.2350708072621]",18.271040800188644,None,,,,,,,,,,,,,,,,,,,,,,,,,,,,,,,,,,,,,,,,,,,,,,,,,,,,,,,,,,,,,,,,,,,,,,,,,,,,,,,,,,,,,,,,,,,,,,,,,,,,,,,,,,,,,,,,,,,,,,43_44Exp,001,2021_May_13_1503,ComputerHuman,2020.1.3,60.01087688900545,
,,,,,,,,,,,,,,,,,,,,,,v,5.876084003124561,t,4.379536228071629,5.876084003124561,4.379536228071629,6,False,False,False,388.3326685411731,None,388.3326685411731,None,389.3491499760206,None,"['space', 'space']","[90.40234340038455, 100.48614506626791]",390.3321052268576,None,,,,,,,,,,,,,,,,,,,,,,,,,,,,,,,,,,,,,,,,,,,,,,,,,,,,,,,,,,,,,,,,,,,,,,,,,,,,,,,,,,,,,,,,,,,,,,,,,,43_44Exp,001,2021_May_13_1503,ComputerHuman,2020.1.3,60.01087688900545,
Human.xlsx,h,Sychronize.jpg,Number7.jpg,7,Human,,,,,0,0,0,0,0,0,0,2,,,,,,,,,,,,,,,,,,,,,,,,,490.91547975549076,None,490.91547975549076,None,493.9462179185922,None,493.9462179185922,None,494.3960109262447,None,494.3960109262447,None,v,4.242027546583358,494.3960109262447,None,t,4.293603848245084,494.3960109262447,None,4.242027546583358,4.293603848245084,7.311616632988676,True,False,False,498.7630907221554,None,498.7630907221554,None,498.7630907221554,None,498.7630907221554,None,498.7630907221554,None,498.7630907221554,None,498.7630907221554,None,498.7630907221554,None,499.76345835211316,None,499.76345835211316,None,500.76097701029596,None,500.76097701029596,None,h,,,,,,,,,,,,,,,,,,,,,,,,,,,,,,,,,,,,,,,,,,,,,,,43_44Exp,001,2021_May_13_1503,ComputerHuman,2020.1.3,60.01087688900545,
Human.xlsx,h,Sychronize.jpg,Number10.jpg,10,Human,,,,,0,0,0,0,0,1,1,8,,,,,,,,,,,,,,,,,,,,,,,,,,,,,501.7945115349513,None,501.7945115349513,None,502.26087355422135,None,502.26087355422135,None,v,4.984944494613046,502.26087355422135,None,t,5.232531722519525,502.26087355422135,None,4.984944494613046,5.232531722519525,10.718252270575173,True,False,False,507.5600050043869,None,507.5600050043869,None,507.5600050043869,None,507.5600050043869,None,507.5600050043869,None,507.5600050043869,None,507.5600050043869,None,507.5600050043869,None,508.56141810208635,None,508.56141810208635,None,509.5592488928597,None,509.5592488928597,None,h,,,,,,,,,,,,,,,,,,,,,,,,,,,,,,,,,,,,,,,,,,,,,,,43_44Exp,001,2021_May_13_1503,ComputerHuman,2020.1.3,60.01087688900545,
Human.xlsx,h,Sychronize.jpg,Number7.jpg,7,Human,,,,,0,0,0,0,0,2,2,3,,,,,,,,,,,,,,,,,,,,,,,,,,,,,510.6091281941061,None,510.6091281941061,None,511.059177195394,None,511.059177195394,None,v,3.958455248430937,511.059177195394,None,t,3.62557883272666,511.059177195394,None,3.958455248430937,3.62557883272666,7.328911354027358,False,False,False,515.0916210203496,None,515.0916210203496,None,515.0916210203496,None,515.0916210203496,None,515.0916210203496,None,515.0916210203496,None,515.0916210203496,None,515.0916210203496,None,516.0770216840725,None,516.0770216840725,None,517.0744611061299,None,517.0744611061299,None,h,,,,,,,,,,,,,,,,,,,,,,,,,,,,,,,,,,,,,,,,,,,,,,,43_44Exp,001,2021_May_13_1503,ComputerHuman,2020.1.3,60.01087688900545,
Human.xlsx,h,Sychronize.jpg,Number9.jpg,9,Human,,,,,0,0,0,0,0,3,3,6,,,,,,,,,,,,,,,,,,,,,,,,,,,,,518.1420437466819,None,518.1420437466819,None,518.5746476478581,None,518.5746476478581,None,v,4.778792948305636,518.5746476478581,None,t,4.713548575434061,518.5746476478581,None,4.778792948305636,4.713548575434061,8.436843406646512,True,False,False,523.4398769434105,None,523.4398769434105,None,523.4398769434105,None,523.4398769434105,None,523.4398769434105,None,523.4398769434105,None,523.4398769434105,None,523.4398769434105,None,524.4248778977727,None,524.4248778977727,None,525.4229008441695,None,525.4229008441695,None,h,,,,,,,,,,,,,,,,,,,,,,,,,,,,,,,,,,,,,,,,,,,,,,,43_44Exp,001,2021_May_13_1503,ComputerHuman,2020.1.3,60.01087688900545,
Human.xlsx,h,Sychronize.jpg,Number9.jpg,9,Human,,,,,0,0,0,0,0,4,4,7,,,,,,,,,,,,,,,,,,,,,,,,,,,,,526.473466965433,None,526.473466965433,None,526.9227582512234,None,526.9227582512234,None,v,4.570358310891152,526.9227582512234,None,t,5.22955764107337,526.9227582512234,None,4.570358310891152,5.22955764107337,9.492720325225097,False,False,False,532.2221931725406,None,532.2221931725406,None,532.2221931725406,None,532.2221931725406,None,532.2221931725406,None,532.2221931725406,None,532.2221931725406,None,532.2221931725406,None,533.2068714081094,None,533.2068714081094,None,534.2044580746264,None,534.2044580746264,None,h,,,,,,,,,,,,,,,,,,,,,,,,,,,,,,,,,,,,,,,,,,,,,,,43_44Exp,001,2021_May_13_1503,ComputerHuman,2020.1.3,60.01087688900545,
Human.xlsx,h,Sychronize.jpg,Number6.jpg,6,Human,,,,,0,0,0,0,0,5,5,1,,,,,,,,,,,,,,,,,,,,,,,,,,,,,535.2712833204749,None,535.2712833204749,None,535.7045352255903,None,535.7045352255903,None,v,4.716441816784936,535.7045352255903,None,t,3.323583012672998,535.7045352255903,None,4.716441816784936,3.323583012672998,6.258038843799828,False,False,False,540.5039632498361,None,540.5039632498361,None,540.5039632498361,None,540.5039632498361,None,540.5039632498361,None,540.5039632498361,None,540.5039632498361,None,540.5039632498361,None,541.5059749491942,None,541.5059749491942,None,542.5029004592167,None,542.5029004592167,None,h,,,,,,,,,,,,,,,,,,,,,,,,,,,,,,,,,,,,,,,,,,,,,,,43_44Exp,001,2021_May_13_1503,ComputerHuman,2020.1.3,60.01087688900545,
Human.xlsx,h,Sychronize.jpg,Number8.jpg,8,Human,,,,,0,0,0,0,0,6,6,4,,,,,,,,,,,,,,,,,,,,,,,,,,,,,543.553444766486,None,543.553444766486,None,544.0031460270462,None,544.0031460270462,None,v,5.821642369192205,544.0031460270462,None,t,4.5605314273889235,544.0031460270462,None,5.821642369192205,4.5605314273889235,7.954544743628586,False,False,False,549.9019566831822,None,549.9019566831822,None,549.9019566831822,None,549.9019566831822,None,549.9019566831822,None,549.9019566831822,None,549.9019566831822,None,549.9019566831822,None,550.8862262271574,None,550.8862262271574,None,551.884343486999,None,551.884343486999,None,h,,,,,,,,,,,,,,,,,,,,,,,,,,,,,,,,,,,,,,,,,,,,,,,43_44Exp,001,2021_May_13_1503,ComputerHuman,2020.1.3,60.01087688900545,
Human.xlsx,h,Sychronize.jpg,Number6.jpg,6,Human,,,,,0,0,0,0,0,7,7,0,,,,,,,,,,,,,,,,,,,,,,,,,,,,,552.9510731362269,None,552.9510731362269,None,553.3846227382015,None,553.3846227382015,None,v,4.471946401733476,553.3846227382015,None,t,3.303478850851434,553.3846227382015,None,4.471946401733476,3.303478850851434,5.706277968530695,False,False,False,557.9335619525449,None,557.9335619525449,None,557.9335619525449,None,557.9335619525449,None,557.9335619525449,None,557.9335619525449,None,557.9335619525449,None,557.9335619525449,None,558.9354860751331,None,558.9354860751331,None,559.9328735285579,None,559.9328735285579,None,h,,,,,,,,,,,,,,,,,,,,,,,,,,,,,,,,,,,,,,,,,,,,,,,43_44Exp,001,2021_May_13_1503,ComputerHuman,2020.1.3,60.01087688900545,
Human.xlsx,h,Sychronize.jpg,Number10.jpg,10,Human,,,,,0,0,0,0,0,8,8,9,,,,,,,,,,,,,,,,,,,,,,,,,,,,,560.9830582257204,None,560.9830582257204,None,561.4328432135222,None,561.4328432135222,None,v,5.123522061807307,561.4328432135222,None,t,6.418415181256478,561.4328432135222,None,5.123522061807307,6.418415181256478,9.349822570435713,False,False,False,567.9479797194016,None,567.9479797194016,None,567.9479797194016,None,567.9479797194016,None,567.9479797194016,None,567.9479797194016,None,567.9479797194016,None,567.9479797194016,None,568.9169913369573,None,568.9169913369573,None,569.914192409051,None,569.914192409051,None,h,,,,,,,,,,,,,,,,,,,,,,,,,,,,,,,,,,,,,,,,,,,,,,,43_44Exp,001,2021_May_13_1503,ComputerHuman,2020.1.3,60.01087688900545,
Human.xlsx,h,Sychronize.jpg,Number8.jpg,8,Human,,,,,0,0,0,0,0,9,9,5,,,,,,,,,,,,,,,,,,,,,,,,,,,,,570.9812133392574,None,570.9812133392574,None,571.4143093384747,None,571.4143093384747,None,v,4.1818424163489,571.4143093384747,None,t,5.1255539711896745,571.4143093384747,None,4.1818424163489,5.1255539711896745,8.072069048053512,False,False,False,576.6295582826614,None,576.6295582826614,None,576.6295582826614,None,576.6295582826614,None,576.6295582826614,None,576.6295582826614,None,576.6295582826614,None,576.6295582826614,None,577.6147231627725,None,577.6147231627725,None,578.6126097717071,None,578.6126097717071,None,h,,,,,,,,,,,,,,,,,,,,,,,,,,,,,,,,,,,,,,,,,,,,,,,43_44Exp,001,2021_May_13_1503,ComputerHuman,2020.1.3,60.01087688900545,
Human.xlsx,h,,,,,,,,,0,0,0,0,,,,,,,,,,,,,,,,,,,,,,,,,,,,,,,,,,,,,,,,,,,,,,,,,,,,,,,,,,,,,,,,,,,,,,,,,,,,,,,h,579.6131256085063,None,579.6131256085063,None,q,1,18.87441298702538,579.6131256085063,None,o,0,10.306465122471081,579.6131256085063,None,h,h,598.5753829077734,None,598.5753829077734,None,600.5583160238222,None,None,None,None,None,None,None,None,,,,,,,,,,,,,,,,,,43_44Exp,001,2021_May_13_1503,ComputerHuman,2020.1.3,60.01087688900545,
Computer.xlsx,c,Sychronize.jpg,Number9.jpg,9,Computer,,,,,0,1,1,7,0,0,0,7,,,,,,,,,,,,,,,,,,,,,,,,,605.5766538937177,None,605.5766538937177,None,608.6407982638628,None,608.6407982638628,None,609.0906012161303,None,609.0906012161303,None,v,5.564536861639908,609.0906012161303,None,t,5.107531762618919,609.0906012161303,None,5.564536861639908,5.107531762618919,9.616181197855367,False,False,False,614.7227819899816,None,614.7227819899816,None,614.7227819899816,None,614.7227819899816,None,614.7227819899816,None,614.7227819899816,None,614.7227819899816,None,614.7227819899816,None,615.7553499622264,None,615.7553499622264,None,616.7219825712604,None,616.7219825712604,None,c,,,,,,,,,,,,,,,,,,,,,,,,,,,,,,,,,,,,,,,,,,,,,,,43_44Exp,001,2021_May_13_1503,ComputerHuman,2020.1.3,60.01087688900545,
Computer.xlsx,c,Sychronize.jpg,Number9.jpg,9,Computer,,,,,0,1,1,7,0,1,1,6,,,,,,,,,,,,,,,,,,,,,,,,,,,,,617.7715073951043,None,617.7715073951043,None,618.2220918016275,None,618.2220918016275,None,v,5.728785008653404,618.2220918016275,None,t,5.6405047373257275,618.2220918016275,None,5.728785008653404,5.6405047373257275,9.265262933853808,False,False,False,624.0210184248052,None,624.0210184248052,None,624.0210184248052,None,624.0210184248052,None,624.0210184248052,None,624.0210184248052,None,624.0210184248052,None,624.0210184248052,None,625.0369387908953,None,625.0369387908953,None,626.0200050364664,None,626.0200050364664,None,c,,,,,,,,,,,,,,,,,,,,,,,,,,,,,,,,,,,,,,,,,,,,,,,43_44Exp,001,2021_May_13_1503,ComputerHuman,2020.1.3,60.01087688900545,
Computer.xlsx,c,Sychronize.jpg,Number8.jpg,8,Computer,,,,,0,1,1,7,0,2,2,4,,,,,,,,,,,,,,,,,,,,,,,,,,,,,627.0703440355568,None,627.0703440355568,None,627.5198563484338,None,627.5198563484338,None,v,6.76282799184537,627.5198563484338,None,t,5.362520350371142,627.5198563484338,None,6.76282799184537,5.362520350371142,7.770280683487515,False,False,False,634.3534502199844,None,634.3534502199844,None,634.3534502199844,None,634.3534502199844,None,634.3534502199844,None,634.3534502199844,None,634.3534502199844,None,634.3534502199844,None,635.351578707617,None,635.351578707617,None,636.3347084704061,None,636.3347084704061,None,c,,,,,,,,,,,,,,,,,,,,,,,,,,,,,,,,,,,,,,,,,,,,,,,43_44Exp,001,2021_May_13_1503,ComputerHuman,2020.1.3,60.01087688900545,
Computer.xlsx,c,Sychronize.jpg,Number10.jpg,10,Computer,,,,,0,1,1,7,0,3,3,8,,,,,,,,,,,,,,,,,,,,,,,,,,,,,637.3848684664282,None,637.3848684664282,None,637.8349209964505,None,637.8349209964505,None,v,7.9794396690688245,637.8349209964505,None,t,7.4024598486173545,637.8349209964505,None,7.9794396690688245,7.4024598486173545,10.029462523874725,False,False,False,645.8843874357812,None,645.8843874357812,None,645.8843874357812,None,645.8843874357812,None,645.8843874357812,None,645.8843874357812,None,645.8843874357812,None,645.8843874357812,None,646.8993341919921,None,646.8993341919921,None,647.865891093635,None,647.865891093635,None,c,,,,,,,,,,,,,,,,,,,,,,,,,,,,,,,,,,,,,,,,,,,,,,,43_44Exp,001,2021_May_13_1503,ComputerHuman,2020.1.3,60.01087688900545,
Computer.xlsx,c,Sychronize.jpg,Number6.jpg,6,Computer,,,,,0,1,1,7,0,4,4,1,,,,,,,,,,,,,,,,,,,,,,,,,,,,,648.9168822669873,None,648.9168822669873,None,649.3659926249453,None,649.3659926249453,None,v,5.96809992092426,649.3659926249453,None,t,4.311571842624744,649.3659926249453,None,5.96809992092426,4.311571842624744,5.819348359307369,False,True,False,655.4310156499367,None,655.4310156499367,None,655.4310156499367,None,655.4310156499367,None,655.4310156499367,None,655.4310156499367,None,655.4310156499367,None,655.4310156499367,None,656.4308225319311,None,656.4308225319311,None,657.4140058673228,None,657.4140058673228,None,c,,,,,,,,,,,,,,,,,,,,,,,,,,,,,,,,,,,,,,,,,,,,,,,43_44Exp,001,2021_May_13_1503,ComputerHuman,2020.1.3,60.01087688900545,
Computer.xlsx,c,Sychronize.jpg,Number8.jpg,8,Computer,,,,,0,1,1,7,0,5,5,5,,,,,,,,,,,,,,,,,,,,,,,,,,,,,658.4634732690355,None,658.4634732690355,None,658.9139498887647,None,658.9139498887647,None,v,7.599906648937576,658.9139498887647,None,t,5.295531178773672,658.9139498887647,None,7.599906648937576,5.295531178773672,8.32641154524971,False,False,False,666.5960513462925,None,666.5960513462925,None,666.5960513462925,None,666.5960513462925,None,666.5960513462925,None,666.5960513462925,None,666.5960513462925,None,666.5960513462925,None,667.5953391835473,None,667.5953391835473,None,668.5784577185449,None,668.5784577185449,None,c,,,,,,,,,,,,,,,,,,,,,,,,,,,,,,,,,,,,,,,,,,,,,,,43_44Exp,001,2021_May_13_1503,ComputerHuman,2020.1.3,60.01087688900545,
Computer.xlsx,c,Sychronize.jpg,Number6.jpg,6,Computer,,,,,0,1,1,7,0,6,6,0,,,,,,,,,,,,,,,,,,,,,,,,,,,,,669.6463306776935,None,669.6463306776935,None,670.0786663950611,None,670.0786663950611,None,v,6.194971874383555,670.0786663950611,None,t,5.230517136014896,670.0786663950611,None,6.194971874383555,5.230517136014896,5.983382322989442,False,True,False,676.3438206248105,None,676.3438206248105,None,676.3438206248105,None,676.3438206248105,None,676.3438206248105,None,676.3438206248105,None,676.3438206248105,None,676.3438206248105,None,677.3600794286018,None,677.3600794286018,None,678.3432813700473,None,678.3432813700473,None,c,,,,,,,,,,,,,,,,,,,,,,,,,,,,,,,,,,,,,,,,,,,,,,,43_44Exp,001,2021_May_13_1503,ComputerHuman,2020.1.3,60.01087688900545,
Computer.xlsx,c,Sychronize.jpg,Number10.jpg,10,Computer,,,,,0,1,1,7,0,7,7,9,,,,,,,,,,,,,,,,,,,,,,,,,,,,,679.3929637037596,None,679.3929637037596,None,679.8432350153099,None,679.8432350153099,None,v,7.738131021905247,679.8432350153099,None,t,9.34942585888598,679.8432350153099,None,7.738131021905247,9.34942585888598,9.828160922823658,False,False,False,689.2757949677042,None,689.2757949677042,None,689.2757949677042,None,689.2757949677042,None,689.2757949677042,None,689.2757949677042,None,689.2757949677042,None,689.2757949677042,None,690.2908280175089,None,690.2908280175089,None,691.2741261971634,None,691.2741261971634,None,c,,,,,,,,,,,,,,,,,,,,,,,,,,,,,,,,,,,,,,,,,,,,,,,43_44Exp,001,2021_May_13_1503,ComputerHuman,2020.1.3,60.01087688900545,
Computer.xlsx,c,Sychronize.jpg,Number7.jpg,7,Computer,,,,,0,1,1,7,0,8,8,2,,,,,,,,,,,,,,,,,,,,,,,,,,,,,692.3242432067856,None,692.3242432067856,None,692.7742264452974,None,692.7742264452974,None,v,7.634800698689332,692.7742264452974,None,t,7.354392712843037,692.7742264452974,None,7.634800698689332,7.354392712843037,6.858195453413216,False,False,False,700.4890902762519,None,700.4890902762519,None,700.4890902762519,None,700.4890902762519,None,700.4890902762519,None,700.4890902762519,None,700.4890902762519,None,700.4890902762519,None,701.4888208092672,None,701.4888208092672,None,702.4718835261039,None,702.4718835261039,None,c,,,,,,,,,,,,,,,,,,,,,,,,,,,,,,,,,,,,,,,,,,,,,,,43_44Exp,001,2021_May_13_1503,ComputerHuman,2020.1.3,60.01087688900545,
Computer.xlsx,c,Sychronize.jpg,Number7.jpg,7,Computer,,,,,0,1,1,7,0,9,9,3,,,,,,,,,,,,,,,,,,,,,,,,,,,,,703.5387870456956,None,703.5387870456956,None,703.9722102548227,None,703.9722102548227,None,v,6.536545978606455,703.9722102548227,None,t,5.215509428938731,703.9722102548227,None,6.536545978606455,5.215509428938731,6.725180657514631,False,True,False,710.603710945332,None,710.603710945332,None,710.603710945332,None,710.603710945332,None,710.603710945332,None,710.603710945332,None,710.603710945332,None,710.603710945332,None,711.6035085242994,None,711.6035085242994,None,712.5866649129927,None,712.5866649129927,None,c,,,,,,,,,,,,,,,,,,,,,,,,,,,,,,,,,,,,,,,,,,,,,,,43_44Exp,001,2021_May_13_1503,ComputerHuman,2020.1.3,60.01087688900545,
Computer.xlsx,c,,,,,,,,,0,1,1,7,,,,,,,,,,,,,,,,,,,,,,,,,,,,,,,,,,,,,,,,,,,,,,,,,,,,,,,,,,,,,,,,,,,,,,,,,,,,,,,c,713.5868346130343,None,713.5868346130343,None,q,0,8.609644993287247,713.5868346130343,None,l,0,3.3084662356263834,713.5868346130343,None,h,c,722.2682845378882,None,722.2682845378882,None,724.2843832654588,None,None,None,None,None,None,None,None,,,,,,,,,,,,,,,,,,43_44Exp,001,2021_May_13_1503,ComputerHuman,2020.1.3,60.01087688900545,
Computer.xlsx,c,Sychronize.jpg,Number6.jpg,6,Computer,,,,,0,2,2,5,0,0,0,0,,,,,,,,,,,,,,,,,,,,,,,,,729.2864632939453,None,729.2864632939453,None,732.3336816087179,None,732.3336816087179,None,732.7830771525681,None,732.7830771525681,None,v,5.505020266162774,732.7830771525681,None,t,4.452485752735129,732.7830771525681,None,5.505020266162774,4.452485752735129,5.79360570374536,False,True,False,738.3816608469284,None,738.3816608469284,None,738.3816608469284,None,738.3816608469284,None,738.3816608469284,None,738.3816608469284,None,738.3816608469284,None,738.3816608469284,None,739.3980649704148,None,739.3980649704148,None,740.3812303413409,None,740.3812303413409,None,c,,,,,,,,,,,,,,,,,,,,,,,,,,,,,,,,,,,,,,,,,,,,,,,43_44Exp,001,2021_May_13_1503,ComputerHuman,2020.1.3,60.01087688900545,
Computer.xlsx,c,Sychronize.jpg,Number10.jpg,10,Computer,,,,,0,2,2,5,0,1,1,9,,,,,,,,,,,,,,,,,,,,,,,,,,,,,741.4316318952673,None,741.4316318952673,None,741.8814531327943,None,741.8814531327943,None,v,8.886328560452966,741.8814531327943,None,t,8.31739104631788,741.8814531327943,None,8.886328560452966,8.31739104631788,10.669910988404556,False,False,False,750.8625747249592,None,750.8625747249592,None,750.8625747249592,None,750.8625747249592,None,750.8625747249592,None,750.8625747249592,None,750.8625747249592,None,750.8625747249592,None,751.8457153947451,None,751.8457153947451,None,752.828812115749,None,752.828812115749,None,c,,,,,,,,,,,,,,,,,,,,,,,,,,,,,,,,,,,,,,,,,,,,,,,43_44Exp,001,2021_May_13_1503,ComputerHuman,2020.1.3,60.01087688900545,
Computer.xlsx,c,Sychronize.jpg,Number8.jpg,8,Computer,,,,,0,2,2,5,0,2,2,4,,,,,,,,,,,,,,,,,,,,,,,,,,,,,753.8965002975366,None,753.8965002975366,None,754.3288228623488,None,754.3288228623488,None,v,6.866678642977149,754.3288228623488,None,t,8.11349275727298,754.3288228623488,None,6.866678642977149,8.11349275727298,8.236940847832434,False,False,True,762.5117659230126,None,762.5117659230126,None,762.5117659230126,None,762.5117659230126,None,762.5117659230126,None,762.5117659230126,None,762.5117659230126,None,762.5117659230126,None,763.5267611191222,None,763.5267611191222,None,764.4930697261863,None,764.4930697261863,None,c,,,,,,,,,,,,,,,,,,,,,,,,,,,,,,,,,,,,,,,,,,,,,,,43_44Exp,001,2021_May_13_1503,ComputerHuman,2020.1.3,60.01087688900545,
Computer.xlsx,c,Sychronize.jpg,Number7.jpg,7,Computer,,,,,0,2,2,5,0,3,3,3,,,,,,,,,,,,,,,,,,,,,,,,,,,,,765.5439723603864,None,765.5439723603864,None,765.9933422407142,None,765.9933422407142,None,v,7.149859251619773,765.9933422407142,None,t,6.753485507327696,765.9933422407142,None,7.149859251619773,6.753485507327696,6.757682641710897,False,False,True,773.2264632618659,None,773.2264632618659,None,773.2264632618659,None,773.2264632618659,None,773.2264632618659,None,773.2264632618659,None,773.2264632618659,None,773.2264632618659,None,774.2413208373367,None,774.2413208373367,None,775.2245439511879,None,775.2245439511879,None,c,,,,,,,,,,,,,,,,,,,,,,,,,,,,,,,,,,,,,,,,,,,,,,,43_44Exp,001,2021_May_13_1503,ComputerHuman,2020.1.3,60.01087688900545,
Computer.xlsx,c,Sychronize.jpg,Number9.jpg,9,Computer,,,,,0,2,2,5,0,4,4,7,,,,,,,,,,,,,,,,,,,,,,,,,,,,,776.2747620109295,None,776.2747620109295,None,776.7245935138657,None,776.7245935138657,None,v,7.566323363589618,776.7245935138657,None,t,8.96942768741178,776.7245935138657,None,7.566323363589618,8.96942768741178,8.3943964641411,False,False,False,785.7559212963928,None,785.7559212963928,None,785.7559212963928,None,785.7559212963928,None,785.7559212963928,None,785.7559212963928,None,785.7559212963928,None,785.7559212963928,None,786.772114658202,None,786.772114658202,None,787.7553281482325,None,787.7553281482325,None,c,,,,,,,,,,,,,,,,,,,,,,,,,,,,,,,,,,,,,,,,,,,,,,,43_44Exp,001,2021_May_13_1503,ComputerHuman,2020.1.3,60.01087688900545,
Computer.xlsx,c,Sychronize.jpg,Number8.jpg,8,Computer,,,,,0,2,2,5,0,5,5,5,,,,,,,,,,,,,,,,,,,,,,,,,,,,,788.8222191568572,None,788.8222191568572,None,789.2724558226522,None,789.2724558226522,None,v,7.678129385855982,789.2724558226522,None,t,7.345437747512733,789.2724558226522,None,7.678129385855982,7.345437747512733,7.406945132555801,False,True,True,797.0369169769014,None,797.0369169769014,None,797.0369169769014,None,797.0369169769014,None,797.0369169769014,None,797.0369169769014,None,797.0369169769014,None,797.0369169769014,None,798.0367222549254,None,798.0367222549254,None,799.0032403404908,None,799.0032403404908,None,c,,,,,,,,,,,,,,,,,,,,,,,,,,,,,,,,,,,,,,,,,,,,,,,43_44Exp,001,2021_May_13_1503,ComputerHuman,2020.1.3,60.01087688900545,
Computer.xlsx,c,Sychronize.jpg,Number6.jpg,6,Computer,,,,,0,2,2,5,0,6,6,1,,,,,,,,,,,,,,,,,,,,,,,,,,,,,800.0701355194377,None,800.0701355194377,None,800.5035728435022,None,800.5035728435022,None,v,6.806823930593055,800.5035728435022,None,t,6.126495501665659,800.5035728435022,None,6.806823930593055,6.126495501665659,5.718956038544258,False,False,False,807.4017146440871,None,807.4017146440871,None,807.4017146440871,None,807.4017146440871,None,807.4017146440871,None,807.4017146440871,None,807.4017146440871,None,807.4017146440871,None,808.40126585324,None,808.40126585324,None,809.3846015657956,None,809.3846015657956,None,c,,,,,,,,,,,,,,,,,,,,,,,,,,,,,,,,,,,,,,,,,,,,,,,43_44Exp,001,2021_May_13_1503,ComputerHuman,2020.1.3,60.01087688900545,
Computer.xlsx,c,Sychronize.jpg,Number10.jpg,10,Computer,,,,,0,2,2,5,0,7,7,8,,,,,,,,,,,,,,,,,,,,,,,,,,,,,810.4344321063496,None,810.4344321063496,None,810.8847672559119,None,810.8847672559119,None,v,9.525245367333127,810.8847672559119,None,t,9.084362734640763,810.8847672559119,None,9.525245367333127,9.084362734640763,9.941702782482235,False,False,False,820.4663642648283,None,820.4663642648283,None,820.4663642648283,None,820.4663642648283,None,820.4663642648283,None,820.4663642648283,None,820.4663642648283,None,820.4663642648283,None,821.4820228629904,None,821.4820228629904,None,822.4820684157427,None,822.4820684157427,None,c,,,,,,,,,,,,,,,,,,,,,,,,,,,,,,,,,,,,,,,,,,,,,,,43_44Exp,001,2021_May_13_1503,ComputerHuman,2020.1.3,60.01087688900545,
Computer.xlsx,c,Sychronize.jpg,Number9.jpg,9,Computer,,,,,0,2,2,5,0,8,8,6,,,,,,,,,,,,,,,,,,,,,,,,,,,,,823.5321228705292,None,823.5321228705292,None,823.98235440362,None,823.98235440362,None,v,9.047426189303906,823.98235440362,None,t,8.738461118961595,823.98235440362,None,9.047426189303906,8.738461118961595,8.876760568881105,False,True,True,833.1131052380853,None,833.1131052380853,None,833.1131052380853,None,833.1131052380853,None,833.1131052380853,None,833.1131052380853,None,833.1131052380853,None,833.1131052380853,None,834.0965221115306,None,834.0965221115306,None,835.0796342306477,None,835.0796342306477,None,c,,,,,,,,,,,,,,,,,,,,,,,,,,,,,,,,,,,,,,,,,,,,,,,43_44Exp,001,2021_May_13_1503,ComputerHuman,2020.1.3,60.01087688900545,
Computer.xlsx,c,Sychronize.jpg,Number7.jpg,7,Computer,,,,,0,2,2,5,0,9,9,2,,,,,,,,,,,,,,,,,,,,,,,,,,,,,836.1298994471116,None,836.1298994471116,None,836.5796385613672,None,836.5796385613672,None,v,6.993813807937386,836.5796385613672,None,t,7.169407798181965,836.5796385613672,None,6.993813807937386,7.169407798181965,6.526528067951633,False,False,False,843.828409840036,None,843.828409840036,None,843.828409840036,None,843.828409840036,None,843.828409840036,None,843.828409840036,None,843.828409840036,None,843.828409840036,None,844.8442544987353,None,844.8442544987353,None,845.8275003889629,None,845.8275003889629,None,c,,,,,,,,,,,,,,,,,,,,,,,,,,,,,,,,,,,,,,,,,,,,,,,43_44Exp,001,2021_May_13_1503,ComputerHuman,2020.1.3,60.01087688900545,
Computer.xlsx,c,,,,,,,,,0,2,2,5,,,,,,,,,,,,,,,,,,,,,,,,,,,,,,,,,,,,,,,,,,,,,,,,,,,,,,,,,,,,,,,,,,,,,,,,,,,,,,,c,846.8277852540608,None,846.8277852540608,None,a,1,7.573475145680732,846.8277852540608,None,o,0,2.60459922399923,846.8277852540608,None,c,h,854.4758886395606,None,854.4758886395606,None,856.4921455185876,None,None,None,None,None,None,None,None,,,,,,,,,,,,,,,,,,43_44Exp,001,2021_May_13_1503,ComputerHuman,2020.1.3,60.01087688900545,
Computer.xlsx,c,Sychronize.jpg,Number7.jpg,7,Computer,,,,,0,3,3,3,0,0,0,2,,,,,,,,,,,,,,,,,,,,,,,,,861.4944841070618,None,861.4944841070618,None,864.557496074283,None,864.557496074283,None,865.0075505290696,None,865.0075505290696,None,v,6.609209675789543,865.0075505290696,None,t,6.100507656551599,865.0075505290696,None,6.609209675789543,6.100507656551599,6.966309613814336,False,False,False,871.6726935310281,None,871.6726935310281,None,871.6726935310281,None,871.6726935310281,None,871.6726935310281,None,871.6726935310281,None,871.6726935310281,None,871.6726935310281,None,872.7056047528844,None,872.7056047528844,None,873.6888147141807,None,873.6888147141807,None,c,,,,,,,,,,,,,,,,,,,,,,,,,,,,,,,,,,,,,,,,,,,,,,,43_44Exp,001,2021_May_13_1503,ComputerHuman,2020.1.3,60.01087688900545,
Computer.xlsx,c,Sychronize.jpg,Number10.jpg,10,Computer,,,,,0,3,3,3,0,1,1,8,,,,,,,,,,,,,,,,,,,,,,,,,,,,,874.7387799882268,None,874.7387799882268,None,875.1891019852338,None,875.1891019852338,None,v,9.235280606557353,875.1891019852338,None,t,8.570448454013558,875.1891019852338,None,9.235280606557353,8.570448454013558,9.783927987805054,False,False,False,884.5036815926782,None,884.5036815926782,None,884.5036815926782,None,884.5036815926782,None,884.5036815926782,None,884.5036815926782,None,884.5036815926782,None,884.5036815926782,None,885.5032334434192,None,885.5032334434192,None,886.4862595897365,None,886.4862595897365,None,c,,,,,,,,,,,,,,,,,,,,,,,,,,,,,,,,,,,,,,,,,,,,,,,43_44Exp,001,2021_May_13_1503,ComputerHuman,2020.1.3,60.01087688900545,
Computer.xlsx,c,Sychronize.jpg,Number6.jpg,6,Computer,,,,,0,3,3,3,0,2,2,0,,,,,,,,,,,,,,,,,,,,,,,,,,,,,887.5539352605571,None,887.5539352605571,None,887.9866488732913,None,887.9866488732913,None,v,5.349563800318492,887.9866488732913,None,t,4.732535090857027,887.9866488732913,None,5.349563800318492,4.732535090857027,6.407157920367688,False,False,False,893.418529063137,None,893.418529063137,None,893.418529063137,None,893.418529063137,None,893.418529063137,None,893.418529063137,None,893.418529063137,None,893.418529063137,None,894.4343063550901,None,894.4343063550901,None,895.4179538794425,None,895.4179538794425,None,c,,,,,,,,,,,,,,,,,,,,,,,,,,,,,,,,,,,,,,,,,,,,,,,43_44Exp,001,2021_May_13_1503,ComputerHuman,2020.1.3,60.01087688900545,
Computer.xlsx,c,Sychronize.jpg,Number9.jpg,9,Computer,,,,,0,3,3,3,0,3,3,7,,,,,,,,,,,,,,,,,,,,,,,,,,,,,896.4681995274703,None,896.4681995274703,None,896.9181391379944,None,896.9181391379944,None,v,8.801677111185427,896.9181391379944,None,t,8.469442925128305,896.9181391379944,None,8.801677111185427,8.469442925128305,8.775564223247242,False,True,False,905.7997173804603,None,905.7997173804603,None,905.7997173804603,None,905.7997173804603,None,905.7997173804603,None,905.7997173804603,None,905.7997173804603,None,905.7997173804603,None,906.8156900359771,None,906.8156900359771,None,907.7988862031301,None,907.7988862031301,None,c,,,,,,,,,,,,,,,,,,,,,,,,,,,,,,,,,,,,,,,,,,,,,,,43_44Exp,001,2021_May_13_1503,ComputerHuman,2020.1.3,60.01087688900545,
Computer.xlsx,c,Sychronize.jpg,Number6.jpg,6,Computer,,,,,0,3,3,3,0,4,4,1,,,,,,,,,,,,,,,,,,,,,,,,,,,,,908.8490949598446,None,908.8490949598446,None,909.2988279790137,None,909.2988279790137,None,v,6.348824049286804,909.2988279790137,None,t,5.620511570238477,909.2988279790137,None,6.348824049286804,5.620511570238477,6.204735532235498,False,True,False,915.7306542754626,None,915.7306542754626,None,915.7306542754626,None,915.7306542754626,None,915.7306542754626,None,915.7306542754626,None,915.7306542754626,None,915.7306542754626,None,916.7137596579054,None,916.7137596579054,None,917.6969154050106,None,917.6969154050106,None,c,,,,,,,,,,,,,,,,,,,,,,,,,,,,,,,,,,,,,,,,,,,,,,,43_44Exp,001,2021_May_13_1503,ComputerHuman,2020.1.3,60.01087688900545,
Computer.xlsx,c,Sychronize.jpg,Number9.jpg,9,Computer,,,,,0,3,3,3,0,5,5,6,,,,,,,,,,,,,,,,,,,,,,,,,,,,,918.7639883038497,None,918.7639883038497,None,919.1968084202018,None,919.1968084202018,None,v,9.778509045589544,919.1968084202018,None,t,7.941477224425853,919.1968084202018,None,9.778509045589544,7.941477224425853,9.171892400506456,False,False,False,929.0465058312335,None,929.0465058312335,None,929.0465058312335,None,929.0465058312335,None,929.0465058312335,None,929.0465058312335,None,929.0465058312335,None,929.0465058312335,None,930.0610830327226,None,930.0610830327226,None,931.0276530869209,None,931.0276530869209,None,c,,,,,,,,,,,,,,,,,,,,,,,,,,,,,,,,,,,,,,,,,,,,,,,43_44Exp,001,2021_May_13_1503,ComputerHuman,2020.1.3,60.01087688900545,
Computer.xlsx,c,Sychronize.jpg,Number8.jpg,8,Computer,,,,,0,3,3,3,0,6,6,5,,,,,,,,,,,,,,,,,,,,,,,,,,,,,932.0781264987096,None,932.0781264987096,None,932.5277722619027,None,932.5277722619027,None,v,8.827270700437793,932.5277722619027,None,t,8.270349168261191,932.5277722619027,None,8.827270700437793,8.270349168261191,7.416746820450045,False,False,False,941.4271228143901,None,941.4271228143901,None,941.4271228143901,None,941.4271228143901,None,941.4271228143901,None,941.4271228143901,None,941.4271228143901,None,941.4271228143901,None,942.4419890512999,None,942.4419890512999,None,943.4253334252943,None,943.4253334252943,None,c,,,,,,,,,,,,,,,,,,,,,,,,,,,,,,,,,,,,,,,,,,,,,,,43_44Exp,001,2021_May_13_1503,ComputerHuman,2020.1.3,60.01087688900545,
Computer.xlsx,c,Sychronize.jpg,Number8.jpg,8,Computer,,,,,0,3,3,3,0,7,7,4,,,,,,,,,,,,,,,,,,,,,,,,,,,,,944.4752739982004,None,944.4752739982004,None,944.9251462419783,None,944.9251462419783,None,v,7.929581540228355,944.9251462419783,None,t,8.172473947514845,944.9251462419783,None,7.929581540228355,8.172473947514845,7.980891580276914,False,True,True,953.1738171121159,None,953.1738171121159,None,953.1738171121159,None,953.1738171121159,None,953.1738171121159,None,953.1738171121159,None,953.1738171121159,None,953.1738171121159,None,954.1730956463438,None,954.1730956463438,None,955.1564640798905,None,955.1564640798905,None,c,,,,,,,,,,,,,,,,,,,,,,,,,,,,,,,,,,,,,,,,,,,,,,,43_44Exp,001,2021_May_13_1503,ComputerHuman,2020.1.3,60.01087688900545,
Computer.xlsx,c,Sychronize.jpg,Number7.jpg,7,Computer,,,,,0,3,3,3,0,8,8,3,,,,,,,,,,,,,,,,,,,,,,,,,,,,,956.2231821805334,None,956.2231821805334,None,956.6731089592962,None,956.6731089592962,None,v,6.869327118483625,956.6731089592962,None,t,6.664412874747541,956.6731089592962,None,6.869327118483625,6.664412874747541,7.071154917588919,False,True,False,963.6379762387863,None,963.6379762387863,None,963.6379762387863,None,963.6379762387863,None,963.6379762387863,None,963.6379762387863,None,963.6379762387863,None,963.6379762387863,None,964.6378187289178,None,964.6378187289178,None,965.6043188500176,None,965.6043188500176,None,c,,,,,,,,,,,,,,,,,,,,,,,,,,,,,,,,,,,,,,,,,,,,,,,43_44Exp,001,2021_May_13_1503,ComputerHuman,2020.1.3,60.01087688900545,
Computer.xlsx,c,Sychronize.jpg,Number10.jpg,10,Computer,,,,,0,3,3,3,0,9,9,9,,,,,,,,,,,,,,,,,,,,,,,,,,,,,966.6549780015495,None,966.6549780015495,None,967.1045454909994,None,967.1045454909994,None,v,9.901500514072495,967.1045454909994,None,t,10.820555198226657,967.1045454909994,None,9.901500514072495,10.820555198226657,10.526230588485113,False,False,True,978.0034129276786,None,978.0034129276786,None,978.0034129276786,None,978.0034129276786,None,978.0034129276786,None,978.0034129276786,None,978.0034129276786,None,978.0034129276786,None,979.0183936880568,None,979.0183936880568,None,980.0015635500991,None,980.0015635500991,None,c,,,,,,,,,,,,,,,,,,,,,,,,,,,,,,,,,,,,,,,,,,,,,,,43_44Exp,001,2021_May_13_1503,ComputerHuman,2020.1.3,60.01087688900545,
Computer.xlsx,c,,,,,,,,,0,3,3,3,,,,,,,,,,,,,,,,,,,,,,,,,,,,,,,,,,,,,,,,,,,,,,,,,,,,,,,,,,,,,,,,,,,,,,,,,,,,,,,c,981.0021368090298,None,981.0021368090298,None,q,0,3.4438422784073737,981.0021368090298,None,o,0,3.0956065653704172,981.0021368090298,None,h,h,984.5338917288071,None,984.5338917288071,None,986.5169419346768,None,None,None,None,None,None,None,None,,,,,,,,,,,,,,,,,,43_44Exp,001,2021_May_13_1503,ComputerHuman,2020.1.3,60.01087688900545,
Human.xlsx,h,Sychronize.jpg,Number10.jpg,10,Human,,,,,0,4,4,6,0,0,0,8,,,,,,,,,,,,,,,,,,,,,,,,,991.5348412791342,None,991.5348412791342,None,994.5989012804495,None,994.5989012804495,None,995.049121264955,None,995.049121264955,None,v,10.208338719999801,995.049121264955,None,t,10.03542303910649,995.049121264955,None,10.208338719999801,10.03542303910649,9.397788702030372,True,False,False,1005.3633082205075,None,1005.3633082205075,None,1005.3633082205075,None,1005.3633082205075,None,1005.3633082205075,None,1005.3633082205075,None,1005.3633082205075,None,1005.3633082205075,None,1006.3479777946374,None,1006.3479777946374,None,1007.346281115016,None,1007.346281115016,None,h,,,,,,,,,,,,,,,,,,,,,,,,,,,,,,,,,,,,,,,,,,,,,,,43_44Exp,001,2021_May_13_1503,ComputerHuman,2020.1.3,60.01087688900545,
Human.xlsx,h,Sychronize.jpg,Number9.jpg,9,Human,,,,,0,4,4,6,0,1,1,6,,,,,,,,,,,,,,,,,,,,,,,,,,,,,1008.3962970745189,None,1008.3962970745189,None,1008.84659950309,None,1008.84659950309,None,v,8.70250556176643,1008.84659950309,None,t,8.889430959510946,1008.84659950309,None,8.70250556176643,8.889430959510946,9.611274370177775,True,False,False,1017.8275010305509,None,1017.8275010305509,None,1017.8275010305509,None,1017.8275010305509,None,1017.8275010305509,None,1017.8275010305509,None,1017.8275010305509,None,1017.8275010305509,None,1018.7956840371288,None,1018.7956840371288,None,1019.7938558319553,None,1019.7938558319553,None,h,,,,,,,,,,,,,,,,,,,,,,,,,,,,,,,,,,,,,,,,,,,,,,,43_44Exp,001,2021_May_13_1503,ComputerHuman,2020.1.3,60.01087688900545,
Human.xlsx,h,Sychronize.jpg,Number8.jpg,8,Human,,,,,0,4,4,6,0,2,2,5,,,,,,,,,,,,,,,,,,,,,,,,,,,,,1020.8607449158156,None,1020.8607449158156,None,1021.2939246422746,None,1021.2939246422746,None,v,7.994935945452198,1021.2939246422746,None,t,8.23049468043314,1021.2939246422746,None,7.994935945452198,8.23049468043314,8.017643720897409,True,False,False,1029.5935619846246,None,1029.5935619846246,None,1029.5935619846246,None,1029.5935619846246,None,1029.5935619846246,None,1029.5935619846246,None,1029.5935619846246,None,1029.5935619846246,None,1030.5933788112338,None,1030.5933788112338,None,1031.5749453447174,None,1031.5749453447174,None,h,,,,,,,,,,,,,,,,,,,,,,,,,,,,,,,,,,,,,,,,,,,,,,,43_44Exp,001,2021_May_13_1503,ComputerHuman,2020.1.3,60.01087688900545,
Human.xlsx,h,Sychronize.jpg,Number6.jpg,6,Human,,,,,0,4,4,6,0,3,3,1,,,,,,,,,,,,,,,,,,,,,,,,,,,,,1032.6419470272822,None,1032.6419470272822,None,1033.0747950527143,None,1033.0747950527143,None,v,6.045801046750967,1033.0747950527143,None,t,6.1455352688976745,1033.0747950527143,None,6.045801046750967,6.1455352688976745,6.15444436683991,True,False,False,1039.3067211161065,None,1039.3067211161065,None,1039.3067211161065,None,1039.3067211161065,None,1039.3067211161065,None,1039.3067211161065,None,1039.3067211161065,None,1039.3067211161065,None,1040.292424609393,None,1040.292424609393,None,1041.2897209573134,None,1041.2897209573134,None,h,,,,,,,,,,,,,,,,,,,,,,,,,,,,,,,,,,,,,,,,,,,,,,,43_44Exp,001,2021_May_13_1503,ComputerHuman,2020.1.3,60.01087688900545,
Human.xlsx,h,Sychronize.jpg,Number10.jpg,10,Human,,,,,0,4,4,6,0,4,4,9,,,,,,,,,,,,,,,,,,,,,,,,,,,,,1042.3402476209112,None,1042.3402476209112,None,1042.789822488624,None,1042.789822488624,None,v,10.902342277605612,1042.789822488624,None,t,10.645365408459156,1042.789822488624,None,10.902342277605612,10.645365408459156,10.137088220271549,True,False,False,1053.7551821869492,None,1053.7551821869492,None,1053.7551821869492,None,1053.7551821869492,None,1053.7551821869492,None,1053.7551821869492,None,1053.7551821869492,None,1053.7551821869492,None,1054.7556123717427,None,1054.7556123717427,None,1055.7702425042467,None,1055.7702425042467,None,h,,,,,,,,,,,,,,,,,,,,,,,,,,,,,,,,,,,,,,,,,,,,,,,43_44Exp,001,2021_May_13_1503,ComputerHuman,2020.1.3,60.01087688900545,
Human.xlsx,h,Sychronize.jpg,Number7.jpg,7,Human,,,,,0,4,4,6,0,5,5,2,,,,,,,,,,,,,,,,,,,,,,,,,,,,,1056.8200675913022,None,1056.8200675913022,None,1057.270320617593,None,1057.270320617593,None,v,7.429645217843245,1057.270320617593,None,t,6.596489871730455,1057.270320617593,None,7.429645217843245,6.596489871730455,7.50820151590613,False,False,False,1064.7689756886243,None,1064.7689756886243,None,1064.7689756886243,None,1064.7689756886243,None,1064.7689756886243,None,1064.7689756886243,None,1064.7689756886243,None,1064.7689756886243,None,1065.7536096546173,None,1065.7536096546173,None,1066.7512864642563,None,1066.7512864642563,None,h,,,,,,,,,,,,,,,,,,,,,,,,,,,,,,,,,,,,,,,,,,,,,,,43_44Exp,001,2021_May_13_1503,ComputerHuman,2020.1.3,60.01087688900545,
Human.xlsx,h,Sychronize.jpg,Number8.jpg,8,Human,,,,,0,4,4,6,0,6,6,4,,,,,,,,,,,,,,,,,,,,,,,,,,,,,1067.8183247173406,None,1067.8183247173406,None,1068.2513318566116,None,1068.2513318566116,None,v,8.300315821721824,1068.2513318566116,None,t,7.9795147348716,1068.2513318566116,None,8.300315821721824,7.9795147348716,8.033467065781384,False,False,False,1076.6494250569008,None,1076.6494250569008,None,1076.6494250569008,None,1076.6494250569008,None,1076.6494250569008,None,1076.6494250569008,None,1076.6494250569008,None,1076.6494250569008,None,1077.6356126283777,None,1077.6356126283777,None,1078.6325105501137,None,1078.6325105501137,None,h,,,,,,,,,,,,,,,,,,,,,,,,,,,,,,,,,,,,,,,,,,,,,,,43_44Exp,001,2021_May_13_1503,ComputerHuman,2020.1.3,60.01087688900545,
Human.xlsx,h,Sychronize.jpg,Number9.jpg,9,Human,,,,,0,4,4,6,0,7,7,7,,,,,,,,,,,,,,,,,,,,,,,,,,,,,1079.6820154847278,None,1079.6820154847278,None,1080.1324590626718,None,1080.1324590626718,None,v,9.470895480493255,1080.1324590626718,None,t,10.094401662996233,1080.1324590626718,None,9.470895480493255,10.094401662996233,9.29652582373756,False,False,False,1090.297368045386,None,1090.297368045386,None,1090.297368045386,None,1090.297368045386,None,1090.297368045386,None,1090.297368045386,None,1090.297368045386,None,1090.297368045386,None,1091.2992594469833,None,1091.2992594469833,None,1092.2964091920321,None,1092.2964091920321,None,h,,,,,,,,,,,,,,,,,,,,,,,,,,,,,,,,,,,,,,,,,,,,,,,43_44Exp,001,2021_May_13_1503,ComputerHuman,2020.1.3,60.01087688900545,
Human.xlsx,h,Sychronize.jpg,Number6.jpg,6,Human,,,,,0,4,4,6,0,8,8,0,,,,,,,,,,,,,,,,,,,,,,,,,,,,,1093.346673446114,None,1093.346673446114,None,1093.7962970745189,None,1093.7962970745189,None,v,5.898849472213669,1093.7962970745189,None,t,5.998555464485662,1093.7962970745189,None,5.898849472213669,5.998555464485662,5.916988293377018,True,False,False,1099.8634062230835,None,1099.8634062230835,None,1099.8634062230835,None,1099.8634062230835,None,1099.8634062230835,None,1099.8634062230835,None,1099.8634062230835,None,1099.8634062230835,None,1100.8466335072571,None,1100.8466335072571,None,1101.8446686438274,None,1101.8446686438274,None,h,,,,,,,,,,,,,,,,,,,,,,,,,,,,,,,,,,,,,,,,,,,,,,,43_44Exp,001,2021_May_13_1503,ComputerHuman,2020.1.3,60.01087688900545,
Human.xlsx,h,Sychronize.jpg,Number7.jpg,7,Human,,,,,0,4,4,6,0,9,9,3,,,,,,,,,,,,,,,,,,,,,,,,,,,,,1102.9122567378777,None,1102.9122567378777,None,1103.3447608721108,None,1103.3447608721108,None,v,7.150066805356573,1103.3447608721108,None,t,6.685494816770415,1103.3447608721108,None,7.150066805356573,6.685494816770415,7.033217669749395,False,False,False,1110.5767039375864,None,1110.5767039375864,None,1110.5767039375864,None,1110.5767039375864,None,1110.5767039375864,None,1110.5767039375864,None,1110.5767039375864,None,1110.5767039375864,None,1111.578837538676,None,1111.578837538676,None,1112.5758929702802,None,1112.5758929702802,None,h,,,,,,,,,,,,,,,,,,,,,,,,,,,,,,,,,,,,,,,,,,,,,,,43_44Exp,001,2021_May_13_1503,ComputerHuman,2020.1.3,60.01087688900545,
Human.xlsx,h,,,,,,,,,0,4,4,6,,,,,,,,,,,,,,,,,,,,,,,,,,,,,,,,,,,,,,,,,,,,,,,,,,,,,,,,,,,,,,,,,,,,,,,,,,,,,,,h,1113.5762573922975,None,1113.5762573922975,None,q,0,4.674389248267289,1113.5762573922975,None,l,0,4.68943962094977,1113.5762573922975,None,h,c,1118.3579249759005,None,1118.3579249759005,None,None,None,1120.35770202405,None,1120.35770202405,None,"['space', 'space']",1121.3409171180506,None,"[3.7897387613822957, 4.125586692180605]",,,,,,,,,,,,,,,,,43_44Exp,001,2021_May_13_1503,ComputerHuman,2020.1.3,60.01087688900545,
Computer.xlsx,c,Sychronize.jpg,Number10.jpg,10,Computer,,,,,0,5,5,9,0,0,0,8,,,,,,,,,,,,,,,,,,,,,,,,,1125.526550678239,None,1125.526550678239,None,1128.5899148773042,None,1128.5899148773042,None,1129.0396706728493,None,1129.0396706728493,None,v,10.15042513228741,1129.0396706728493,None,t,9.733347341339368,1129.0396706728493,None,10.15042513228741,9.733347341339368,9.884414646596644,False,True,True,1139.3043732246056,None,1139.3043732246056,None,1139.3043732246056,None,1139.3043732246056,None,1139.3043732246056,None,1139.3043732246056,None,1139.3043732246056,None,1139.3043732246056,None,1140.303853538278,None,1140.303853538278,None,1141.2868046187923,None,1141.2868046187923,None,c,,,,,,,,,,,,,,,,,,,,,,,,,,,,,,,,,,,,,,,,,,,,,,,43_44Exp,001,2021_May_13_1503,ComputerHuman,2020.1.3,60.01087688900545,
Computer.xlsx,c,Sychronize.jpg,Number6.jpg,6,Computer,,,,,0,5,5,9,0,1,1,0,,,,,,,,,,,,,,,,,,,,,,,,,,,,,1142.3374942457572,None,1142.3374942457572,None,1142.787247795744,None,1142.787247795744,None,v,6.034611751006196,1142.787247795744,None,t,5.901453036555949,1142.787247795744,None,6.034611751006196,5.901453036555949,6.133470963994484,False,True,True,1148.9188923623756,None,1148.9188923623756,None,1148.9188923623756,None,1148.9188923623756,None,1148.9188923623756,None,1148.9188923623756,None,1148.9188923623756,None,1148.9188923623756,None,1149.901998386406,None,1149.901998386406,None,1150.8851166006098,None,1150.8851166006098,None,c,,,,,,,,,,,,,,,,,,,,,,,,,,,,,,,,,,,,,,,,,,,,,,,43_44Exp,001,2021_May_13_1503,ComputerHuman,2020.1.3,60.01087688900545,
Computer.xlsx,c,Sychronize.jpg,Number10.jpg,10,Computer,,,,,0,5,5,9,0,2,2,9,,,,,,,,,,,,,,,,,,,,,,,,,,,,,1151.9351315977306,None,1151.9351315977306,None,1152.3849794611624,None,1152.3849794611624,None,v,9.424542026423751,1152.3849794611624,None,t,9.035422076724217,1152.3849794611624,None,9.424542026423751,9.035422076724217,10.46005453964868,False,False,False,1161.8834552083317,None,1161.8834552083317,None,1161.8834552083317,None,1161.8834552083317,None,1161.8834552083317,None,1161.8834552083317,None,1161.8834552083317,None,1161.8834552083317,None,1162.8993001878248,None,1162.8993001878248,None,1163.8826737540762,None,1163.8826737540762,None,c,,,,,,,,,,,,,,,,,,,,,,,,,,,,,,,,,,,,,,,,,,,,,,,43_44Exp,001,2021_May_13_1503,ComputerHuman,2020.1.3,60.01087688900545,
Computer.xlsx,c,Sychronize.jpg,Number8.jpg,8,Computer,,,,,0,5,5,9,0,3,3,4,,,,,,,,,,,,,,,,,,,,,,,,,,,,,1164.9328809068206,None,1164.9328809068206,None,1165.3660818056856,None,1165.3660818056856,None,v,7.859178799364145,1165.3660818056856,None,t,9.522428154167073,1165.3660818056856,None,7.859178799364145,9.522428154167073,8.403152610821065,False,False,False,1174.9640203832528,None,1174.9640203832528,None,1174.9640203832528,None,1174.9640203832528,None,1174.9640203832528,None,1174.9640203832528,None,1174.9640203832528,None,1174.9640203832528,None,1175.980148623874,None,1175.980148623874,None,1176.963477278961,None,1176.963477278961,None,c,,,,,,,,,,,,,,,,,,,,,,,,,,,,,,,,,,,,,,,,,,,,,,,43_44Exp,001,2021_May_13_1503,ComputerHuman,2020.1.3,60.01087688900545,
Computer.xlsx,c,Sychronize.jpg,Number7.jpg,7,Computer,,,,,0,5,5,9,0,4,4,2,,,,,,,,,,,,,,,,,,,,,,,,,,,,,1178.0132869679028,None,1178.0132869679028,None,1178.4635743191548,None,1178.4635743191548,None,v,7.673387408513463,1178.4635743191548,None,t,6.552475326929198,1178.4635743191548,None,7.673387408513463,6.552475326929198,7.026103456099758,False,False,False,1186.21176768738,None,1186.21176768738,None,1186.21176768738,None,1186.21176768738,None,1186.21176768738,None,1186.21176768738,None,1186.21176768738,None,1186.21176768738,None,1187.2112964409507,None,1187.2112964409507,None,1188.194593337429,None,1188.194593337429,None,c,,,,,,,,,,,,,,,,,,,,,,,,,,,,,,,,,,,,,,,,,,,,,,,43_44Exp,001,2021_May_13_1503,ComputerHuman,2020.1.3,60.01087688900545,
Computer.xlsx,c,Sychronize.jpg,Number7.jpg,7,Computer,,,,,0,5,5,9,0,5,5,3,,,,,,,,,,,,,,,,,,,,,,,,,,,,,1189.2610746920777,None,1189.2610746920777,None,1189.7112273098373,None,1189.7112273098373,None,v,7.257428226345837,1189.7112273098373,None,t,6.596475115205294,1189.7112273098373,None,7.257428226345837,6.596475115205294,6.987745802181343,False,True,False,1197.043703374593,None,1197.043703374593,None,1197.043703374593,None,1197.043703374593,None,1197.043703374593,None,1197.043703374593,None,1197.043703374593,None,1197.043703374593,None,1198.0591932350953,None,1198.0591932350953,None,1199.0257969726667,None,1199.0257969726667,None,c,,,,,,,,,,,,,,,,,,,,,,,,,,,,,,,,,,,,,,,,,,,,,,,43_44Exp,001,2021_May_13_1503,ComputerHuman,2020.1.3,60.01087688900545,
Computer.xlsx,c,Sychronize.jpg,Number9.jpg,9,Computer,,,,,0,5,5,9,0,6,6,6,,,,,,,,,,,,,,,,,,,,,,,,,,,,,1200.0929840741805,None,1200.0929840741805,None,1200.5257326534638,None,1200.5257326534638,None,v,9.06660967226071,1200.5257326534638,None,t,8.545515058873661,1200.5257326534638,None,9.06660967226071,8.545515058873661,8.791801574738491,False,True,True,1209.6746522993712,None,1209.6746522993712,None,1209.6746522993712,None,1209.6746522993712,None,1209.6746522993712,None,1209.6746522993712,None,1209.6746522993712,None,1209.6746522993712,None,1210.6901020606206,None,1210.6901020606206,None,1211.6734162799762,None,1211.6734162799762,None,c,,,,,,,,,,,,,,,,,,,,,,,,,,,,,,,,,,,,,,,,,,,,,,,43_44Exp,001,2021_May_13_1503,ComputerHuman,2020.1.3,60.01087688900545,
Computer.xlsx,c,Sychronize.jpg,Number9.jpg,9,Computer,,,,,0,5,5,9,0,7,7,7,,,,,,,,,,,,,,,,,,,,,,,,,,,,,1212.7235384223031,None,1212.7235384223031,None,1213.173730818522,None,1213.173730818522,None,v,9.162330119511807,1213.173730818522,None,t,8.837645500142116,1213.173730818522,None,9.162330119511807,8.837645500142116,9.109824424761559,False,True,True,1222.4213000819627,None,1222.4213000819627,None,1222.4213000819627,None,1222.4213000819627,None,1222.4213000819627,None,1222.4213000819627,None,1222.4213000819627,None,1222.4213000819627,None,1223.4211124174558,None,1223.4211124174558,None,1224.4042992815816,None,1224.4042992815816,None,c,,,,,,,,,,,,,,,,,,,,,,,,,,,,,,,,,,,,,,,,,,,,,,,43_44Exp,001,2021_May_13_1503,ComputerHuman,2020.1.3,60.01087688900545,
Computer.xlsx,c,Sychronize.jpg,Number8.jpg,8,Computer,,,,,0,5,5,9,0,8,8,5,,,,,,,,,,,,,,,,,,,,,,,,,,,,,1225.4543710592461,None,1225.4543710592461,None,1225.9043687334893,None,1225.9043687334893,None,v,7.631585380132947,1225.9043687334893,None,t,7.610453394241631,1225.9043687334893,None,7.631585380132947,7.610453394241631,8.457535192689184,False,False,False,1233.6031630291295,None,1233.6031630291295,None,1233.6031630291295,None,1233.6031630291295,None,1233.6031630291295,None,1233.6031630291295,None,1233.6031630291295,None,1233.6031630291295,None,1234.6021008800985,None,1234.6021008800985,None,1235.5853573565291,None,1235.5853573565291,None,c,,,,,,,,,,,,,,,,,,,,,,,,,,,,,,,,,,,,,,,,,,,,,,,43_44Exp,001,2021_May_13_1503,ComputerHuman,2020.1.3,60.01087688900545,
Computer.xlsx,c,Sychronize.jpg,Number6.jpg,6,Computer,,,,,0,5,5,9,0,9,9,1,,,,,,,,,,,,,,,,,,,,,,,,,,,,,1236.6525989930274,None,1236.6525989930274,None,1237.0857107111524,None,1237.0857107111524,None,v,5.677804100710091,1237.0857107111524,None,t,5.353465297303956,1237.0857107111524,None,5.677804100710091,5.353465297303956,6.27932308149071,False,False,False,1242.83559370153,None,1242.83559370153,None,1242.83559370153,None,1242.83559370153,None,1242.83559370153,None,1242.83559370153,None,1242.83559370153,None,1242.83559370153,None,1243.8504718078188,None,1243.8504718078188,None,1244.8336885057897,None,1244.8336885057897,None,c,,,,,,,,,,,,,,,,,,,,,,,,,,,,,,,,,,,,,,,,,,,,,,,43_44Exp,001,2021_May_13_1503,ComputerHuman,2020.1.3,60.01087688900545,
Computer.xlsx,c,,,,,,,,,0,5,5,9,,,,,,,,,,,,,,,,,,,,,,,,,,,,,,,,,,,,,,,,,,,,,,,,,,,,,,,,,,,,,,,,,,,,,,,,,,,,,,,c,1245.8339624638907,None,1245.8339624638907,None,q,0,6.093331173320394,1245.8339624638907,None,o,0,2.220561614107055,1245.8339624638907,None,h,h,1251.9990164455057,None,1251.9990164455057,None,1253.9985185731725,None,None,None,None,None,None,None,None,,,,,,,,,,,,,,,,,,43_44Exp,001,2021_May_13_1503,ComputerHuman,2020.1.3,60.01087688900545,
Human.xlsx,h,Sychronize.jpg,Number8.jpg,8,Human,,,,,0,6,6,2,0,0,0,5,,,,,,,,,,,,,,,,,,,,,,,,,1259.0162036272181,None,1259.0162036272181,None,1262.0476202696914,None,1262.0476202696914,None,1262.5303437468424,None,1262.5303437468424,None,v,7.376428054721146,1262.5303437468424,None,t,6.699463792779852,1262.5303437468424,None,7.376428054721146,6.699463792779852,8.250281370121193,False,False,False,1269.9953796035948,None,1269.9953796035948,None,1269.9953796035948,None,1269.9953796035948,None,1269.9953796035948,None,1269.9953796035948,None,1269.9953796035948,None,1269.9953796035948,None,1270.9804796833123,None,1270.9804796833123,None,1271.9950251261926,None,1271.9950251261926,None,h,,,,,,,,,,,,,,,,,,,,,,,,,,,,,,,,,,,,,,,,,,,,,,,43_44Exp,001,2021_May_13_1503,ComputerHuman,2020.1.3,60.01087688900545,
Human.xlsx,h,Sychronize.jpg,Number8.jpg,8,Human,,,,,0,6,6,2,0,1,1,4,,,,,,,,,,,,,,,,,,,,,,,,,,,,,1273.0451366823163,None,1273.0451366823163,None,1273.4948751549837,None,1273.4948751549837,None,v,7.039934044747497,1273.4948751549837,None,t,6.059491252749012,1273.4948751549837,None,7.039934044747497,6.059491252749012,7.487549087727062,False,False,False,1280.6118257510993,None,1280.6118257510993,None,1280.6118257510993,None,1280.6118257510993,None,1280.6118257510993,None,1280.6118257510993,None,1280.6118257510993,None,1280.6118257510993,None,1281.5952111867296,None,1281.5952111867296,None,1282.5929332283267,None,1282.5929332283267,None,h,,,,,,,,,,,,,,,,,,,,,,,,,,,,,,,,,,,,,,,,,,,,,,,43_44Exp,001,2021_May_13_1503,ComputerHuman,2020.1.3,60.01087688900545,
Human.xlsx,h,Sychronize.jpg,Number10.jpg,10,Human,,,,,0,6,6,2,0,2,2,8,,,,,,,,,,,,,,,,,,,,,,,,,,,,,1283.6438897559237,None,1283.6438897559237,None,1284.0929401253984,None,1284.0929401253984,None,v,9.681370688728975,1284.0929401253984,None,t,8.716436042492205,1284.0929401253984,None,9.681370688728975,8.716436042492205,9.550717484914493,False,False,False,1293.8414635906797,None,1293.8414635906797,None,1293.8414635906797,None,1293.8414635906797,None,1293.8414635906797,None,1293.8414635906797,None,1293.8414635906797,None,1293.8414635906797,None,1294.8432401480145,None,1294.8432401480145,None,1295.8404713747468,None,1295.8404713747468,None,h,,,,,,,,,,,,,,,,,,,,,,,,,,,,,,,,,,,,,,,,,,,,,,,43_44Exp,001,2021_May_13_1503,ComputerHuman,2020.1.3,60.01087688900545,
Human.xlsx,h,Sychronize.jpg,Number9.jpg,9,Human,,,,,0,6,6,2,0,3,3,7,,,,,,,,,,,,,,,,,,,,,,,,,,,,,1296.8906409945898,None,1296.8906409945898,None,1297.3403018351023,None,1297.3403018351023,None,v,8.413706566493147,1297.3403018351023,None,t,8.344451947460584,1297.3403018351023,None,8.413706566493147,8.344451947460584,8.922373998311576,True,False,False,1305.8384096315199,None,1305.8384096315199,None,1305.8384096315199,None,1305.8384096315199,None,1305.8384096315199,None,1305.8384096315199,None,1305.8384096315199,None,1305.8384096315199,None,1306.8233451439,None,1306.8233451439,None,1307.8214470056282,None,1307.8214470056282,None,h,,,,,,,,,,,,,,,,,,,,,,,,,,,,,,,,,,,,,,,,,,,,,,,43_44Exp,001,2021_May_13_1503,ComputerHuman,2020.1.3,60.01087688900545,
Human.xlsx,h,Sychronize.jpg,Number9.jpg,9,Human,,,,,0,6,6,2,0,4,4,6,,,,,,,,,,,,,,,,,,,,,,,,,,,,,1308.8711588523915,None,1308.8711588523915,None,1309.3213772329268,None,1309.3213772329268,None,v,8.52830862951987,1309.3213772329268,None,t,8.19949154146343,1309.3213772329268,None,8.52830862951987,8.19949154146343,8.915062178531318,False,False,False,1317.9361507603621,None,1317.9361507603621,None,1317.9361507603621,None,1317.9361507603621,None,1317.9361507603621,None,1317.9361507603621,None,1317.9361507603621,None,1317.9361507603621,None,1318.90394047346,None,1318.90394047346,None,1319.9024491020173,None,1319.9024491020173,None,h,,,,,,,,,,,,,,,,,,,,,,,,,,,,,,,,,,,,,,,,,,,,,,,43_44Exp,001,2021_May_13_1503,ComputerHuman,2020.1.3,60.01087688900545,
Human.xlsx,h,Sychronize.jpg,Number7.jpg,7,Human,,,,,0,6,6,2,0,5,5,3,,,,,,,,,,,,,,,,,,,,,,,,,,,,,1320.96895066669,None,1320.96895066669,None,1321.4024406009753,None,1321.4024406009753,None,v,6.698968807592792,1321.4024406009753,None,t,6.770521595051832,1321.4024406009753,None,6.698968807592792,6.770521595051832,7.502378759505645,True,False,False,1328.2512891910055,None,1328.2512891910055,None,1328.2512891910055,None,1328.2512891910055,None,1328.2512891910055,None,1328.2512891910055,None,1328.2512891910055,None,1328.2512891910055,None,1329.253368577904,None,1329.253368577904,None,1330.25048463958,None,1330.25048463958,None,h,,,,,,,,,,,,,,,,,,,,,,,,,,,,,,,,,,,,,,,,,,,,,,,43_44Exp,001,2021_May_13_1503,ComputerHuman,2020.1.3,60.01087688900545,
Human.xlsx,h,Sychronize.jpg,Number6.jpg,6,Human,,,,,0,6,6,2,0,6,6,1,,,,,,,,,,,,,,,,,,,,,,,,,,,,,1331.3007886721211,None,1331.3007886721211,None,1331.7335658020734,None,1331.7335658020734,None,v,6.027605609404418,1331.7335658020734,None,t,5.654553911842413,1331.7335658020734,None,6.027605609404418,5.654553911842413,6.1865458069201615,False,False,False,1337.8164249750985,None,1337.8164249750985,None,1337.8164249750985,None,1337.8164249750985,None,1337.8164249750985,None,1337.8164249750985,None,1337.8164249750985,None,1337.8164249750985,None,1338.8177610822308,None,1338.8177610822308,None,1339.831960067559,None,1339.831960067559,None,h,,,,,,,,,,,,,,,,,,,,,,,,,,,,,,,,,,,,,,,,,,,,,,,43_44Exp,001,2021_May_13_1503,ComputerHuman,2020.1.3,60.01087688900545,
Human.xlsx,h,Sychronize.jpg,Number6.jpg,6,Human,,,,,0,6,6,2,0,7,7,0,,,,,,,,,,,,,,,,,,,,,,,,,,,,,1340.8821511806022,None,1340.8821511806022,None,1341.3321498172277,None,1341.3321498172277,None,v,5.2925692875001005,1341.3321498172277,None,t,6.740516125514205,1341.3321498172277,None,5.2925692875001005,6.740516125514205,5.8649591684250355,False,False,False,1348.1471122923458,None,1348.1471122923458,None,1348.1471122923458,None,1348.1471122923458,None,1348.1471122923458,None,1348.1471122923458,None,1348.1471122923458,None,1348.1471122923458,None,1349.1322993072454,None,1349.1322993072454,None,1350.1299055421978,None,1350.1299055421978,None,h,,,,,,,,,,,,,,,,,,,,,,,,,,,,,,,,,,,,,,,,,,,,,,,43_44Exp,001,2021_May_13_1503,ComputerHuman,2020.1.3,60.01087688900545,
Human.xlsx,h,Sychronize.jpg,Number10.jpg,10,Human,,,,,0,6,6,2,0,8,8,9,,,,,,,,,,,,,,,,,,,,,,,,,,,,,1351.1968719374195,None,1351.1968719374195,None,1351.629929441353,None,1351.629929441353,None,v,10.446591804033233,1351.629929441353,None,t,10.246353454069776,1351.629929441353,None,10.446591804033233,10.246353454069776,9.58467459347859,True,False,False,1362.127340152345,None,1362.127340152345,None,1362.127340152345,None,1362.127340152345,None,1362.127340152345,None,1362.127340152345,None,1362.127340152345,None,1362.127340152345,None,1363.1459484516072,None,1363.1459484516072,None,1364.143913655079,None,1364.143913655079,None,h,,,,,,,,,,,,,,,,,,,,,,,,,,,,,,,,,,,,,,,,,,,,,,,43_44Exp,001,2021_May_13_1503,ComputerHuman,2020.1.3,60.01087688900545,
Human.xlsx,h,Sychronize.jpg,Number7.jpg,7,Human,,,,,0,6,6,2,0,9,9,2,,,,,,,,,,,,,,,,,,,,,,,,,,,,,1365.194282808808,None,1365.194282808808,None,1365.6273595603839,None,1365.6273595603839,None,v,7.3409504806295445,1365.6273595603839,None,t,6.5324760647554285,1365.6273595603839,None,7.3409504806295445,6.5324760647554285,7.0509928906566,False,False,False,1373.0425308724152,None,1373.0425308724152,None,1373.0425308724152,None,1373.0425308724152,None,1373.0425308724152,None,1373.0425308724152,None,1373.0425308724152,None,1373.0425308724152,None,1374.0442589898516,None,1374.0442589898516,None,1375.0417908005898,None,1375.0417908005898,None,h,,,,,,,,,,,,,,,,,,,,,,,,,,,,,,,,,,,,,,,,,,,,,,,43_44Exp,001,2021_May_13_1503,ComputerHuman,2020.1.3,60.01087688900545,
Human.xlsx,h,,,,,,,,,0,6,6,2,,,,,,,,,,,,,,,,,,,,,,,,,,,,,,,,,,,,,,,,,,,,,,,,,,,,,,,,,,,,,,,,,,,,,,,,,,,,,,,h,1376.042398063687,None,1376.042398063687,None,q,1,28.48529464129615,1376.042398063687,None,o,0,2.3086484466352886,1376.042398063687,None,h,h,1404.603155650867,None,1404.603155650867,None,1406.619040729614,None,None,None,None,None,None,None,None,,,,,,,,,,,,,,,,,,43_44Exp,001,2021_May_13_1503,ComputerHuman,2020.1.3,60.01087688900545,
Computer.xlsx,c,Sychronize.jpg,Number10.jpg,10,Computer,,,,,0,7,7,1,0,0,0,8,,,,,,,,,,,,,,,,,,,,,,,,,1411.6205972222442,None,1411.6205972222442,None,1414.6845163949806,None,1414.6845163949806,None,1415.1174282584252,None,1415.1174282584252,None,None,,1415.1174282584252,None,t,9.012483378859088,1415.1174282584252,None,13,9.012483378859088,10.125964282518318,False,False,False,1428.1816355042001,None,1428.1816355042001,None,1428.1816355042001,None,1428.1816355042001,None,1428.1816355042001,None,1428.1816355042001,None,1428.1816355042001,None,1428.1816355042001,None,1429.214479038516,None,1429.214479038516,None,1430.1978044856628,None,1430.1978044856628,None,c,,,,,,,,,,,,,,,,,,,,,,,,,,,,,,,,,,,,,,,,,,,,,,,43_44Exp,001,2021_May_13_1503,ComputerHuman,2020.1.3,60.01087688900545,
Computer.xlsx,c,Sychronize.jpg,Number7.jpg,7,Computer,,,,,0,7,7,1,0,1,1,2,,,,,,,,,,,,,,,,,,,,,,,,,,,,,1431.231348634139,None,1431.231348634139,None,1431.6809834903352,None,1431.6809834903352,None,None,,1431.6809834903352,None,t,5.932514239244938,1431.6809834903352,None,13,5.932514239244938,6.477408684447779,False,False,False,1444.7466734461136,None,1444.7466734461136,None,1444.7466734461136,None,1444.7466734461136,None,1444.7466734461136,None,1444.7466734461136,None,1444.7466734461136,None,1444.7466734461136,None,1445.7614399160802,None,1445.7614399160802,None,1446.744601116684,None,1446.744601116684,None,c,,,,,,,,,,,,,,,,,,,,,,,,,,,,,,,,,,,,,,,,,,,,,,,43_44Exp,001,2021_May_13_1503,ComputerHuman,2020.1.3,60.01087688900545,
Computer.xlsx,c,Sychronize.jpg,Number8.jpg,8,Computer,,,,,0,7,7,1,0,2,2,4,,,,,,,,,,,,,,,,,,,,,,,,,,,,,1447.7945638243782,None,1447.7945638243782,None,1448.2280303406992,None,1448.2280303406992,None,None,,1448.2280303406992,None,t,6.9654610692387,1448.2280303406992,None,13,6.9654610692387,7.793389727104725,False,False,False,1461.2933180207651,None,1461.2933180207651,None,1461.2933180207651,None,1461.2933180207651,None,1461.2933180207651,None,1461.2933180207651,None,1461.2933180207651,None,1461.2933180207651,None,1462.2911045419623,None,1462.2911045419623,None,1463.2913900486483,None,1463.2913900486483,None,c,,,,,,,,,,,,,,,,,,,,,,,,,,,,,,,,,,,,,,,,,,,,,,,43_44Exp,001,2021_May_13_1503,ComputerHuman,2020.1.3,60.01087688900545,
Computer.xlsx,c,Sychronize.jpg,Number9.jpg,9,Computer,,,,,0,7,7,1,0,3,3,7,,,,,,,,,,,,,,,,,,,,,,,,,,,,,1464.3255571791296,None,1464.3255571791296,None,1464.7749094157857,None,1464.7749094157857,None,None,,1464.7749094157857,None,t,7.7704940067656025,1464.7749094157857,None,13,7.7704940067656025,9.376738397208703,False,False,False,1477.8391490617578,None,1477.8391490617578,None,1477.8391490617578,None,1477.8391490617578,None,1477.8391490617578,None,1477.8391490617578,None,1477.8391490617578,None,1477.8391490617578,None,1478.8550078353942,None,1478.8550078353942,None,1479.8381905291976,None,1479.8381905291976,None,c,,,,,,,,,,,,,,,,,,,,,,,,,,,,,,,,,,,,,,,,,,,,,,,43_44Exp,001,2021_May_13_1503,ComputerHuman,2020.1.3,60.01087688900545,
Computer.xlsx,c,Sychronize.jpg,Number10.jpg,10,Computer,,,,,0,7,7,1,0,4,4,9,,,,,,,,,,,,,,,,,,,,,,,,,,,,,1480.871797553304,None,1480.871797553304,None,1481.3215989016012,None,1481.3215989016012,None,v,10.35171568666783,1481.3215989016012,None,t,10.147432444787228,1481.3215989016012,None,10.35171568666783,10.147432444787228,10.330347215321671,False,True,True,1491.7534630517457,None,1491.7534630517457,None,1491.7534630517457,None,1491.7534630517457,None,1491.7534630517457,None,1491.7534630517457,None,1491.7534630517457,None,1491.7534630517457,None,1492.768893244559,None,1492.768893244559,None,1493.752199444064,None,1493.752199444064,None,c,,,,,,,,,,,,,,,,,,,,,,,,,,,,,,,,,,,,,,,,,,,,,,,43_44Exp,001,2021_May_13_1503,ComputerHuman,2020.1.3,60.01087688900545,
Computer.xlsx,c,Sychronize.jpg,Number6.jpg,6,Computer,,,,,0,7,7,1,0,5,5,0,,,,,,,,,,,,,,,,,,,,,,,,,,,,,1494.8016293128753,None,1494.8016293128753,None,1495.25234043304,None,1495.25234043304,None,v,5.828745711384727,1495.25234043304,None,t,6.56463213746656,1495.25234043304,None,5.828745711384727,6.56463213746656,5.860270933914402,False,True,False,1501.9004768603245,None,1501.9004768603245,None,1501.9004768603245,None,1501.9004768603245,None,1501.9004768603245,None,1501.9004768603245,None,1501.9004768603245,None,1501.9004768603245,None,1502.8831356974783,None,1502.8831356974783,None,1503.8668762520992,None,1503.8668762520992,None,c,,,,,,,,,,,,,,,,,,,,,,,,,,,,,,,,,,,,,,,,,,,,,,,43_44Exp,001,2021_May_13_1503,ComputerHuman,2020.1.3,60.01087688900545,
Computer.xlsx,c,Sychronize.jpg,Number8.jpg,8,Computer,,,,,0,7,7,1,0,6,6,5,,,,,,,,,,,,,,,,,,,,,,,,,,,,,1504.9338214749146,None,1504.9338214749146,None,1505.367070492884,None,1505.367070492884,None,v,8.337765637505981,1505.367070492884,None,t,7.297560521803462,1505.367070492884,None,8.337765637505981,7.297560521803462,8.23430377644211,False,True,False,1513.7982247258415,None,1513.7982247258415,None,1513.7982247258415,None,1513.7982247258415,None,1513.7982247258415,None,1513.7982247258415,None,1513.7982247258415,None,1513.7982247258415,None,1514.781405174087,None,1514.781405174087,None,1515.7645589964277,None,1515.7645589964277,None,c,,,,,,,,,,,,,,,,,,,,,,,,,,,,,,,,,,,,,,,,,,,,,,,43_44Exp,001,2021_May_13_1503,ComputerHuman,2020.1.3,60.01087688900545,
Computer.xlsx,c,Sychronize.jpg,Number7.jpg,7,Computer,,,,,0,7,7,1,0,7,7,3,,,,,,,,,,,,,,,,,,,,,,,,,,,,,1516.8322904854094,None,1516.8322904854094,None,1517.2649014440544,None,1517.2649014440544,None,v,6.847709129637678,1517.2649014440544,None,t,7.506480841378561,1517.2649014440544,None,6.847709129637678,7.506480841378561,7.49423415462172,False,False,True,1524.8469119564747,None,1524.8469119564747,None,1524.8469119564747,None,1524.8469119564747,None,1524.8469119564747,None,1524.8469119564747,None,1524.8469119564747,None,1524.8469119564747,None,1525.862389626804,None,1525.862389626804,None,1526.8457792327567,None,1526.8457792327567,None,c,,,,,,,,,,,,,,,,,,,,,,,,,,,,,,,,,,,,,,,,,,,,,,,43_44Exp,001,2021_May_13_1503,ComputerHuman,2020.1.3,60.01087688900545,
Computer.xlsx,c,Sychronize.jpg,Number6.jpg,6,Computer,,,,,0,7,7,1,0,8,8,1,,,,,,,,,,,,,,,,,,,,,,,,,,,,,1527.8958478024806,None,1527.8958478024806,None,1528.3458730650104,None,1528.3458730650104,None,v,7.19034409971573,1528.3458730650104,None,t,5.973556948158148,1528.3458730650104,None,7.19034409971573,5.973556948158148,6.445038791431916,False,False,False,1535.6113856216907,None,1535.6113856216907,None,1535.6113856216907,None,1535.6113856216907,None,1535.6113856216907,None,1535.6113856216907,None,1535.6113856216907,None,1535.6113856216907,None,1536.6105111371667,None,1536.6105111371667,None,1537.593570966857,None,1537.593570966857,None,c,,,,,,,,,,,,,,,,,,,,,,,,,,,,,,,,,,,,,,,,,,,,,,,43_44Exp,001,2021_May_13_1503,ComputerHuman,2020.1.3,60.01087688900545,
Computer.xlsx,c,Sychronize.jpg,Number9.jpg,9,Computer,,,,,0,7,7,1,0,9,9,6,,,,,,,,,,,,,,,,,,,,,,,,,,,,,1538.6607359335826,None,1538.6607359335826,None,1539.1104878795995,None,1539.1104878795995,None,v,9.365433480951651,1539.1104878795995,None,t,9.060428612902797,1539.1104878795995,None,9.365433480951651,9.060428612902797,9.413112299179994,False,True,False,1548.5748619382694,None,1548.5748619382694,None,1548.5748619382694,None,1548.5748619382694,None,1548.5748619382694,None,1548.5748619382694,None,1548.5748619382694,None,1548.5748619382694,None,1549.5577648996796,None,1549.5577648996796,None,1550.5411394283128,None,1550.5411394283128,None,c,,,,,,,,,,,,,,,,,,,,,,,,,,,,,,,,,,,,,,,,,,,,,,,43_44Exp,001,2021_May_13_1503,ComputerHuman,2020.1.3,60.01087688900545,
Computer.xlsx,c,,,,,,,,,0,7,7,1,,,,,,,,,,,,,,,,,,,,,,,,,,,,,,,,,,,,,,,,,,,,,,,,,,,,,,,,,,,,,,,,,,,,,,,,,,,,,,,c,1551.541904842867,None,1551.541904842867,None,a,1,8.193748045161101,1551.541904842867,None,l,0,3.813457951120654,1551.541904842867,None,c,c,1559.8227051598114,None,1559.8227051598114,None,1561.8223311139732,None,None,None,None,None,None,None,None,,,,,,,,,,,,,,,,,,43_44Exp,001,2021_May_13_1503,ComputerHuman,2020.1.3,60.01087688900545,
Human.xlsx,h,Sychronize.jpg,Number9.jpg,9,Human,,,,,0,8,8,8,0,0,0,7,,,,,,,,,,,,,,,,,,,,,,,,,1566.8079402938151,None,1566.8079402938151,None,1569.8878314804806,None,1569.8878314804806,None,1570.3210683082766,None,1570.3210683082766,None,v,9.538115944586025,1570.3210683082766,None,t,8.52947054549395,1570.3210683082766,None,9.538115944586025,8.52947054549395,8.352655641656087,False,False,False,1579.9521625527505,None,1579.9521625527505,None,1579.9521625527505,None,1579.9521625527505,None,1579.9521625527505,None,1579.9521625527505,None,1579.9521625527505,None,1579.9521625527505,None,1580.9536917778887,None,1580.9536917778887,None,1581.9350520408116,None,1581.9350520408116,None,h,,,,,,,,,,,,,,,,,,,,,,,,,,,,,,,,,,,,,,,,,,,,,,,43_44Exp,001,2021_May_13_1503,ComputerHuman,2020.1.3,60.01087688900545,
Human.xlsx,h,Sychronize.jpg,Number7.jpg,7,Human,,,,,0,8,8,8,0,1,1,2,,,,,,,,,,,,,,,,,,,,,,,,,,,,,1583.0016530516332,None,1583.0016530516332,None,1583.4351465146528,None,1583.4351465146528,None,v,7.427720453667007,1583.4351465146528,None,t,6.739513644171893,1583.4351465146528,None,7.427720453667007,6.739513644171893,7.124279272365616,False,False,False,1590.9337874707476,None,1590.9337874707476,None,1590.9337874707476,None,1590.9337874707476,None,1590.9337874707476,None,1590.9337874707476,None,1590.9337874707476,None,1590.9337874707476,None,1591.9357966037537,None,1591.9357966037537,None,1592.932987731232,None,1592.932987731232,None,h,,,,,,,,,,,,,,,,,,,,,,,,,,,,,,,,,,,,,,,,,,,,,,,43_44Exp,001,2021_May_13_1503,ComputerHuman,2020.1.3,60.01087688900545,
Human.xlsx,h,Sychronize.jpg,Number7.jpg,7,Human,,,,,0,8,8,8,0,2,2,3,,,,,,,,,,,,,,,,,,,,,,,,,,,,,1593.983047318723,None,1593.983047318723,None,1594.4332448476466,None,1594.4332448476466,None,v,7.325350587774665,1594.4332448476466,None,t,7.340567452558389,1594.4332448476466,None,7.325350587774665,7.340567452558389,6.762079923041142,True,False,False,1601.8484055734752,None,1601.8484055734752,None,1601.8484055734752,None,1601.8484055734752,None,1601.8484055734752,None,1601.8484055734752,None,1601.8484055734752,None,1601.8484055734752,None,1602.8331829343992,None,1602.8331829343992,None,1603.8308141912862,None,1603.8308141912862,None,h,,,,,,,,,,,,,,,,,,,,,,,,,,,,,,,,,,,,,,,,,,,,,,,43_44Exp,001,2021_May_13_1503,ComputerHuman,2020.1.3,60.01087688900545,
Human.xlsx,h,Sychronize.jpg,Number9.jpg,9,Human,,,,,0,8,8,8,0,3,3,6,,,,,,,,,,,,,,,,,,,,,,,,,,,,,1604.914087509403,None,1604.914087509403,None,1605.3306683903998,None,1605.3306683903998,None,v,9.415590589827843,1605.3306683903998,None,t,8.950372522066573,1605.3306683903998,None,9.415590589827843,8.950372522066573,8.939130752091387,False,False,False,1614.812270371624,None,1614.812270371624,None,1614.812270371624,None,1614.812270371624,None,1614.812270371624,None,1614.812270371624,None,1614.812270371624,None,1614.812270371624,None,1615.7968295926075,None,1615.7968295926075,None,1616.7950026706103,None,1616.7950026706103,None,h,,,,,,,,,,,,,,,,,,,,,,,,,,,,,,,,,,,,,,,,,,,,,,,43_44Exp,001,2021_May_13_1503,ComputerHuman,2020.1.3,60.01087688900545,
Human.xlsx,h,Sychronize.jpg,Number10.jpg,10,Human,,,,,0,8,8,8,0,4,4,8,,,,,,,,,,,,,,,,,,,,,,,,,,,,,1617.8455925306316,None,1617.8455925306316,None,1618.2951680399324,None,1618.2951680399324,None,v,10.382758283302792,1618.2951680399324,None,t,10.178424997553975,1618.2951680399324,None,10.382758283302792,10.178424997553975,9.96312479452068,True,False,False,1628.760009816297,None,1628.760009816297,None,1628.760009816297,None,1628.760009816297,None,1628.760009816297,None,1628.760009816297,None,1628.760009816297,None,1628.760009816297,None,1629.7616214855007,None,1629.7616214855007,None,1630.7590025230452,None,1630.7590025230452,None,h,,,,,,,,,,,,,,,,,,,,,,,,,,,,,,,,,,,,,,,,,,,,,,,43_44Exp,001,2021_May_13_1503,ComputerHuman,2020.1.3,60.01087688900545,
Human.xlsx,h,Sychronize.jpg,Number6.jpg,6,Human,,,,,0,8,8,8,0,5,5,0,,,,,,,,,,,,,,,,,,,,,,,,,,,,,1631.8090563362434,None,1631.8090563362434,None,1632.242436558971,None,1632.242436558971,None,v,6.323293656458645,1632.242436558971,None,t,5.486510771461781,1632.242436558971,None,6.323293656458645,5.486510771461781,5.774915274034028,False,False,False,1638.6589888892986,None,1638.6589888892986,None,1638.6589888892986,None,1638.6589888892986,None,1638.6589888892986,None,1638.6589888892986,None,1638.6589888892986,None,1638.6589888892986,None,1639.6442198529799,None,1639.6442198529799,None,1640.6404341626394,None,1640.6404341626394,None,h,,,,,,,,,,,,,,,,,,,,,,,,,,,,,,,,,,,,,,,,,,,,,,,43_44Exp,001,2021_May_13_1503,ComputerHuman,2020.1.3,60.01087688900545,
Human.xlsx,h,Sychronize.jpg,Number8.jpg,8,Human,,,,,0,8,8,8,0,6,6,4,,,,,,,,,,,,,,,,,,,,,,,,,,,,,1641.690293253862,None,1641.690293253862,None,1642.140509068045,None,1642.140509068045,None,v,7.73292036448629,1642.140509068045,None,t,8.388676291556749,1642.140509068045,None,7.73292036448629,8.388676291556749,7.93307791731976,False,False,False,1650.606093803382,None,1650.606093803382,None,1650.606093803382,None,1650.606093803382,None,1650.606093803382,None,1650.606093803382,None,1650.606093803382,None,1650.606093803382,None,1651.5900518563549,None,1651.5900518563549,None,1652.5879939626561,None,1652.5879939626561,None,h,,,,,,,,,,,,,,,,,,,,,,,,,,,,,,,,,,,,,,,,,,,,,,,43_44Exp,001,2021_May_13_1503,ComputerHuman,2020.1.3,60.01087688900545,
Human.xlsx,h,Sychronize.jpg,Number10.jpg,10,Human,,,,,0,8,8,8,0,7,7,9,,,,,,,,,,,,,,,,,,,,,,,,,,,,,1653.6383252626902,None,1653.6383252626902,None,1654.0881801835903,None,1654.0881801835903,None,v,9.892880778502786,1654.0881801835903,None,t,11.120386620964382,1654.0881801835903,None,9.892880778502786,11.120386620964382,9.766136808185909,False,False,False,1665.2872043281532,None,1665.2872043281532,None,1665.2872043281532,None,1665.2872043281532,None,1665.2872043281532,None,1665.2872043281532,None,1665.2872043281532,None,1665.2872043281532,None,1666.270566666613,None,1666.270566666613,None,1667.268371152276,None,1667.268371152276,None,h,,,,,,,,,,,,,,,,,,,,,,,,,,,,,,,,,,,,,,,,,,,,,,,43_44Exp,001,2021_May_13_1503,ComputerHuman,2020.1.3,60.01087688900545,
Human.xlsx,h,Sychronize.jpg,Number6.jpg,6,Human,,,,,0,8,8,8,0,8,8,1,,,,,,,,,,,,,,,,,,,,,,,,,,,,,1668.3182729091045,None,1668.3182729091045,None,1668.7688027806425,None,1668.7688027806425,None,v,5.319958360934834,1668.7688027806425,None,t,5.6557418121333285,1668.7688027806425,None,5.319958360934834,5.6557418121333285,5.661731466878565,False,False,False,1674.5008194683478,None,1674.5008194683478,None,1674.5008194683478,None,1674.5008194683478,None,1674.5008194683478,None,1674.5008194683478,None,1674.5008194683478,None,1674.5008194683478,None,1675.5022967248533,None,1675.5022967248533,None,1676.5001599158236,None,1676.5001599158236,None,h,,,,,,,,,,,,,,,,,,,,,,,,,,,,,,,,,,,,,,,,,,,,,,,43_44Exp,001,2021_May_13_1503,ComputerHuman,2020.1.3,60.01087688900545,
Human.xlsx,h,Sychronize.jpg,Number8.jpg,8,Human,,,,,0,8,8,8,0,9,9,5,,,,,,,,,,,,,,,,,,,,,,,,,,,,,1677.550170101034,None,1677.550170101034,None,1678.0002489361668,None,1678.0002489361668,None,v,8.312257379465791,1678.0002489361668,None,t,7.571653356387742,1678.0002489361668,None,8.312257379465791,7.571653356387742,8.31380120964718,False,False,False,1686.3657411224262,None,1686.3657411224262,None,1686.3657411224262,None,1686.3657411224262,None,1686.3657411224262,None,1686.3657411224262,None,1686.3657411224262,None,1686.3657411224262,None,1687.367071134472,None,1687.367071134472,None,1688.3644492848698,None,1688.3644492848698,None,h,,,,,,,,,,,,,,,,,,,,,,,,,,,,,,,,,,,,,,,,,,,,,,,43_44Exp,001,2021_May_13_1503,ComputerHuman,2020.1.3,60.01087688900545,
Human.xlsx,h,,,,,,,,,0,8,8,8,,,,,,,,,,,,,,,,,,,,,,,,,,,,,,,,,,,,,,,,,,,,,,,,,,,,,,,,,,,,,,,,,,,,,,,,,,,,,,,h,1689.3818295845876,None,1689.3818295845876,None,q,0,2.8305447243014896,1689.3818295845876,None,o,1,3.437568830368946,1689.3818295845876,None,h,h,1692.9132588984253,None,1692.9132588984253,None,1694.913224573464,None,None,None,None,None,None,None,None,,,,,,,,,,,,,,,,,,43_44Exp,001,2021_May_13_1503,ComputerHuman,2020.1.3,60.01087688900545,
Human.xlsx,h,Sychronize.jpg,Number7.jpg,7,Human,,,,,0,9,9,4,0,0,0,2,,,,,,,,,,,,,,,,,,,,,,,,,1699.898460028262,None,1699.898460028262,None,1702.978492685094,None,1702.978492685094,None,1703.4119624093555,None,1703.4119624093555,None,v,7.1079690048809425,1703.4119624093555,None,t,6.263441831220916,1703.4119624093555,None,7.1079690048809425,6.263441831220916,6.802683844790118,False,False,False,1710.5936874150898,None,1710.5936874150898,None,1710.5936874150898,None,1710.5936874150898,None,1710.5936874150898,None,1710.5936874150898,None,1710.5936874150898,None,1710.5936874150898,None,1711.6125321395516,None,1711.6125321395516,None,1712.6098233547677,None,1712.6098233547677,None,h,,,,,,,,,,,,,,,,,,,,,,,,,,,,,,,,,,,,,,,,,,,,,,,43_44Exp,001,2021_May_13_1503,ComputerHuman,2020.1.3,60.01087688900545,
Human.xlsx,h,Sychronize.jpg,Number8.jpg,8,Human,,,,,0,9,9,4,0,1,1,4,,,,,,,,,,,,,,,,,,,,,,,,,,,,,1713.643872433046,None,1713.643872433046,None,1714.109847253923,None,1714.109847253923,None,v,7.441775402476196,1714.109847253923,None,t,6.845483460661853,1714.109847253923,None,7.441775402476196,6.845483460661853,8.138838307424932,False,False,False,1721.6414154715753,None,1721.6414154715753,None,1721.6414154715753,None,1721.6414154715753,None,1721.6414154715753,None,1721.6414154715753,None,1721.6414154715753,None,1721.6414154715753,None,1722.6260603445648,None,1722.6260603445648,None,1723.6243283776002,None,1723.6243283776002,None,h,,,,,,,,,,,,,,,,,,,,,,,,,,,,,,,,,,,,,,,,,,,,,,,43_44Exp,001,2021_May_13_1503,ComputerHuman,2020.1.3,60.01087688900545,
Human.xlsx,h,Sychronize.jpg,Number10.jpg,10,Human,,,,,0,9,9,4,0,2,2,8,,,,,,,,,,,,,,,,,,,,,,,,,,,,,1724.6745326431983,None,1724.6745326431983,None,1725.1242874763616,None,1725.1242874763616,None,v,10.21498140196627,1725.1242874763616,None,t,9.36639554224621,1725.1242874763616,None,10.21498140196627,9.36639554224621,9.420430021778891,False,False,False,1735.4065435566113,None,1735.4065435566113,None,1735.4065435566113,None,1735.4065435566113,None,1735.4065435566113,None,1735.4065435566113,None,1735.4065435566113,None,1735.4065435566113,None,1736.3908984317982,None,1736.3908984317982,None,1737.3883638381722,None,1737.3883638381722,None,h,,,,,,,,,,,,,,,,,,,,,,,,,,,,,,,,,,,,,,,,,,,,,,,43_44Exp,001,2021_May_13_1503,ComputerHuman,2020.1.3,60.01087688900545,
Human.xlsx,h,Sychronize.jpg,Number9.jpg,9,Human,,,,,0,9,9,4,0,3,3,7,,,,,,,,,,,,,,,,,,,,,,,,,,,,,1738.4723156356613,None,1738.4723156356613,None,1738.904948087506,None,1738.904948087506,None,v,8.59813201636689,1738.904948087506,None,t,8.317412539518045,1738.904948087506,None,8.59813201636689,8.317412539518045,9.254677292063166,True,False,False,1747.5864002579183,None,1747.5864002579183,None,1747.5864002579183,None,1747.5864002579183,None,1747.5864002579183,None,1747.5864002579183,None,1747.5864002579183,None,1747.5864002579183,None,1748.5716812654682,None,1748.5716812654682,None,1749.5525885672214,None,1749.5525885672214,None,h,,,,,,,,,,,,,,,,,,,,,,,,,,,,,,,,,,,,,,,,,,,,,,,43_44Exp,001,2021_May_13_1503,ComputerHuman,2020.1.3,60.01087688900545,
Human.xlsx,h,Sychronize.jpg,Number10.jpg,10,Human,,,,,0,9,9,4,0,4,4,9,,,,,,,,,,,,,,,,,,,,,,,,,,,,,1750.6034126068844,None,1750.6034126068844,None,1751.0527590692482,None,1751.0527590692482,None,v,9.813955502660065,1751.0527590692482,None,t,9.733406688234936,1751.0527590692482,None,9.813955502660065,9.733406688234936,9.765692665022256,True,False,False,1760.9340145929204,None,1760.9340145929204,None,1760.9340145929204,None,1760.9340145929204,None,1760.9340145929204,None,1760.9340145929204,None,1760.9340145929204,None,1760.9340145929204,None,1761.9363040999078,None,1761.9363040999078,None,1762.9334249734943,None,1762.9334249734943,None,h,,,,,,,,,,,,,,,,,,,,,,,,,,,,,,,,,,,,,,,,,,,,,,,43_44Exp,001,2021_May_13_1503,ComputerHuman,2020.1.3,60.01087688900545,
Human.xlsx,h,Sychronize.jpg,Number6.jpg,6,Human,,,,,0,9,9,4,0,5,5,0,,,,,,,,,,,,,,,,,,,,,,,,,,,,,1763.9841242242796,None,1763.9841242242796,None,1764.4166376615399,None,1764.4166376615399,None,v,5.617775197168157,1764.4166376615399,None,t,5.545522116342454,1764.4166376615399,None,5.617775197168157,5.545522116342454,6.304854572498879,True,False,False,1770.1153886499865,None,1770.1153886499865,None,1770.1153886499865,None,1770.1153886499865,None,1770.1153886499865,None,1770.1153886499865,None,1770.1153886499865,None,1770.1153886499865,None,1771.101004566503,None,1771.101004566503,None,1772.1148888528887,None,1772.1148888528887,None,h,,,,,,,,,,,,,,,,,,,,,,,,,,,,,,,,,,,,,,,,,,,,,,,43_44Exp,001,2021_May_13_1503,ComputerHuman,2020.1.3,60.01087688900545,
Human.xlsx,h,Sychronize.jpg,Number7.jpg,7,Human,,,,,0,9,9,4,0,6,6,3,,,,,,,,,,,,,,,,,,,,,,,,,,,,,1773.181907537537,None,1773.181907537537,None,1773.614924300629,None,1773.614924300629,None,v,6.243249451041265,1773.614924300629,None,t,6.778493005887867,1773.614924300629,None,6.243249451041265,6.778493005887867,6.9584589354171715,False,False,False,1780.4637401696677,None,1780.4637401696677,None,1780.4637401696677,None,1780.4637401696677,None,1780.4637401696677,None,1780.4637401696677,None,1780.4637401696677,None,1780.4637401696677,None,1781.4661371426555,None,1781.4661371426555,None,1782.446327148959,None,1782.446327148959,None,h,,,,,,,,,,,,,,,,,,,,,,,,,,,,,,,,,,,,,,,,,,,,,,,43_44Exp,001,2021_May_13_1503,ComputerHuman,2020.1.3,60.01087688900545,
Human.xlsx,h,Sychronize.jpg,Number9.jpg,9,Human,,,,,0,9,9,4,0,7,7,6,,,,,,,,,,,,,,,,,,,,,,,,,,,,,1783.5132441419,None,1783.5132441419,None,1783.9461300210278,None,1783.9461300210278,None,v,8.479731752032421,1783.9461300210278,None,t,7.899460584839289,1783.9461300210278,None,8.479731752032421,7.899460584839289,8.871824401060374,False,False,False,1792.4948273566733,None,1792.4948273566733,None,1792.4948273566733,None,1792.4948273566733,None,1792.4948273566733,None,1792.4948273566733,None,1792.4948273566733,None,1792.4948273566733,None,1793.496974431112,None,1793.496974431112,None,1794.4939775732892,None,1794.4939775732892,None,h,,,,,,,,,,,,,,,,,,,,,,,,,,,,,,,,,,,,,,,,,,,,,,,43_44Exp,001,2021_May_13_1503,ComputerHuman,2020.1.3,60.01087688900545,
Human.xlsx,h,Sychronize.jpg,Number8.jpg,8,Human,,,,,0,9,9,4,0,8,8,5,,,,,,,,,,,,,,,,,,,,,,,,,,,,,1795.5441513634546,None,1795.5441513634546,None,1795.994201647919,None,1795.994201647919,None,v,7.267375407608597,1795.994201647919,None,t,7.382470531058516,1795.994201647919,None,7.267375407608597,7.382470531058516,8.310849781923691,True,False,False,1803.4755774693522,None,1803.4755774693522,None,1803.4755774693522,None,1803.4755774693522,None,1803.4755774693522,None,1803.4755774693522,None,1803.4755774693522,None,1803.4755774693522,None,1804.4442445541204,None,1804.4442445541204,None,1805.4418004244103,None,1805.4418004244103,None,h,,,,,,,,,,,,,,,,,,,,,,,,,,,,,,,,,,,,,,,,,,,,,,,43_44Exp,001,2021_May_13_1503,ComputerHuman,2020.1.3,60.01087688900545,
Human.xlsx,h,Sychronize.jpg,Number6.jpg,6,Human,,,,,0,9,9,4,0,9,9,1,,,,,,,,,,,,,,,,,,,,,,,,,,,,,1806.5088797391304,None,1806.5088797391304,None,1806.9588655439943,None,1806.9588655439943,None,v,5.2944927685007315,1806.9588655439943,None,t,4.897539349397903,1806.9588655439943,None,5.2944927685007315,4.897539349397903,6.366793356333457,False,False,False,1812.3240933959737,None,1812.3240933959737,None,1812.3240933959737,None,1812.3240933959737,None,1812.3240933959737,None,1812.3240933959737,None,1812.3240933959737,None,1812.3240933959737,None,1813.326283136018,None,1813.326283136018,None,1814.306694490202,None,1814.306694490202,None,h,,,,,,,,,,,,,,,,,,,,,,,,,,,,,,,,,,,,,,,,,,,,,,,43_44Exp,001,2021_May_13_1503,ComputerHuman,2020.1.3,60.01087688900545,
Human.xlsx,h,,,,,,,,,0,9,9,4,,,,,,,,,,,,,,,,,,,,,,,,,,,,,,,,,,,,,,,,,,,,,,,,,,,,,,,,,,,,,,,,,,,,,,,,,,,,,,,h,1815.3073588546367,None,1815.3073588546367,None,q,1,3.5138664823170984,1815.3073588546367,None,o,0,2.321583824282243,1815.3073588546367,None,h,h,1818.9063156324532,None,1818.9063156324532,None,None,None,1820.888767236664,None,1820.888767236664,None,"['space', 'space']",1821.8721302167123,None,"[289.2698503335455, 290.18183407570405]",,,,,,,,,,,,,,,,,43_44Exp,001,2021_May_13_1503,ComputerHuman,2020.1.3,60.01087688900545,
Computer.xlsx,c,Sychronize.jpg,Number10.jpg,10,Computer,,,,,1,0,10,7,0,0,0,9,,,,,,,,,,,,,,,,,,,,,,,,,2112.1195256097894,None,2112.1195256097894,None,2115.199545114066,None,2115.199545114066,None,2115.615624914789,None,2115.615624914789,None,v,9.9179309426695,2115.615624914789,None,t,7.305703557445213,2115.615624914789,None,9.9179309426695,7.305703557445213,9.386560571837755,False,False,False,2125.6140475705465,None,2125.6140475705465,None,2125.6140475705465,None,2125.6140475705465,None,2125.6140475705465,None,2125.6140475705465,None,2125.6140475705465,None,2125.6140475705465,None,2126.646381683944,None,2126.646381683944,None,2127.6294960486193,None,2127.6294960486193,None,c,,,,,,,,,,,,,,,,,,,,,,,,,,,,,,,,,,,,,,,,,,,,,,,43_44Exp,001,2021_May_13_1503,ComputerHuman,2020.1.3,60.01087688900545,
Computer.xlsx,c,Sychronize.jpg,Number6.jpg,6,Computer,,,,,1,0,10,7,0,1,1,1,,,,,,,,,,,,,,,,,,,,,,,,,,,,,2128.6796425712923,None,2128.6796425712923,None,2129.129883086616,None,2129.129883086616,None,v,5.83149684098089,2129.129883086616,None,t,4.582447754682107,2129.129883086616,None,5.83149684098089,4.582447754682107,6.3482304434161,False,False,False,2135.0283476059944,None,2135.0283476059944,None,2135.0283476059944,None,2135.0283476059944,None,2135.0283476059944,None,2135.0283476059944,None,2135.0283476059944,None,2135.0283476059944,None,2136.027751891482,None,2136.027751891482,None,2137.0109560784854,None,2137.0109560784854,None,c,,,,,,,,,,,,,,,,,,,,,,,,,,,,,,,,,,,,,,,,,,,,,,,43_44Exp,001,2021_May_13_1503,ComputerHuman,2020.1.3,60.01087688900545,
Computer.xlsx,c,Sychronize.jpg,Number7.jpg,7,Computer,,,,,1,0,10,7,0,2,2,2,,,,,,,,,,,,,,,,,,,,,,,,,,,,,2138.0947227778197,None,2138.0947227778197,None,2138.511180794703,None,2138.511180794703,None,v,6.593942767137378,2138.511180794703,None,t,5.669496176937173,2138.511180794703,None,6.593942767137378,5.669496176937173,7.463108652532771,False,False,False,2145.1927324112644,None,2145.1927324112644,None,2145.1927324112644,None,2145.1927324112644,None,2145.1927324112644,None,2145.1927324112644,None,2145.1927324112644,None,2145.1927324112644,None,2146.1925511626378,None,2146.1925511626378,None,2147.1757393099397,None,2147.1757393099397,None,c,,,,,,,,,,,,,,,,,,,,,,,,,,,,,,,,,,,,,,,,,,,,,,,43_44Exp,001,2021_May_13_1503,ComputerHuman,2020.1.3,60.01087688900545,
Computer.xlsx,c,Sychronize.jpg,Number7.jpg,7,Computer,,,,,1,0,10,7,0,3,3,3,,,,,,,,,,,,,,,,,,,,,,,,,,,,,2148.2090152746077,None,2148.2090152746077,None,2148.6589959467674,None,2148.6589959467674,None,v,5.433874566326267,2148.6589959467674,None,t,7.365467164324855,2148.6589959467674,None,5.433874566326267,7.365467164324855,6.99982903326265,False,False,False,2156.1073418525534,None,2156.1073418525534,None,2156.1073418525534,None,2156.1073418525534,None,2156.1073418525534,None,2156.1073418525534,None,2156.1073418525534,None,2156.1073418525534,None,2157.106904610291,None,2157.106904610291,None,2158.0902996697423,None,2158.0902996697423,None,c,,,,,,,,,,,,,,,,,,,,,,,,,,,,,,,,,,,,,,,,,,,,,,,43_44Exp,001,2021_May_13_1503,ComputerHuman,2020.1.3,60.01087688900545,
Computer.xlsx,c,Sychronize.jpg,Number9.jpg,9,Computer,,,,,1,0,10,7,0,4,4,6,,,,,,,,,,,,,,,,,,,,,,,,,,,,,2159.140144966822,None,2159.140144966822,None,2159.590237916892,None,2159.590237916892,None,v,9.170277150001311,2159.590237916892,None,t,8.525444901219544,2159.590237916892,None,9.170277150001311,8.525444901219544,9.620037565862013,False,False,False,2168.838833721227,None,2168.838833721227,None,2168.838833721227,None,2168.838833721227,None,2168.838833721227,None,2168.838833721227,None,2168.838833721227,None,2168.838833721227,None,2169.8379486504996,None,2169.8379486504996,None,2170.8211544414735,None,2170.8211544414735,None,c,,,,,,,,,,,,,,,,,,,,,,,,,,,,,,,,,,,,,,,,,,,,,,,43_44Exp,001,2021_May_13_1503,ComputerHuman,2020.1.3,60.01087688900545,
Computer.xlsx,c,Sychronize.jpg,Number9.jpg,9,Computer,,,,,1,0,10,7,0,5,5,7,,,,,,,,,,,,,,,,,,,,,,,,,,,,,2171.8877984386954,None,2171.8877984386954,None,2172.3378923511473,None,2172.3378923511473,None,v,9.362291303434631,2172.3378923511473,None,t,7.937605882078969,2172.3378923511473,None,9.362291303434631,7.937605882078969,8.806911219715534,False,False,False,2181.769337865084,None,2181.769337865084,None,2181.769337865084,None,2181.769337865084,None,2181.769337865084,None,2181.769337865084,None,2181.769337865084,None,2181.769337865084,None,2182.7688053469947,None,2182.7688053469947,None,2183.7519748882432,None,2183.7519748882432,None,c,,,,,,,,,,,,,,,,,,,,,,,,,,,,,,,,,,,,,,,,,,,,,,,43_44Exp,001,2021_May_13_1503,ComputerHuman,2020.1.3,60.01087688900545,
Computer.xlsx,c,Sychronize.jpg,Number6.jpg,6,Computer,,,,,1,0,10,7,0,6,6,0,,,,,,,,,,,,,,,,,,,,,,,,,,,,,2184.818486718325,None,2184.818486718325,None,2185.2520497936493,None,2185.2520497936493,None,v,5.807907893618449,2185.2520497936493,None,t,7.099478549305331,2185.2520497936493,None,5.807907893618449,7.099478549305331,5.634544012210404,False,True,False,2192.417022935169,None,2192.417022935169,None,2192.417022935169,None,2192.417022935169,None,2192.417022935169,None,2192.417022935169,None,2192.417022935169,None,2192.417022935169,None,2193.4332499803513,None,2193.4332499803513,None,2194.416577031468,None,2194.416577031468,None,c,,,,,,,,,,,,,,,,,,,,,,,,,,,,,,,,,,,,,,,,,,,,,,,43_44Exp,001,2021_May_13_1503,ComputerHuman,2020.1.3,60.01087688900545,
Computer.xlsx,c,Sychronize.jpg,Number10.jpg,10,Computer,,,,,1,0,10,7,0,7,7,8,,,,,,,,,,,,,,,,,,,,,,,,,,,,,2195.466921163263,None,2195.466921163263,None,2195.9169188375067,None,2195.9169188375067,None,v,9.922711415294998,2195.9169188375067,None,t,8.702397774972724,2195.9169188375067,None,9.922711415294998,8.702397774972724,9.25930976363515,False,False,False,2205.947617542942,None,2205.947617542942,None,2205.947617542942,None,2205.947617542942,None,2205.947617542942,None,2205.947617542942,None,2205.947617542942,None,2205.947617542942,None,2206.9307197174444,None,2206.9307197174444,None,2207.913965286878,None,2207.913965286878,None,c,,,,,,,,,,,,,,,,,,,,,,,,,,,,,,,,,,,,,,,,,,,,,,,43_44Exp,001,2021_May_13_1503,ComputerHuman,2020.1.3,60.01087688900545,
Computer.xlsx,c,Sychronize.jpg,Number8.jpg,8,Computer,,,,,1,0,10,7,0,8,8,4,,,,,,,,,,,,,,,,,,,,,,,,,,,,,2208.9642378816043,None,2208.9642378816043,None,2209.413943312487,None,2209.413943312487,None,v,7.861356349235848,2209.413943312487,None,t,6.704524318593485,2209.413943312487,None,7.861356349235848,6.704524318593485,8.345941277973168,False,False,False,2217.3465287680065,None,2217.3465287680065,None,2217.3465287680065,None,2217.3465287680065,None,2217.3465287680065,None,2217.3465287680065,None,2217.3465287680065,None,2217.3465287680065,None,2218.3452414215667,None,2218.3452414215667,None,2219.328367655621,None,2219.328367655621,None,c,,,,,,,,,,,,,,,,,,,,,,,,,,,,,,,,,,,,,,,,,,,,,,,43_44Exp,001,2021_May_13_1503,ComputerHuman,2020.1.3,60.01087688900545,
Computer.xlsx,c,Sychronize.jpg,Number8.jpg,8,Computer,,,,,1,0,10,7,0,9,9,5,,,,,,,,,,,,,,,,,,,,,,,,,,,,,2220.378572562807,None,2220.378572562807,None,2220.8283626833136,None,2220.8283626833136,None,v,7.822804605960755,2220.8283626833136,None,t,7.605460235174178,2220.8283626833136,None,7.822804605960755,7.605460235174178,7.49291475678152,False,False,True,2228.728023764422,None,2228.728023764422,None,2228.728023764422,None,2228.728023764422,None,2228.728023764422,None,2228.728023764422,None,2228.728023764422,None,2228.728023764422,None,2229.743043340877,None,2229.743043340877,None,2230.7262552269376,None,2230.7262552269376,None,c,,,,,,,,,,,,,,,,,,,,,,,,,,,,,,,,,,,,,,,,,,,,,,,43_44Exp,001,2021_May_13_1503,ComputerHuman,2020.1.3,60.01087688900545,
Computer.xlsx,c,,,,,,,,,1,0,10,7,,,,,,,,,,,,,,,,,,,,,,,,,,,,,,,,,,,,,,,,,,,,,,,,,,,,,,,,,,,,,,,,,,,,,,,,,,,,,,,c,2231.7104583665487,None,2231.7104583665487,None,q,0,4.936357993305137,2231.7104583665487,None,l,0,3.7036033189351656,2231.7104583665487,None,h,c,2236.74193852624,None,2236.74193852624,None,2238.7247122076565,None,None,None,None,None,None,None,None,,,,,,,,,,,,,,,,,,43_44Exp,001,2021_May_13_1503,ComputerHuman,2020.1.3,60.01087688900545,
Computer.xlsx,c,Sychronize.jpg,Number10.jpg,10,Computer,,,,,1,1,11,1,0,0,0,8,,,,,,,,,,,,,,,,,,,,,,,,,2243.743227155856,None,2243.743227155856,None,2246.8066959337752,None,2246.8066959337752,None,2247.2565553457916,None,2247.2565553457916,None,v,9.753750803989988,2247.2565553457916,None,t,9.12542212484368,2247.2565553457916,None,9.753750803989988,9.12542212484368,10.050806447265456,False,True,False,2257.0879636476207,None,2257.0879636476207,None,2257.0879636476207,None,2257.0879636476207,None,2257.0879636476207,None,2257.0879636476207,None,2257.0879636476207,None,2257.0879636476207,None,2258.104265758606,None,2258.104265758606,None,2259.087334570529,None,2259.087334570529,None,c,,,,,,,,,,,,,,,,,,,,,,,,,,,,,,,,,,,,,,,,,,,,,,,43_44Exp,001,2021_May_13_1503,ComputerHuman,2020.1.3,60.01087688900545,
Computer.xlsx,c,Sychronize.jpg,Number9.jpg,9,Computer,,,,,1,1,11,1,0,1,1,7,,,,,,,,,,,,,,,,,,,,,,,,,,,,,2260.13757412347,None,2260.13757412347,None,2260.5876936994446,None,2260.5876936994446,None,v,8.89832304921174,2260.5876936994446,None,t,7.757451163119185,2260.5876936994446,None,8.89832304921174,7.757451163119185,8.974702533563143,False,True,False,2269.5686661223863,None,2269.5686661223863,None,2269.5686661223863,None,2269.5686661223863,None,2269.5686661223863,None,2269.5686661223863,None,2269.5686661223863,None,2269.5686661223863,None,2270.5518266814015,None,2270.5518266814015,None,2271.5349118538206,None,2271.5349118538206,None,c,,,,,,,,,,,,,,,,,,,,,,,,,,,,,,,,,,,,,,,,,,,,,,,43_44Exp,001,2021_May_13_1503,ComputerHuman,2020.1.3,60.01087688900545,
Computer.xlsx,c,Sychronize.jpg,Number6.jpg,6,Computer,,,,,1,1,11,1,0,2,2,0,,,,,,,,,,,,,,,,,,,,,,,,,,,,,2272.6013473349235,None,2272.6013473349235,None,2273.0519368741507,None,2273.0519368741507,None,v,5.985786578939951,2273.0519368741507,None,t,4.857532163611268,2273.0519368741507,None,5.985786578939951,4.857532163611268,5.885031442590489,False,True,False,2279.1170487590884,None,2279.1170487590884,None,2279.1170487590884,None,2279.1170487590884,None,2279.1170487590884,None,2279.1170487590884,None,2279.1170487590884,None,2279.1170487590884,None,2280.1329787489994,None,2280.1329787489994,None,2281.0997669431376,None,2281.0997669431376,None,c,,,,,,,,,,,,,,,,,,,,,,,,,,,,,,,,,,,,,,,,,,,,,,,43_44Exp,001,2021_May_13_1503,ComputerHuman,2020.1.3,60.01087688900545,
Computer.xlsx,c,Sychronize.jpg,Number7.jpg,7,Computer,,,,,1,1,11,1,0,3,3,3,,,,,,,,,,,,,,,,,,,,,,,,,,,,,2282.1663772569864,None,2282.1663772569864,None,2282.5998351118687,None,2282.5998351118687,None,v,7.269631552017472,2282.5998351118687,None,t,6.648471015457744,2282.5998351118687,None,7.269631552017472,6.648471015457744,7.091628877420536,False,True,False,2289.964833596117,None,2289.964833596117,None,2289.964833596117,None,2289.964833596117,None,2289.964833596117,None,2289.964833596117,None,2289.964833596117,None,2289.964833596117,None,2290.964376785419,None,2290.964376785419,None,2291.9476990246258,None,2291.9476990246258,None,c,,,,,,,,,,,,,,,,,,,,,,,,,,,,,,,,,,,,,,,,,,,,,,,43_44Exp,001,2021_May_13_1503,ComputerHuman,2020.1.3,60.01087688900545,
Computer.xlsx,c,Sychronize.jpg,Number8.jpg,8,Computer,,,,,1,1,11,1,0,4,4,4,,,,,,,,,,,,,,,,,,,,,,,,,,,,,2292.9981753235606,None,2292.9981753235606,None,2293.4478502790107,None,2293.4478502790107,None,v,7.83756305607676,2293.4478502790107,None,t,7.572466890046599,2293.4478502790107,None,7.83756305607676,7.572466890046599,7.9504632177187915,False,True,False,2301.364426829288,None,2301.364426829288,None,2301.364426829288,None,2301.364426829288,None,2301.364426829288,None,2301.364426829288,None,2301.364426829288,None,2301.364426829288,None,2302.3623192125146,None,2302.3623192125146,None,2303.345529173811,None,2303.345529173811,None,c,,,,,,,,,,,,,,,,,,,,,,,,,,,,,,,,,,,,,,,,,,,,,,,43_44Exp,001,2021_May_13_1503,ComputerHuman,2020.1.3,60.01087688900545,
Computer.xlsx,c,Sychronize.jpg,Number8.jpg,8,Computer,,,,,1,1,11,1,0,5,5,5,,,,,,,,,,,,,,,,,,,,,,,,,,,,,2304.395568230484,None,2304.395568230484,None,2304.8456005504827,None,2304.8456005504827,None,v,8.119277956798669,2304.8456005504827,None,t,7.998302357996181,2304.8456005504827,None,8.119277956798669,7.998302357996181,7.4657910508695,False,False,False,2313.0439866357206,None,2313.0439866357206,None,2313.0439866357206,None,2313.0439866357206,None,2313.0439866357206,None,2313.0439866357206,None,2313.0439866357206,None,2313.0439866357206,None,2314.059941647566,None,2314.059941647566,None,2315.0265219671733,None,2315.0265219671733,None,c,,,,,,,,,,,,,,,,,,,,,,,,,,,,,,,,,,,,,,,,,,,,,,,43_44Exp,001,2021_May_13_1503,ComputerHuman,2020.1.3,60.01087688900545,
Computer.xlsx,c,Sychronize.jpg,Number9.jpg,9,Computer,,,,,1,1,11,1,0,6,6,6,,,,,,,,,,,,,,,,,,,,,,,,,,,,,2316.0930552904547,None,2316.0930552904547,None,2316.526783574704,None,2316.526783574704,None,v,7.122073035176982,2316.526783574704,None,t,7.481456982322925,2316.526783574704,None,7.122073035176982,7.481456982322925,9.453788473890603,False,False,False,2324.0752108017764,None,2324.0752108017764,None,2324.0752108017764,None,2324.0752108017764,None,2324.0752108017764,None,2324.0752108017764,None,2324.0752108017764,None,2324.0752108017764,None,2325.0911003716396,None,2325.0911003716396,None,2326.0744364049897,None,2326.0744364049897,None,c,,,,,,,,,,,,,,,,,,,,,,,,,,,,,,,,,,,,,,,,,,,,,,,43_44Exp,001,2021_May_13_1503,ComputerHuman,2020.1.3,60.01087688900545,
Computer.xlsx,c,Sychronize.jpg,Number7.jpg,7,Computer,,,,,1,1,11,1,0,7,7,2,,,,,,,,,,,,,,,,,,,,,,,,,,,,,2327.124229091848,None,2327.124229091848,None,2327.574506498485,None,2327.574506498485,None,v,7.5739005185637325,2327.574506498485,None,t,6.989554946403587,2327.574506498485,None,7.5739005185637325,6.989554946403587,6.6964360401154055,False,False,True,2335.224500002406,None,2335.224500002406,None,2335.224500002406,None,2335.224500002406,None,2335.224500002406,None,2335.224500002406,None,2335.224500002406,None,2335.224500002406,None,2336.2224141996267,None,2336.2224141996267,None,2337.205580212141,None,2337.205580212141,None,c,,,,,,,,,,,,,,,,,,,,,,,,,,,,,,,,,,,,,,,,,,,,,,,43_44Exp,001,2021_May_13_1503,ComputerHuman,2020.1.3,60.01087688900545,
Computer.xlsx,c,Sychronize.jpg,Number10.jpg,10,Computer,,,,,1,1,11,1,0,8,8,9,,,,,,,,,,,,,,,,,,,,,,,,,,,,,2338.2729068590575,None,2338.2729068590575,None,2338.705521346437,None,2338.705521346437,None,v,10.534458251062915,2338.705521346437,None,t,9.965385682641681,2338.705521346437,None,10.534458251062915,9.965385682641681,9.8378043660794,False,False,True,2349.3364686672453,None,2349.3364686672453,None,2349.3364686672453,None,2349.3364686672453,None,2349.3364686672453,None,2349.3364686672453,None,2349.3364686672453,None,2349.3364686672453,None,2350.319674137425,None,2350.319674137425,None,2351.3028962888943,None,2351.3028962888943,None,c,,,,,,,,,,,,,,,,,,,,,,,,,,,,,,,,,,,,,,,,,,,,,,,43_44Exp,001,2021_May_13_1503,ComputerHuman,2020.1.3,60.01087688900545,
Computer.xlsx,c,Sychronize.jpg,Number6.jpg,6,Computer,,,,,1,1,11,1,0,9,9,1,,,,,,,,,,,,,,,,,,,,,,,,,,,,,2352.353238816719,None,2352.353238816719,None,2352.8029221128136,None,2352.8029221128136,None,v,5.749123991703982,2352.8029221128136,None,t,5.3565330506071405,2352.8029221128136,None,5.749123991703982,5.3565330506071405,5.914967034370991,False,True,False,2358.635048993268,None,2358.635048993268,None,2358.635048993268,None,2358.635048993268,None,2358.635048993268,None,2358.635048993268,None,2358.635048993268,None,2358.635048993268,None,2359.6512779632144,None,2359.6512779632144,None,2360.6344715640153,None,2360.6344715640153,None,c,,,,,,,,,,,,,,,,,,,,,,,,,,,,,,,,,,,,,,,,,,,,,,,43_44Exp,001,2021_May_13_1503,ComputerHuman,2020.1.3,60.01087688900545,
Computer.xlsx,c,,,,,,,,,1,1,11,1,,,,,,,,,,,,,,,,,,,,,,,,,,,,,,,,,,,,,,,,,,,,,,,,,,,,,,,,,,,,,,,,,,,,,,,,,,,,,,,c,2361.6351538929157,None,2361.6351538929157,None,a,1,4.368395693019465,2361.6351538929157,None,o,0,2.359608182172451,2361.6351538929157,None,c,h,2366.0833900871435,None,2366.0833900871435,None,2368.0829858866664,None,None,None,None,None,None,None,None,,,,,,,,,,,,,,,,,,43_44Exp,001,2021_May_13_1503,ComputerHuman,2020.1.3,60.01087688900545,
