Condition,CorrectTuringReply,Sychronize,NumberImage,Number,Partner,trials.thisRepN,trials.thisTrialN,trials.thisN,trials.thisIndex,Block.thisRepN,Block.thisTrialN,Block.thisN,Block.thisIndex,trials_loop.thisRepN,trials_loop.thisTrialN,trials_loop.thisN,trials_loop.thisIndex,key_resp_Istr.keys,key_resp_Istr.rt,key_resp_Istr.started,key_resp_Istr.stopped,key_respPrLeft.keys,key_respPrLeft.rt,key_respPrRight.keys,key_respPrRight.rt,RTPrLeft,RTPrRight,CompPr,SychronizedRTsPr,SychronizedRTsLeftCPr,SychronizedRTsRightCPr,CreditLeftPr.started,CreditLeftPr.stopped,CreditRightPr.started,CreditRightPr.stopped,text_StartExp.started,text_StartExp.stopped,key_startExp.keys,key_startExp.rt,key_startExp.started,key_startExp.stopped,SychroLeft.started,SychroLeft.stopped,SychroRight.started,SychroRight.stopped,NumberLeft.started,NumberLeft.stopped,NumberRight.started,NumberRight.stopped,CrossLeft.started,CrossLeft.stopped,CrossRight.started,CrossRight.stopped,key_respLeft.keys,key_respLeft.rt,key_respLeft.started,key_respLeft.stopped,key_respRight.keys,key_respRight.rt,key_respRight.started,key_respRight.stopped,RTLeft,RTRight,Comp,SychronizedRTs,SychronizedRTsLeftC,SychronizedRTsRightC,FeedbackLeftLeft.started,FeedbackLeftLeft.stopped,FeedbackLeftRight.started,FeedbackLeftRight.stopped,FeedbackRightLeft.started,FeedbackRightLeft.stopped,FeedbackRightRight.started,FeedbackRightRight.stopped,textLeftLeft.started,textLeftLeft.stopped,textLeftRight.started,textLeftRight.stopped,textRightLeft.started,textRightLeft.stopped,textRightRight.started,textRightRight.stopped,CreditLeft.started,CreditLeft.stopped,CreditRight.started,CreditRight.stopped,BlankLeft.started,BlankLeft.stopped,BlankRight.started,BlankRight.stopped,CorrectTuringReply,TuringtextLeft.started,TuringtextLeft.stopped,TuringtextRight.started,TuringtextRight.stopped,keyTuringLeft.keys,keyTuringLeft.corr,keyTuringLeft.rt,keyTuringLeft.started,keyTuringLeft.stopped,keyTuringRight.keys,keyTuringRight.corr,keyTuringRight.rt,keyTuringRight.started,keyTuringRight.stopped,RespTuringLeft,RespTuringRight,ScoreLeft.started,ScoreLeft.stopped,ScoreRight.started,ScoreRight.stopped,BlockText.started,BlockText.stopped,text_Pause.started,text_Pause.stopped,text_LongPause.started,text_LongPause.stopped,key_respPause.keys,key_respPause.started,key_respPause.stopped,key_respPause.rt,QuestImageLeft.started,QuestImageLeft.stopped,QuestImageRight.started,QuestImageRight.stopped,respQuestLeft.keys,respQuestLeft.rt,respQuestLeft.started,respQuestLeft.stopped,respQuestRight.keys,respQuestRight.rt,respQuestRight.started,respQuestRight.stopped,RespInclusionLeft,RespInclusionRight,EndText.started,EndText.stopped,participant,session,date,expName,psychopyVersion,frameRate,
,,,,,,,,,,,,,,,,,,"['v', 't']","[218.7381520639376, 219.0222577658701]",23.33075064462969,None,,,,,,,,,,,,,,,,,,,,,,,,,,,,,,,,,,,,,,,,,,,,,,,,,,,,,,,,,,,,,,,,,,,,,,,,,,,,,,,,,,,,,,,,,,,,,,,,,,,,,,,,,,,,,,,,,,,,,,45_46Exp,001,2021_May_14_1053,ComputerHuman,2020.1.3,60.034549831500456,
,,,,,,,,,,,,,,,,,,,,,,v,5.534842719358494,t,5.6867193148930255,5.534842719358494,5.6867193148930255,8,False,False,False,296.3254245509087,None,296.3254245509087,None,297.3253613550727,None,"['space', 'space']","[68.27227845689254, 71.55626610772038]",298.3083369743118,None,,,,,,,,,,,,,,,,,,,,,,,,,,,,,,,,,,,,,,,,,,,,,,,,,,,,,,,,,,,,,,,,,,,,,,,,,,,,,,,,,,,,,,,,,,,,,,,,,,45_46Exp,001,2021_May_14_1053,ComputerHuman,2020.1.3,60.034549831500456,
Human.xlsx,h,Sychronize.jpg,Number9.jpg,9,Human,,,,,0,0,0,6,0,0,0,7,,,,,,,,,,,,,,,,,,,,,,,,,369.9638407541926,None,369.9638407541926,None,373.0098768354861,None,373.0098768354861,None,373.42677944396644,None,373.42677944396644,None,v,5.965326337522356,373.42677944396644,None,t,6.7566042856399235,373.42677944396644,None,5.965326337522356,6.7566042856399235,9.48848858958891,False,False,False,380.25975958635934,None,380.25975958635934,None,380.25975958635934,None,380.25975958635934,None,380.25975958635934,None,380.25975958635934,None,380.25975958635934,None,380.25975958635934,None,381.2626005118542,None,381.2626005118542,None,382.25803565528315,None,382.25803565528315,None,h,,,,,,,,,,,,,,,,,,,,,,,,,,,,,,,,,,,,,,,,,,,,,,,45_46Exp,001,2021_May_14_1053,ComputerHuman,2020.1.3,60.034549831500456,
Human.xlsx,h,Sychronize.jpg,Number10.jpg,10,Human,,,,,0,0,0,6,0,1,1,9,,,,,,,,,,,,,,,,,,,,,,,,,,,,,383.30820384602805,None,383.30820384602805,None,383.74141001779105,None,383.74141001779105,None,v,6.674393239777828,383.74141001779105,None,t,7.925485052099702,383.74141001779105,None,6.674393239777828,7.925485052099702,10.15865862134017,False,False,False,391.73986637128235,None,391.73986637128235,None,391.73986637128235,None,391.73986637128235,None,391.73986637128235,None,391.73986637128235,None,391.73986637128235,None,391.73986637128235,None,392.7416034547913,None,392.7416034547913,None,393.73900440574414,None,393.73900440574414,None,h,,,,,,,,,,,,,,,,,,,,,,,,,,,,,,,,,,,,,,,,,,,,,,,45_46Exp,001,2021_May_14_1053,ComputerHuman,2020.1.3,60.034549831500456,
Human.xlsx,h,Sychronize.jpg,Number6.jpg,6,Human,,,,,0,0,0,6,0,2,2,0,,,,,,,,,,,,,,,,,,,,,,,,,,,,,394.788815876847,None,394.788815876847,None,395.2389713642666,None,395.2389713642666,None,v,4.276508407612482,395.2389713642666,None,t,4.8716646553068585,395.2389713642666,None,4.276508407612482,4.8716646553068585,5.594813606602925,False,False,False,400.18944603877605,None,400.18944603877605,None,400.18944603877605,None,400.18944603877605,None,400.18944603877605,None,400.18944603877605,None,400.18944603877605,None,400.18944603877605,None,401.17322459800073,None,401.17322459800073,None,402.17066853495373,None,402.17066853495373,None,h,,,,,,,,,,,,,,,,,,,,,,,,,,,,,,,,,,,,,,,,,,,,,,,45_46Exp,001,2021_May_14_1053,ComputerHuman,2020.1.3,60.034549831500456,
Human.xlsx,h,Sychronize.jpg,Number7.jpg,7,Human,,,,,0,0,0,6,0,3,3,2,,,,,,,,,,,,,,,,,,,,,,,,,,,,,403.2209432283256,None,403.2209432283256,None,403.67057807187905,None,403.67057807187905,None,v,4.6246215467645015,403.67057807187905,None,t,5.2556431956691085,403.67057807187905,None,4.6246215467645015,5.2556431956691085,7.453726455963684,False,False,False,409.0192904487034,None,409.0192904487034,None,409.0192904487034,None,409.0192904487034,None,409.0192904487034,None,409.0192904487034,None,409.0192904487034,None,409.0192904487034,None,410.00468643637726,None,410.00468643637726,None,411.00217688803184,None,411.00217688803184,None,h,,,,,,,,,,,,,,,,,,,,,,,,,,,,,,,,,,,,,,,,,,,,,,,45_46Exp,001,2021_May_14_1053,ComputerHuman,2020.1.3,60.034549831500456,
Human.xlsx,h,Sychronize.jpg,Number10.jpg,10,Human,,,,,0,0,0,6,0,4,4,8,,,,,,,,,,,,,,,,,,,,,,,,,,,,,412.052774297195,None,412.052774297195,None,412.50245758019616,None,412.50245758019616,None,v,6.464488752103762,412.50245758019616,None,t,7.907508563517013,412.50245758019616,None,6.464488752103762,7.907508563517013,9.734342124193235,False,False,False,420.50036409783627,None,420.50036409783627,None,420.50036409783627,None,420.50036409783627,None,420.50036409783627,None,420.50036409783627,None,420.50036409783627,None,420.50036409783627,None,421.46921721210776,None,421.46921721210776,None,422.4665851215831,None,422.4665851215831,None,h,,,,,,,,,,,,,,,,,,,,,,,,,,,,,,,,,,,,,,,,,,,,,,,45_46Exp,001,2021_May_14_1053,ComputerHuman,2020.1.3,60.034549831500456,
Human.xlsx,h,Sychronize.jpg,Number9.jpg,9,Human,,,,,0,0,0,6,0,5,5,6,,,,,,,,,,,,,,,,,,,,,,,,,,,,,423.5327739379089,None,423.5327739379089,None,423.9836146350009,None,423.9836146350009,None,v,5.842828427475752,423.9836146350009,None,t,6.982550891895244,423.9836146350009,None,5.842828427475752,6.982550891895244,8.670359088889487,False,False,False,431.0328935929689,None,431.0328935929689,None,431.0328935929689,None,431.0328935929689,None,431.0328935929689,None,431.0328935929689,None,431.0328935929689,None,431.0328935929689,None,432.03310050319294,None,432.03310050319294,None,433.01442757725124,None,433.01442757725124,None,h,,,,,,,,,,,,,,,,,,,,,,,,,,,,,,,,,,,,,,,,,,,,,,,45_46Exp,001,2021_May_14_1053,ComputerHuman,2020.1.3,60.034549831500456,
Human.xlsx,h,Sychronize.jpg,Number8.jpg,8,Human,,,,,0,0,0,6,0,6,6,4,,,,,,,,,,,,,,,,,,,,,,,,,,,,,434.08148188781695,None,434.08148188781695,None,434.5147076278337,None,434.5147076278337,None,v,4.8794557074179465,434.5147076278337,None,t,5.938829959573923,434.5147076278337,None,4.8794557074179465,5.938829959573923,8.184534956395124,False,False,False,440.5143560408484,None,440.5143560408484,None,440.5143560408484,None,440.5143560408484,None,440.5143560408484,None,440.5143560408484,None,440.5143560408484,None,440.5143560408484,None,441.53198479193827,None,441.53198479193827,None,442.52916824656256,None,442.52916824656256,None,h,,,,,,,,,,,,,,,,,,,,,,,,,,,,,,,,,,,,,,,,,,,,,,,45_46Exp,001,2021_May_14_1053,ComputerHuman,2020.1.3,60.034549831500456,
Human.xlsx,h,Sychronize.jpg,Number7.jpg,7,Human,,,,,0,0,0,6,0,7,7,3,,,,,,,,,,,,,,,,,,,,,,,,,,,,,443.57926040982977,None,443.57926040982977,None,444.0289180295475,None,444.0289180295475,None,v,3.616964585310143,444.0289180295475,None,t,5.58867947649469,444.0289180295475,None,3.616964585310143,5.58867947649469,6.510805578720989,False,False,False,449.69449432745193,None,449.69449432745193,None,449.69449432745193,None,449.69449432745193,None,449.69449432745193,None,449.69449432745193,None,449.69449432745193,None,449.69449432745193,None,450.69642613112535,None,450.69642613112535,None,451.6772097851534,None,451.6772097851534,None,h,,,,,,,,,,,,,,,,,,,,,,,,,,,,,,,,,,,,,,,,,,,,,,,45_46Exp,001,2021_May_14_1053,ComputerHuman,2020.1.3,60.034549831500456,
Human.xlsx,h,Sychronize.jpg,Number6.jpg,6,Human,,,,,0,0,0,6,0,8,8,1,,,,,,,,,,,,,,,,,,,,,,,,,,,,,452.74384161391265,None,452.74384161391265,None,453.1774535863477,None,453.1774535863477,None,v,2.2921379889096443,453.1774535863477,None,t,4.707614681194627,453.1774535863477,None,2.2921379889096443,4.707614681194627,6.418511065032058,False,False,False,457.97596793885975,None,457.97596793885975,None,457.97596793885975,None,457.97596793885975,None,457.97596793885975,None,457.97596793885975,None,457.97596793885975,None,457.97596793885975,None,458.9612988059515,None,458.9612988059515,None,459.95895735211377,None,459.95895735211377,None,h,,,,,,,,,,,,,,,,,,,,,,,,,,,,,,,,,,,,,,,,,,,,,,,45_46Exp,001,2021_May_14_1053,ComputerHuman,2020.1.3,60.034549831500456,
Human.xlsx,h,Sychronize.jpg,Number8.jpg,8,Human,,,,,0,0,0,6,0,9,9,5,,,,,,,,,,,,,,,,,,,,,,,,,,,,,461.0086703403657,None,461.0086703403657,None,461.4590901596065,None,461.4590901596065,None,v,5.702120172175,461.4590901596065,None,t,6.2654882728418215,461.4590901596065,None,5.702120172175,6.2654882728418215,7.7824962259410535,False,False,False,467.79120994041625,None,467.79120994041625,None,467.79120994041625,None,467.79120994041625,None,467.79120994041625,None,467.79120994041625,None,467.79120994041625,None,467.79120994041625,None,468.7760252962986,None,468.7760252962986,None,469.77359722887866,None,469.77359722887866,None,h,,,,,,,,,,,,,,,,,,,,,,,,,,,,,,,,,,,,,,,,,,,,,,,45_46Exp,001,2021_May_14_1053,ComputerHuman,2020.1.3,60.034549831500456,
Human.xlsx,h,,,,,,,,,0,0,0,6,,,,,,,,,,,,,,,,,,,,,,,,,,,,,,,,,,,,,,,,,,,,,,,,,,,,,,,,,,,,,,,,,,,,,,,,,,,,,,,h,470.7744518162227,None,470.7744518162227,None,q,0,15.230072941467824,470.7744518162227,None,l,0,42.26473280993082,470.7744518162227,None,h,c,513.1484505471734,None,513.1484505471734,None,515.1310473121881,None,None,None,None,None,None,None,None,,,,,,,,,,,,,,,,,,45_46Exp,001,2021_May_14_1053,ComputerHuman,2020.1.3,60.034549831500456,
Human.xlsx,h,Sychronize.jpg,Number10.jpg,10,Human,,,,,0,1,1,0,0,0,0,8,,,,,,,,,,,,,,,,,,,,,,,,,520.1328443836225,None,520.1328443836225,None,523.2133234786326,None,523.2133234786326,None,523.6295376695301,None,523.6295376695301,None,v,7.657451943897513,523.6295376695301,None,t,8.360436006356622,523.6295376695301,None,7.657451943897513,8.360436006356622,9.332099040962797,False,False,False,532.0776513219479,None,532.0776513219479,None,532.0776513219479,None,532.0776513219479,None,532.0776513219479,None,532.0776513219479,None,532.0776513219479,None,532.0776513219479,None,533.0626658890693,None,533.0626658890693,None,534.0439246346351,None,534.0439246346351,None,h,,,,,,,,,,,,,,,,,,,,,,,,,,,,,,,,,,,,,,,,,,,,,,,45_46Exp,001,2021_May_14_1053,ComputerHuman,2020.1.3,60.034549831500456,
Human.xlsx,h,Sychronize.jpg,Number10.jpg,10,Human,,,,,0,1,1,0,0,1,1,9,,,,,,,,,,,,,,,,,,,,,,,,,,,,,535.1108977850662,None,535.1108977850662,None,535.560706818157,None,535.560706818157,None,v,8.441853735964514,535.560706818157,None,t,7.357503334622834,535.560706818157,None,8.441853735964514,7.357503334622834,9.913588487282345,False,False,False,544.0757175935283,None,544.0757175935283,None,544.0757175935283,None,544.0757175935283,None,544.0757175935283,None,544.0757175935283,None,544.0757175935283,None,544.0757175935283,None,545.0771701353802,None,545.0771701353802,None,546.074726028408,None,546.074726028408,None,h,,,,,,,,,,,,,,,,,,,,,,,,,,,,,,,,,,,,,,,,,,,,,,,45_46Exp,001,2021_May_14_1053,ComputerHuman,2020.1.3,60.034549831500456,
Human.xlsx,h,Sychronize.jpg,Number7.jpg,7,Human,,,,,0,1,1,0,0,2,2,3,,,,,,,,,,,,,,,,,,,,,,,,,,,,,547.1246905168392,None,547.1246905168392,None,547.5748142459455,None,547.5748142459455,None,v,5.243491951673377,547.5748142459455,None,t,5.786550129695797,547.5748142459455,None,5.243491951673377,5.786550129695797,6.678070105932347,False,False,False,553.4419852602931,None,553.4419852602931,None,553.4419852602931,None,553.4419852602931,None,553.4419852602931,None,553.4419852602931,None,553.4419852602931,None,553.4419852602931,None,554.4247129080542,None,554.4247129080542,None,555.4229225732319,None,555.4229225732319,None,h,,,,,,,,,,,,,,,,,,,,,,,,,,,,,,,,,,,,,,,,,,,,,,,45_46Exp,001,2021_May_14_1053,ComputerHuman,2020.1.3,60.034549831500456,
Human.xlsx,h,Sychronize.jpg,Number9.jpg,9,Human,,,,,0,1,1,0,0,3,3,7,,,,,,,,,,,,,,,,,,,,,,,,,,,,,556.5067484812149,None,556.5067484812149,None,556.9230095076051,None,556.9230095076051,None,v,6.322928475786966,556.9230095076051,None,t,6.930501582462284,556.9230095076051,None,6.322928475786966,6.930501582462284,9.535409147078907,False,False,False,563.937840960782,None,563.937840960782,None,563.937840960782,None,563.937840960782,None,563.937840960782,None,563.937840960782,None,563.937840960782,None,563.937840960782,None,564.9233819460084,None,564.9233819460084,None,565.9207751979762,None,565.9207751979762,None,h,,,,,,,,,,,,,,,,,,,,,,,,,,,,,,,,,,,,,,,,,,,,,,,45_46Exp,001,2021_May_14_1053,ComputerHuman,2020.1.3,60.034549831500456,
Human.xlsx,h,Sychronize.jpg,Number8.jpg,8,Human,,,,,0,1,1,0,0,4,4,4,,,,,,,,,,,,,,,,,,,,,,,,,,,,,566.9710697803929,None,566.9710697803929,None,567.4041142734692,None,567.4041142734692,None,v,6.129426675828427,567.4041142734692,None,t,6.272543109504568,567.4041142734692,None,6.129426675828427,6.272543109504568,7.470135717077434,True,False,False,573.7525109919053,None,573.7525109919053,None,573.7525109919053,None,573.7525109919053,None,573.7525109919053,None,573.7525109919053,None,573.7525109919053,None,573.7525109919053,None,574.7543921105934,None,574.7543921105934,None,575.7520788863675,None,575.7520788863675,None,h,,,,,,,,,,,,,,,,,,,,,,,,,,,,,,,,,,,,,,,,,,,,,,,45_46Exp,001,2021_May_14_1053,ComputerHuman,2020.1.3,60.034549831500456,
Human.xlsx,h,Sychronize.jpg,Number9.jpg,9,Human,,,,,0,1,1,0,0,5,5,6,,,,,,,,,,,,,,,,,,,,,,,,,,,,,576.8023121976945,None,576.8023121976945,None,577.2522020701289,None,577.2522020701289,None,v,6.485173679479658,577.2522020701289,None,t,6.468554137017463,577.2522020701289,None,6.485173679479658,6.468554137017463,8.871634242161921,True,False,False,583.8172973097822,None,583.8172973097822,None,583.8172973097822,None,583.8172973097822,None,583.8172973097822,None,583.8172973097822,None,583.8172973097822,None,583.8172973097822,None,584.8191097791868,None,584.8191097791868,None,585.8000871910061,None,585.8000871910061,None,h,,,,,,,,,,,,,,,,,,,,,,,,,,,,,,,,,,,,,,,,,,,,,,,45_46Exp,001,2021_May_14_1053,ComputerHuman,2020.1.3,60.034549831500456,
Human.xlsx,h,Sychronize.jpg,Number7.jpg,7,Human,,,,,0,1,1,0,0,6,6,2,,,,,,,,,,,,,,,,,,,,,,,,,,,,,586.8670452642581,None,586.8670452642581,None,587.3003361248572,None,587.3003361248572,None,v,4.932561060971466,587.3003361248572,None,t,5.087763618061217,587.3003361248572,None,4.932561060971466,5.087763618061217,7.43854419736398,True,False,False,592.4658084864631,None,592.4658084864631,None,592.4658084864631,None,592.4658084864631,None,592.4658084864631,None,592.4658084864631,None,592.4658084864631,None,592.4658084864631,None,593.4674583148077,None,593.4674583148077,None,594.4650209444475,None,594.4650209444475,None,h,,,,,,,,,,,,,,,,,,,,,,,,,,,,,,,,,,,,,,,,,,,,,,,45_46Exp,001,2021_May_14_1053,ComputerHuman,2020.1.3,60.034549831500456,
Human.xlsx,h,Sychronize.jpg,Number6.jpg,6,Human,,,,,0,1,1,0,0,7,7,0,,,,,,,,,,,,,,,,,,,,,,,,,,,,,595.515001793222,None,595.515001793222,None,595.9650318513428,None,595.9650318513428,None,v,4.2317012768126006,595.9650318513428,None,t,4.422703472948115,595.9650318513428,None,4.2317012768126006,4.422703472948115,5.5818384353644905,True,False,False,600.4803374336844,None,600.4803374336844,None,600.4803374336844,None,600.4803374336844,None,600.4803374336844,None,600.4803374336844,None,600.4803374336844,None,600.4803374336844,None,601.4660343233587,None,601.4660343233587,None,602.4470120559691,None,602.4470120559691,None,h,,,,,,,,,,,,,,,,,,,,,,,,,,,,,,,,,,,,,,,,,,,,,,,45_46Exp,001,2021_May_14_1053,ComputerHuman,2020.1.3,60.034549831500456,
Human.xlsx,h,Sychronize.jpg,Number6.jpg,6,Human,,,,,0,1,1,0,0,8,8,1,,,,,,,,,,,,,,,,,,,,,,,,,,,,,603.4969486355795,None,603.4969486355795,None,603.9468805316407,None,603.9468805316407,None,v,3.881542132374989,603.9468805316407,None,t,4.484625768374826,603.9468805316407,None,3.881542132374989,4.484625768374826,6.1021922616037445,False,False,False,608.5123260751151,None,608.5123260751151,None,608.5123260751151,None,608.5123260751151,None,608.5123260751151,None,608.5123260751151,None,608.5123260751151,None,608.5123260751151,None,609.5139322758777,None,609.5139322758777,None,610.511719138458,None,610.511719138458,None,h,,,,,,,,,,,,,,,,,,,,,,,,,,,,,,,,,,,,,,,,,,,,,,,45_46Exp,001,2021_May_14_1053,ComputerHuman,2020.1.3,60.034549831500456,
Human.xlsx,h,Sychronize.jpg,Number8.jpg,8,Human,,,,,0,1,1,0,0,9,9,5,,,,,,,,,,,,,,,,,,,,,,,,,,,,,611.5627425581289,None,611.5627425581289,None,612.0116132774132,None,612.0116132774132,None,v,6.276408641597527,612.0116132774132,None,t,5.891574551518261,612.0116132774132,None,6.276408641597527,5.891574551518261,7.429683475998988,False,False,False,618.3767761398188,None,618.3767761398188,None,618.3767761398188,None,618.3767761398188,None,618.3767761398188,None,618.3767761398188,None,618.3767761398188,None,618.3767761398188,None,619.3455602840155,None,619.3455602840155,None,620.3430946840434,None,620.3430946840434,None,h,,,,,,,,,,,,,,,,,,,,,,,,,,,,,,,,,,,,,,,,,,,,,,,45_46Exp,001,2021_May_14_1053,ComputerHuman,2020.1.3,60.034549831500456,
Human.xlsx,h,,,,,,,,,0,1,1,0,,,,,,,,,,,,,,,,,,,,,,,,,,,,,,,,,,,,,,,,,,,,,,,,,,,,,,,,,,,,,,,,,,,,,,,,,,,,,,,h,621.3442870643577,None,621.3442870643577,None,q,0,5.563407878756379,621.3442870643577,None,o,1,7.14654921864917,621.3442870643577,None,h,h,628.5751199598113,None,628.5751199598113,None,630.5743045089747,None,None,None,None,None,None,None,None,,,,,,,,,,,,,,,,,,45_46Exp,001,2021_May_14_1053,ComputerHuman,2020.1.3,60.034549831500456,
Computer.xlsx,c,Sychronize.jpg,Number6.jpg,6,Computer,,,,,0,2,2,9,0,0,0,1,,,,,,,,,,,,,,,,,,,,,,,,,635.5597954507981,None,635.5597954507981,None,638.6396015261954,None,638.6396015261954,None,639.0727098566898,None,639.0727098566898,None,v,4.318439005111486,639.0727098566898,None,t,4.789645763280532,639.0727098566898,None,4.318439005111486,4.789645763280532,6.0847734555698265,False,False,False,643.9387863319918,None,643.9387863319918,None,643.9387863319918,None,643.9387863319918,None,643.9387863319918,None,643.9387863319918,None,643.9387863319918,None,643.9387863319918,None,644.9713398864529,None,644.9713398864529,None,645.9544759012143,None,645.9544759012143,None,c,,,,,,,,,,,,,,,,,,,,,,,,,,,,,,,,,,,,,,,,,,,,,,,45_46Exp,001,2021_May_14_1053,ComputerHuman,2020.1.3,60.034549831500456,
Computer.xlsx,c,Sychronize.jpg,Number9.jpg,9,Computer,,,,,0,2,2,9,0,1,1,7,,,,,,,,,,,,,,,,,,,,,,,,,,,,,647.0048827604968,None,647.0048827604968,None,647.454372927289,None,647.454372927289,None,v,6.5204090470774645,647.454372927289,None,t,7.379521148791127,647.454372927289,None,6.5204090470774645,7.379521148791127,9.030309595104265,False,False,False,654.8872858960368,None,654.8872858960368,None,654.8872858960368,None,654.8872858960368,None,654.8872858960368,None,654.8872858960368,None,654.8872858960368,None,654.8872858960368,None,655.902495882647,None,655.902495882647,None,656.8856768081547,None,656.8856768081547,None,c,,,,,,,,,,,,,,,,,,,,,,,,,,,,,,,,,,,,,,,,,,,,,,,45_46Exp,001,2021_May_14_1053,ComputerHuman,2020.1.3,60.034549831500456,
Computer.xlsx,c,Sychronize.jpg,Number10.jpg,10,Computer,,,,,0,2,2,9,0,2,2,8,,,,,,,,,,,,,,,,,,,,,,,,,,,,,657.9530217554071,None,657.9530217554071,None,658.402389059229,None,658.402389059229,None,v,8.22399844223878,658.402389059229,None,t,7.835502201588952,658.402389059229,None,8.22399844223878,7.835502201588952,9.290463860714784,False,False,False,666.6834895906514,None,666.6834895906514,None,666.6834895906514,None,666.6834895906514,None,666.6834895906514,None,666.6834895906514,None,666.6834895906514,None,666.6834895906514,None,667.7000837906211,None,667.7000837906211,None,668.6832560547706,None,668.6832560547706,None,c,,,,,,,,,,,,,,,,,,,,,,,,,,,,,,,,,,,,,,,,,,,,,,,45_46Exp,001,2021_May_14_1053,ComputerHuman,2020.1.3,60.034549831500456,
Computer.xlsx,c,Sychronize.jpg,Number10.jpg,10,Computer,,,,,0,2,2,9,0,3,3,9,,,,,,,,,,,,,,,,,,,,,,,,,,,,,669.7332407530379,None,669.7332407530379,None,670.1836066793829,None,670.1836066793829,None,v,8.790334822445402,670.1836066793829,None,t,7.845504466373541,670.1836066793829,None,8.790334822445402,7.845504466373541,9.873206022068562,False,False,False,679.0643917448916,None,679.0643917448916,None,679.0643917448916,None,679.0643917448916,None,679.0643917448916,None,679.0643917448916,None,679.0643917448916,None,679.0643917448916,None,680.0640590845779,None,680.0640590845779,None,681.0474353718322,None,681.0474353718322,None,c,,,,,,,,,,,,,,,,,,,,,,,,,,,,,,,,,,,,,,,,,,,,,,,45_46Exp,001,2021_May_14_1053,ComputerHuman,2020.1.3,60.034549831500456,
Computer.xlsx,c,Sychronize.jpg,Number8.jpg,8,Computer,,,,,0,2,2,9,0,4,4,4,,,,,,,,,,,,,,,,,,,,,,,,,,,,,682.0969693586809,None,682.0969693586809,None,682.5472817129215,None,682.5472817129215,None,v,8.458241025710095,682.5472817129215,None,t,7.477432670771577,682.5472817129215,None,8.458241025710095,7.477432670771577,8.221940581338222,False,True,False,691.0953910667394,None,691.0953910667394,None,691.0953910667394,None,691.0953910667394,None,691.0953910667394,None,691.0953910667394,None,691.0953910667394,None,691.0953910667394,None,692.0951722872466,None,692.0951722872466,None,693.078328511844,None,693.078328511844,None,c,,,,,,,,,,,,,,,,,,,,,,,,,,,,,,,,,,,,,,,,,,,,,,,45_46Exp,001,2021_May_14_1053,ComputerHuman,2020.1.3,60.034549831500456,
Computer.xlsx,c,Sychronize.jpg,Number9.jpg,9,Computer,,,,,0,2,2,9,0,5,5,6,,,,,,,,,,,,,,,,,,,,,,,,,,,,,694.1286343219473,None,694.1286343219473,None,694.5783301157991,None,694.5783301157991,None,v,9.446765046864357,694.5783301157991,None,t,7.330499786032533,694.5783301157991,None,9.446765046864357,7.330499786032533,9.251272739162504,False,True,False,704.0931349433196,None,704.0931349433196,None,704.0931349433196,None,704.0931349433196,None,704.0931349433196,None,704.0931349433196,None,704.0931349433196,None,704.0931349433196,None,705.092383971483,None,705.092383971483,None,706.0756903262894,None,706.0756903262894,None,c,,,,,,,,,,,,,,,,,,,,,,,,,,,,,,,,,,,,,,,,,,,,,,,45_46Exp,001,2021_May_14_1053,ComputerHuman,2020.1.3,60.034549831500456,
Computer.xlsx,c,Sychronize.jpg,Number8.jpg,8,Computer,,,,,0,2,2,9,0,6,6,5,,,,,,,,,,,,,,,,,,,,,,,,,,,,,707.1421810069888,None,707.1421810069888,None,707.5922951123636,None,707.5922951123636,None,v,8.764480668169199,707.5922951123636,None,t,6.6155665779358515,707.5922951123636,None,8.764480668169199,6.6155665779358515,8.02569859059327,False,False,False,716.4248633590545,None,716.4248633590545,None,716.4248633590545,None,716.4248633590545,None,716.4248633590545,None,716.4248633590545,None,716.4248633590545,None,716.4248633590545,None,717.4233492253217,None,717.4233492253217,None,718.4065330379491,None,718.4065330379491,None,c,,,,,,,,,,,,,,,,,,,,,,,,,,,,,,,,,,,,,,,,,,,,,,,45_46Exp,001,2021_May_14_1053,ComputerHuman,2020.1.3,60.034549831500456,
Computer.xlsx,c,Sychronize.jpg,Number7.jpg,7,Computer,,,,,0,2,2,9,0,7,7,3,,,,,,,,,,,,,,,,,,,,,,,,,,,,,719.4566505437089,None,719.4566505437089,None,719.9068365062775,None,719.9068365062775,None,v,6.89749442946345,719.9068365062775,None,t,6.1524886648485335,719.9068365062775,None,6.89749442946345,6.1524886648485335,7.038842755071193,False,True,False,726.8882197187689,None,726.8882197187689,None,726.8882197187689,None,726.8882197187689,None,726.8882197187689,None,726.8882197187689,None,726.8882197187689,None,726.8882197187689,None,727.8878196923357,None,727.8878196923357,None,728.8710747205749,None,728.8710747205749,None,c,,,,,,,,,,,,,,,,,,,,,,,,,,,,,,,,,,,,,,,,,,,,,,,45_46Exp,001,2021_May_14_1053,ComputerHuman,2020.1.3,60.034549831500456,
Computer.xlsx,c,Sychronize.jpg,Number6.jpg,6,Computer,,,,,0,2,2,9,0,8,8,0,,,,,,,,,,,,,,,,,,,,,,,,,,,,,729.9214225543052,None,729.9214225543052,None,730.3713695275454,None,730.3713695275454,None,v,5.900646201481095,730.3713695275454,None,t,5.591524893064388,730.3713695275454,None,5.900646201481095,5.591524893064388,6.150422428462424,False,True,False,736.3695121473946,None,736.3695121473946,None,736.3695121473946,None,736.3695121473946,None,736.3695121473946,None,736.3695121473946,None,736.3695121473946,None,736.3695121473946,None,737.352711037201,None,737.352711037201,None,738.3358306916192,None,738.3358306916192,None,c,,,,,,,,,,,,,,,,,,,,,,,,,,,,,,,,,,,,,,,,,,,,,,,45_46Exp,001,2021_May_14_1053,ComputerHuman,2020.1.3,60.034549831500456,
Computer.xlsx,c,Sychronize.jpg,Number7.jpg,7,Computer,,,,,0,2,2,9,0,9,9,2,,,,,,,,,,,,,,,,,,,,,,,,,,,,,739.3860726643044,None,739.3860726643044,None,739.8360610195895,None,739.8360610195895,None,v,6.159594828078525,739.8360610195895,None,t,6.186461398892561,739.8360610195895,None,6.159594828078525,6.186461398892561,6.540856870295941,False,False,False,746.1027461638204,None,746.1027461638204,None,746.1027461638204,None,746.1027461638204,None,746.1027461638204,None,746.1027461638204,None,746.1027461638204,None,746.1027461638204,None,747.1173915581911,None,747.1173915581911,None,748.1005115334004,None,748.1005115334004,None,c,,,,,,,,,,,,,,,,,,,,,,,,,,,,,,,,,,,,,,,,,,,,,,,45_46Exp,001,2021_May_14_1053,ComputerHuman,2020.1.3,60.034549831500456,
Computer.xlsx,c,,,,,,,,,0,2,2,9,,,,,,,,,,,,,,,,,,,,,,,,,,,,,,,,,,,,,,,,,,,,,,,,,,,,,,,,,,,,,,,,,,,,,,,,,,,,,,,c,749.1008762728187,None,749.1008762728187,None,a,0,4.302563056291547,749.1008762728187,None,l,1,10.32541171926664,749.1008762728187,None,c,c,759.5148728352218,None,759.5148728352218,None,761.5144307851618,None,None,None,None,None,None,None,None,,,,,,,,,,,,,,,,,,45_46Exp,001,2021_May_14_1053,ComputerHuman,2020.1.3,60.034549831500456,
Computer.xlsx,c,Sychronize.jpg,Number7.jpg,7,Computer,,,,,0,3,3,7,0,0,0,2,,,,,,,,,,,,,,,,,,,,,,,,,766.5165441565665,None,766.5165441565665,None,769.5798952553081,None,769.5798952553081,None,770.0132201197576,None,770.0132201197576,None,v,5.7094245842708915,770.0132201197576,None,t,5.296537958883619,770.0132201197576,None,5.7094245842708915,5.296537958883619,7.258967754639804,False,False,False,775.7966544060329,None,775.7966544060329,None,775.7966544060329,None,775.7966544060329,None,775.7966544060329,None,775.7966544060329,None,775.7966544060329,None,775.7966544060329,None,776.8279729149705,None,776.8279729149705,None,777.8111191950455,None,777.8111191950455,None,c,,,,,,,,,,,,,,,,,,,,,,,,,,,,,,,,,,,,,,,,,,,,,,,45_46Exp,001,2021_May_14_1053,ComputerHuman,2020.1.3,60.034549831500456,
Computer.xlsx,c,Sychronize.jpg,Number9.jpg,9,Computer,,,,,0,3,3,7,0,1,1,6,,,,,,,,,,,,,,,,,,,,,,,,,,,,,778.8777215110284,None,778.8777215110284,None,779.311079416956,None,779.311079416956,None,v,8.755255359295461,779.311079416956,None,t,6.986537362212175,779.311079416956,None,8.755255359295461,6.986537362212175,9.267077802413327,False,False,False,788.1433089083033,None,788.1433089083033,None,788.1433089083033,None,788.1433089083033,None,788.1433089083033,None,788.1433089083033,None,788.1433089083033,None,788.1433089083033,None,789.1421601555709,None,789.1421601555709,None,790.1253628948697,None,790.1253628948697,None,c,,,,,,,,,,,,,,,,,,,,,,,,,,,,,,,,,,,,,,,,,,,,,,,45_46Exp,001,2021_May_14_1053,ComputerHuman,2020.1.3,60.034549831500456,
Computer.xlsx,c,Sychronize.jpg,Number8.jpg,8,Computer,,,,,0,3,3,7,0,2,2,5,,,,,,,,,,,,,,,,,,,,,,,,,,,,,791.1922991543307,None,791.1922991543307,None,791.6422801314217,None,791.6422801314217,None,v,8.659549275749896,791.6422801314217,None,t,8.25054710912741,791.6422801314217,None,8.659549275749896,8.25054710912741,8.278073091164275,False,False,True,800.3899189489347,None,800.3899189489347,None,800.3899189489347,None,800.3899189489347,None,800.3899189489347,None,800.3899189489347,None,800.3899189489347,None,800.3899189489347,None,801.389687658591,None,801.389687658591,None,802.3561248955024,None,802.3561248955024,None,c,,,,,,,,,,,,,,,,,,,,,,,,,,,,,,,,,,,,,,,,,,,,,,,45_46Exp,001,2021_May_14_1053,ComputerHuman,2020.1.3,60.034549831500456,
Computer.xlsx,c,Sychronize.jpg,Number8.jpg,8,Computer,,,,,0,3,3,7,0,3,3,4,,,,,,,,,,,,,,,,,,,,,,,,,,,,,803.4059909010829,None,803.4059909010829,None,803.8561268202487,None,803.8561268202487,None,v,8.17320053867229,803.8561268202487,None,t,8.52850485068143,803.8561268202487,None,8.17320053867229,8.52850485068143,7.77276102245829,False,False,False,812.4556586577975,None,812.4556586577975,None,812.4556586577975,None,812.4556586577975,None,812.4556586577975,None,812.4556586577975,None,812.4556586577975,None,812.4556586577975,None,813.4705751206014,None,813.4705751206014,None,814.4536774523032,None,814.4536774523032,None,c,,,,,,,,,,,,,,,,,,,,,,,,,,,,,,,,,,,,,,,,,,,,,,,45_46Exp,001,2021_May_14_1053,ComputerHuman,2020.1.3,60.034549831500456,
Computer.xlsx,c,Sychronize.jpg,Number10.jpg,10,Computer,,,,,0,3,3,7,0,4,4,9,,,,,,,,,,,,,,,,,,,,,,,,,,,,,815.5035858023017,None,815.5035858023017,None,815.9537098521988,None,815.9537098521988,None,v,10.407237174292732,815.9537098521988,None,t,9.774407867849504,815.9537098521988,None,10.407237174292732,9.774407867849504,9.813949633864151,False,False,True,826.451154751525,None,826.451154751525,None,826.451154751525,None,826.451154751525,None,826.451154751525,None,826.451154751525,None,826.451154751525,None,826.451154751525,None,827.4510508152263,None,827.4510508152263,None,828.4342920494506,None,828.4342920494506,None,c,,,,,,,,,,,,,,,,,,,,,,,,,,,,,,,,,,,,,,,,,,,,,,,45_46Exp,001,2021_May_14_1053,ComputerHuman,2020.1.3,60.034549831500456,
Computer.xlsx,c,Sychronize.jpg,Number10.jpg,10,Computer,,,,,0,3,3,7,0,5,5,8,,,,,,,,,,,,,,,,,,,,,,,,,,,,,829.4670717615985,None,829.4670717615985,None,829.9339937137787,None,829.9339937137787,None,v,8.92648014592146,829.9339937137787,None,t,9.277436135314701,829.9339937137787,None,8.92648014592146,9.277436135314701,9.740216827699731,False,False,False,839.2819971423934,None,839.2819971423934,None,839.2819971423934,None,839.2819971423934,None,839.2819971423934,None,839.2819971423934,None,839.2819971423934,None,839.2819971423934,None,840.2816397811692,None,840.2816397811692,None,841.2816137970946,None,841.2816137970946,None,c,,,,,,,,,,,,,,,,,,,,,,,,,,,,,,,,,,,,,,,,,,,,,,,45_46Exp,001,2021_May_14_1053,ComputerHuman,2020.1.3,60.034549831500456,
Computer.xlsx,c,Sychronize.jpg,Number6.jpg,6,Computer,,,,,0,3,3,7,0,6,6,0,,,,,,,,,,,,,,,,,,,,,,,,,,,,,842.3316754852125,None,842.3316754852125,None,842.7816721810647,None,842.7816721810647,None,v,4.8185198444548405,842.7816721810647,None,t,5.83357649294544,842.7816721810647,None,4.8185198444548405,5.83357649294544,6.003027051967029,False,False,True,848.6980268784401,None,848.6980268784401,None,848.6980268784401,None,848.6980268784401,None,848.6980268784401,None,848.6980268784401,None,848.6980268784401,None,848.6980268784401,None,849.7131986909159,None,849.7131986909159,None,850.6796670445586,None,850.6796670445586,None,c,,,,,,,,,,,,,,,,,,,,,,,,,,,,,,,,,,,,,,,,,,,,,,,45_46Exp,001,2021_May_14_1053,ComputerHuman,2020.1.3,60.034549831500456,
Computer.xlsx,c,Sychronize.jpg,Number7.jpg,7,Computer,,,,,0,3,3,7,0,7,7,3,,,,,,,,,,,,,,,,,,,,,,,,,,,,,851.7465699417509,None,851.7465699417509,None,852.1799942514245,None,852.1799942514245,None,v,7.151806021504626,852.1799942514245,None,t,6.1915927724494395,852.1799942514245,None,7.151806021504626,6.1915927724494395,6.66310651304473,False,False,False,859.4280083944601,None,859.4280083944601,None,859.4280083944601,None,859.4280083944601,None,859.4280083944601,None,859.4280083944601,None,859.4280083944601,None,859.4280083944601,None,860.4275952155941,None,860.4275952155941,None,861.4108726992064,None,861.4108726992064,None,c,,,,,,,,,,,,,,,,,,,,,,,,,,,,,,,,,,,,,,,,,,,,,,,45_46Exp,001,2021_May_14_1053,ComputerHuman,2020.1.3,60.034549831500456,
Computer.xlsx,c,Sychronize.jpg,Number6.jpg,6,Computer,,,,,0,3,3,7,0,8,8,1,,,,,,,,,,,,,,,,,,,,,,,,,,,,,862.461116917429,None,862.461116917429,None,862.9110581164306,None,862.9110581164306,None,v,5.500439483731725,862.9110581164306,None,t,6.387921703887969,862.9110581164306,None,5.500439483731725,6.387921703887969,6.269862706381014,False,False,True,869.3767655537143,None,869.3767655537143,None,869.3767655537143,None,869.3767655537143,None,869.3767655537143,None,869.3767655537143,None,869.3767655537143,None,869.3767655537143,None,870.3755125438923,None,870.3755125438923,None,871.3588108789226,None,871.3588108789226,None,c,,,,,,,,,,,,,,,,,,,,,,,,,,,,,,,,,,,,,,,,,,,,,,,45_46Exp,001,2021_May_14_1053,ComputerHuman,2020.1.3,60.034549831500456,
Computer.xlsx,c,Sychronize.jpg,Number9.jpg,9,Computer,,,,,0,3,3,7,0,9,9,7,,,,,,,,,,,,,,,,,,,,,,,,,,,,,872.4086226708165,None,872.4086226708165,None,872.8587165663554,None,872.8587165663554,None,v,9.372387076740097,872.8587165663554,None,t,8.16751227186137,872.8587165663554,None,9.372387076740097,8.16751227186137,9.654458873997767,False,True,False,882.3071760315196,None,882.3071760315196,None,882.3071760315196,None,882.3071760315196,None,882.3071760315196,None,882.3071760315196,None,882.3071760315196,None,882.3071760315196,None,883.3230956079216,None,883.3230956079216,None,884.2895626783999,None,884.2895626783999,None,c,,,,,,,,,,,,,,,,,,,,,,,,,,,,,,,,,,,,,,,,,,,,,,,45_46Exp,001,2021_May_14_1053,ComputerHuman,2020.1.3,60.034549831500456,
Computer.xlsx,c,,,,,,,,,0,3,3,7,,,,,,,,,,,,,,,,,,,,,,,,,,,,,,,,,,,,,,,,,,,,,,,,,,,,,,,,,,,,,,,,,,,,,,,,,,,,,,,c,885.2899184356689,None,885.2899184356689,None,q,0,3.564997719175608,885.2899184356689,None,l,1,5.631593940128823,885.2899184356689,None,h,c,891.0051605655418,None,891.0051605655418,None,893.0044506549592,None,None,None,None,None,None,None,None,,,,,,,,,,,,,,,,,,45_46Exp,001,2021_May_14_1053,ComputerHuman,2020.1.3,60.034549831500456,
Human.xlsx,h,Sychronize.jpg,Number7.jpg,7,Human,,,,,0,4,4,8,0,0,0,2,,,,,,,,,,,,,,,,,,,,,,,,,898.0057014192438,None,898.0057014192438,None,901.0696594546424,None,901.0696594546424,None,901.5032277994954,None,901.5032277994954,None,v,6.115018025248673,901.5032277994954,None,t,5.478549665190485,901.5032277994954,None,6.115018025248673,5.478549665190485,7.309463178532277,False,False,False,907.718119625547,None,907.718119625547,None,907.718119625547,None,907.718119625547,None,907.718119625547,None,907.718119625547,None,907.718119625547,None,907.718119625547,None,908.7039252633855,None,908.7039252633855,None,909.7010320489502,None,909.7010320489502,None,h,,,,,,,,,,,,,,,,,,,,,,,,,,,,,,,,,,,,,,,,,,,,,,,45_46Exp,001,2021_May_14_1053,ComputerHuman,2020.1.3,60.034549831500456,
Human.xlsx,h,Sychronize.jpg,Number6.jpg,6,Human,,,,,0,4,4,8,0,1,1,1,,,,,,,,,,,,,,,,,,,,,,,,,,,,,910.7512445088593,None,910.7512445088593,None,911.2009367740098,None,911.2009367740098,None,v,4.060959922291659,911.2009367740098,None,t,5.312574624016861,911.2009367740098,None,4.060959922291659,5.312574624016861,5.763903289186838,False,False,False,916.5996659282058,None,916.5996659282058,None,916.5996659282058,None,916.5996659282058,None,916.5996659282058,None,916.5996659282058,None,916.5996659282058,None,916.5996659282058,None,917.5670895975805,None,917.5670895975805,None,918.5658728371467,None,918.5658728371467,None,h,,,,,,,,,,,,,,,,,,,,,,,,,,,,,,,,,,,,,,,,,,,,,,,45_46Exp,001,2021_May_14_1053,ComputerHuman,2020.1.3,60.034549831500456,
Human.xlsx,h,Sychronize.jpg,Number10.jpg,10,Human,,,,,0,4,4,8,0,2,2,9,,,,,,,,,,,,,,,,,,,,,,,,,,,,,919.6329322803689,None,919.6329322803689,None,920.0660505553857,None,920.0660505553857,None,v,8.299386583363685,920.0660505553857,None,t,8.110524384289647,920.0660505553857,None,8.299386583363685,8.110524384289647,9.821076062609855,True,False,False,928.4476597330892,None,928.4476597330892,None,928.4476597330892,None,928.4476597330892,None,928.4476597330892,None,928.4476597330892,None,928.4476597330892,None,928.4476597330892,None,929.4489310280006,None,929.4489310280006,None,930.4468789276854,None,930.4468789276854,None,h,,,,,,,,,,,,,,,,,,,,,,,,,,,,,,,,,,,,,,,,,,,,,,,45_46Exp,001,2021_May_14_1053,ComputerHuman,2020.1.3,60.034549831500456,
Human.xlsx,h,Sychronize.jpg,Number9.jpg,9,Human,,,,,0,4,4,8,0,3,3,6,,,,,,,,,,,,,,,,,,,,,,,,,,,,,931.4965075478925,None,931.4965075478925,None,931.9467990507152,None,931.9467990507152,None,v,7.342202884937933,931.9467990507152,None,t,7.457514433993083,931.9467990507152,None,7.342202884937933,7.457514433993083,8.800339871416758,True,False,False,939.4620218689671,None,939.4620218689671,None,939.4620218689671,None,939.4620218689671,None,939.4620218689671,None,939.4620218689671,None,939.4620218689671,None,939.4620218689671,None,940.480469599595,None,940.480469599595,None,941.4779542770108,None,941.4779542770108,None,h,,,,,,,,,,,,,,,,,,,,,,,,,,,,,,,,,,,,,,,,,,,,,,,45_46Exp,001,2021_May_14_1053,ComputerHuman,2020.1.3,60.034549831500456,
Human.xlsx,h,Sychronize.jpg,Number8.jpg,8,Human,,,,,0,4,4,8,0,4,4,4,,,,,,,,,,,,,,,,,,,,,,,,,,,,,942.5282600871141,None,942.5282600871141,None,942.9780636667571,None,942.9780636667571,None,v,6.498590444148022,942.9780636667571,None,t,6.453730703616657,942.9780636667571,None,6.498590444148022,6.453730703616657,8.169669801491953,True,False,False,949.5595208536635,None,949.5595208536635,None,949.5595208536635,None,949.5595208536635,None,949.5595208536635,None,949.5595208536635,None,949.5595208536635,None,949.5595208536635,None,950.5451317713377,None,950.5451317713377,None,951.5258945739478,None,951.5258945739478,None,h,,,,,,,,,,,,,,,,,,,,,,,,,,,,,,,,,,,,,,,,,,,,,,,45_46Exp,001,2021_May_14_1053,ComputerHuman,2020.1.3,60.034549831500456,
Human.xlsx,h,Sychronize.jpg,Number7.jpg,7,Human,,,,,0,4,4,8,0,5,5,3,,,,,,,,,,,,,,,,,,,,,,,,,,,,,952.5758375693791,None,952.5758375693791,None,953.0259994726197,None,953.0259994726197,None,v,5.354387170411428,953.0259994726197,None,t,5.253567677607634,953.0259994726197,None,5.354387170411428,5.253567677607634,6.993535943789666,True,False,False,958.4591068407407,None,958.4591068407407,None,958.4591068407407,None,958.4591068407407,None,958.4591068407407,None,958.4591068407407,None,958.4591068407407,None,958.4591068407407,None,959.4599235747415,None,959.4599235747415,None,960.4574512381572,None,960.4574512381572,None,h,,,,,,,,,,,,,,,,,,,,,,,,,,,,,,,,,,,,,,,,,,,,,,,45_46Exp,001,2021_May_14_1053,ComputerHuman,2020.1.3,60.034549831500456,
Human.xlsx,h,Sychronize.jpg,Number10.jpg,10,Human,,,,,0,4,4,8,0,6,6,8,,,,,,,,,,,,,,,,,,,,,,,,,,,,,961.5075469301261,None,961.5075469301261,None,961.9575949525455,None,961.9575949525455,None,v,7.802452062590191,961.9575949525455,None,t,8.39745689691108,961.9575949525455,None,7.802452062590191,8.39745689691108,9.803776730538624,False,False,False,970.4226175009479,None,970.4226175009479,None,970.4226175009479,None,970.4226175009479,None,970.4226175009479,None,970.4226175009479,None,970.4226175009479,None,970.4226175009479,None,971.4074886744721,None,971.4074886744721,None,972.405101989097,None,972.405101989097,None,h,,,,,,,,,,,,,,,,,,,,,,,,,,,,,,,,,,,,,,,,,,,,,,,45_46Exp,001,2021_May_14_1053,ComputerHuman,2020.1.3,60.034549831500456,
Human.xlsx,h,Sychronize.jpg,Number8.jpg,8,Human,,,,,0,4,4,8,0,7,7,5,,,,,,,,,,,,,,,,,,,,,,,,,,,,,973.4719830724981,None,973.4719830724981,None,973.9219467268728,None,973.9219467268728,None,v,6.269760247188742,973.9219467268728,None,t,6.284660991231476,973.9219467268728,None,6.269760247188742,6.284660991231476,7.954465137982758,True,False,False,980.3031741632327,None,980.3031741632327,None,980.3031741632327,None,980.3031741632327,None,980.3031741632327,None,980.3031741632327,None,980.3031741632327,None,980.3031741632327,None,981.2894818390565,None,981.2894818390565,None,982.2863685619644,None,982.2863685619644,None,h,,,,,,,,,,,,,,,,,,,,,,,,,,,,,,,,,,,,,,,,,,,,,,,45_46Exp,001,2021_May_14_1053,ComputerHuman,2020.1.3,60.034549831500456,
Human.xlsx,h,Sychronize.jpg,Number6.jpg,6,Human,,,,,0,4,4,8,0,8,8,0,,,,,,,,,,,,,,,,,,,,,,,,,,,,,983.3367372471124,None,983.3367372471124,None,983.7694664025915,None,983.7694664025915,None,v,4.522060479377387,983.7694664025915,None,t,4.613622584202858,983.7694664025915,None,4.522060479377387,4.613622584202858,5.7850279511943015,True,False,False,988.4524622958246,None,988.4524622958246,None,988.4524622958246,None,988.4524622958246,None,988.4524622958246,None,988.4524622958246,None,988.4524622958246,None,988.4524622958246,None,989.4372526300054,None,989.4372526300054,None,990.4513581330474,None,990.4513581330474,None,h,,,,,,,,,,,,,,,,,,,,,,,,,,,,,,,,,,,,,,,,,,,,,,,45_46Exp,001,2021_May_14_1053,ComputerHuman,2020.1.3,60.034549831500456,
Human.xlsx,h,Sychronize.jpg,Number9.jpg,9,Human,,,,,0,4,4,8,0,9,9,7,,,,,,,,,,,,,,,,,,,,,,,,,,,,,991.501515737688,None,991.501515737688,None,991.9516215024954,None,991.9516215024954,None,v,7.0153588336552275,991.9516215024954,None,t,7.182484873098247,991.9516215024954,None,7.0153588336552275,7.182484873098247,8.562161405687736,True,False,False,999.2162128435754,None,999.2162128435754,None,999.2162128435754,None,999.2162128435754,None,999.2162128435754,None,999.2162128435754,None,999.2162128435754,None,999.2162128435754,None,1000.20157226107,None,1000.20157226107,None,1001.1824717206654,None,1001.1824717206654,None,h,,,,,,,,,,,,,,,,,,,,,,,,,,,,,,,,,,,,,,,,,,,,,,,45_46Exp,001,2021_May_14_1053,ComputerHuman,2020.1.3,60.034549831500456,
Human.xlsx,h,,,,,,,,,0,4,4,8,,,,,,,,,,,,,,,,,,,,,,,,,,,,,,,,,,,,,,,,,,,,,,,,,,,,,,,,,,,,,,,,,,,,,,,,,,,,,,,h,1002.1832637537558,None,1002.1832637537558,None,q,0,3.1035962600897165,1002.1832637537558,None,o,1,4.47862056001145,1002.1832637537558,None,h,h,1006.7486162678273,None,1006.7486162678273,None,None,None,1008.7479265670803,None,1008.7479265670803,None,"['space', 'space']",1009.7307847767969,None,"[11.887795312216213, 50.118143813191864]",,,,,,,,,,,,,,,,,45_46Exp,001,2021_May_14_1053,ComputerHuman,2020.1.3,60.034549831500456,
Human.xlsx,h,Sychronize.jpg,Number8.jpg,8,Human,,,,,0,5,5,4,0,0,0,4,,,,,,,,,,,,,,,,,,,,,,,,,1059.9069956186358,None,1059.9069956186358,None,1062.9706280511236,None,1062.9706280511236,None,1063.4200633626474,None,1063.4200633626474,None,v,5.976531568725932,1063.4200633626474,None,t,6.759527654433668,1063.4200633626474,None,5.976531568725932,6.759527654433668,8.346165377970467,False,False,False,1070.268515577934,None,1070.268515577934,None,1070.268515577934,None,1070.268515577934,None,1070.268515577934,None,1070.268515577934,None,1070.268515577934,None,1070.268515577934,None,1071.2541582539216,None,1071.2541582539216,None,1072.251428001337,None,1072.251428001337,None,h,,,,,,,,,,,,,,,,,,,,,,,,,,,,,,,,,,,,,,,,,,,,,,,45_46Exp,001,2021_May_14_1053,ComputerHuman,2020.1.3,60.034549831500456,
Human.xlsx,h,Sychronize.jpg,Number10.jpg,10,Human,,,,,0,5,5,4,0,1,1,9,,,,,,,,,,,,,,,,,,,,,,,,,,,,,1073.301346295858,None,1073.301346295858,None,1073.7682287907396,None,1073.7682287907396,None,v,7.563933976070302,1073.7682287907396,None,t,8.859471066893093,1073.7682287907396,None,7.563933976070302,8.859471066893093,9.464100408658322,False,False,False,1082.7001893308748,None,1082.7001893308748,None,1082.7001893308748,None,1082.7001893308748,None,1082.7001893308748,None,1082.7001893308748,None,1082.7001893308748,None,1082.7001893308748,None,1083.7019726082945,None,1083.7019726082945,None,1084.6823247983666,None,1084.6823247983666,None,h,,,,,,,,,,,,,,,,,,,,,,,,,,,,,,,,,,,,,,,,,,,,,,,45_46Exp,001,2021_May_14_1053,ComputerHuman,2020.1.3,60.034549831500456,
Human.xlsx,h,Sychronize.jpg,Number6.jpg,6,Human,,,,,0,5,5,4,0,2,2,0,,,,,,,,,,,,,,,,,,,,,,,,,,,,,1085.7492001075293,None,1085.7492001075293,None,1086.182398259516,None,1086.182398259516,None,v,5.325488388326448,1086.182398259516,None,t,4.31661081694574,1086.182398259516,None,5.325488388326448,4.31661081694574,5.844778714370084,False,False,False,1091.5819621120113,None,1091.5819621120113,None,1091.5819621120113,None,1091.5819621120113,None,1091.5819621120113,None,1091.5819621120113,None,1091.5819621120113,None,1091.5819621120113,None,1092.5827021769524,None,1092.5827021769524,None,1093.5803645726069,None,1093.5803645726069,None,h,,,,,,,,,,,,,,,,,,,,,,,,,,,,,,,,,,,,,,,,,,,,,,,45_46Exp,001,2021_May_14_1053,ComputerHuman,2020.1.3,60.034549831500456,
Human.xlsx,h,Sychronize.jpg,Number9.jpg,9,Human,,,,,0,5,5,4,0,3,3,7,,,,,,,,,,,,,,,,,,,,,,,,,,,,,1094.6313113232181,None,1094.6313113232181,None,1095.080733482309,None,1095.080733482309,None,v,6.9627471775199865,1095.080733482309,None,t,7.649516535816019,1095.080733482309,None,6.9627471775199865,7.649516535816019,9.093077058269538,False,False,False,1102.8135026725104,None,1102.8135026725104,None,1102.8135026725104,None,1102.8135026725104,None,1102.8135026725104,None,1102.8135026725104,None,1102.8135026725104,None,1102.8135026725104,None,1103.7970714343915,None,1103.7970714343915,None,1104.7947697586433,None,1104.7947697586433,None,h,,,,,,,,,,,,,,,,,,,,,,,,,,,,,,,,,,,,,,,,,,,,,,,45_46Exp,001,2021_May_14_1053,ComputerHuman,2020.1.3,60.034549831500456,
Human.xlsx,h,Sychronize.jpg,Number9.jpg,9,Human,,,,,0,5,5,4,0,4,4,6,,,,,,,,,,,,,,,,,,,,,,,,,,,,,1105.8447826865222,None,1105.8447826865222,None,1106.294755002255,None,1106.294755002255,None,v,7.188404751043663,1106.294755002255,None,t,7.235446191472647,1106.294755002255,None,7.188404751043663,7.235446191472647,8.551371286145999,True,False,False,1113.611224671141,None,1113.611224671141,None,1113.611224671141,None,1113.611224671141,None,1113.611224671141,None,1113.611224671141,None,1113.611224671141,None,1113.611224671141,None,1114.6119563955149,None,1114.6119563955149,None,1115.6093021704082,None,1115.6093021704082,None,h,,,,,,,,,,,,,,,,,,,,,,,,,,,,,,,,,,,,,,,,,,,,,,,45_46Exp,001,2021_May_14_1053,ComputerHuman,2020.1.3,60.034549831500456,
Human.xlsx,h,Sychronize.jpg,Number10.jpg,10,Human,,,,,0,5,5,4,0,5,5,8,,,,,,,,,,,,,,,,,,,,,,,,,,,,,1116.6594074861082,None,1116.6594074861082,None,1117.0926005054384,None,1117.0926005054384,None,v,7.4261231054883865,1117.0926005054384,None,t,7.85349922079854,1117.0926005054384,None,7.4261231054883865,7.85349922079854,9.989277346438394,False,False,False,1125.025668416261,None,1125.025668416261,None,1125.025668416261,None,1125.025668416261,None,1125.025668416261,None,1125.025668416261,None,1125.025668416261,None,1125.025668416261,None,1126.0261807195602,None,1126.0261807195602,None,1127.0236516029609,None,1127.0236516029609,None,h,,,,,,,,,,,,,,,,,,,,,,,,,,,,,,,,,,,,,,,,,,,,,,,45_46Exp,001,2021_May_14_1053,ComputerHuman,2020.1.3,60.034549831500456,
Human.xlsx,h,Sychronize.jpg,Number7.jpg,7,Human,,,,,0,5,5,4,0,6,6,3,,,,,,,,,,,,,,,,,,,,,,,,,,,,,1128.0738608549595,None,1128.0738608549595,None,1128.5237712580206,None,1128.5237712580206,None,v,5.55857836957307,1128.5237712580206,None,t,5.609634189139797,1128.5237712580206,None,5.55857836957307,5.609634189139797,7.468050829061491,True,False,False,1134.2222077866254,None,1134.2222077866254,None,1134.2222077866254,None,1134.2222077866254,None,1134.2222077866254,None,1134.2222077866254,None,1134.2222077866254,None,1134.2222077866254,None,1135.1906730645233,None,1135.1906730645233,None,1136.1885099705064,None,1136.1885099705064,None,h,,,,,,,,,,,,,,,,,,,,,,,,,,,,,,,,,,,,,,,,,,,,,,,45_46Exp,001,2021_May_14_1053,ComputerHuman,2020.1.3,60.034549831500456,
Human.xlsx,h,Sychronize.jpg,Number6.jpg,6,Human,,,,,0,5,5,4,0,7,7,1,,,,,,,,,,,,,,,,,,,,,,,,,,,,,1137.2398400664165,None,1137.2398400664165,None,1137.6886405324617,None,1137.6886405324617,None,v,4.297485896421676,1137.6886405324617,None,t,4.756647271640077,1137.6886405324617,None,4.297485896421676,4.756647271640077,5.72751555488977,False,False,False,1142.521280636347,None,1142.521280636347,None,1142.521280636347,None,1142.521280636347,None,1142.521280636347,None,1142.521280636347,None,1142.521280636347,None,1142.521280636347,None,1143.5229330310199,None,1143.5229330310199,None,1144.5200953134354,None,1144.5200953134354,None,h,,,,,,,,,,,,,,,,,,,,,,,,,,,,,,,,,,,,,,,,,,,,,,,45_46Exp,001,2021_May_14_1053,ComputerHuman,2020.1.3,60.034549831500456,
Human.xlsx,h,Sychronize.jpg,Number8.jpg,8,Human,,,,,0,5,5,4,0,8,8,5,,,,,,,,,,,,,,,,,,,,,,,,,,,,,1145.5870411966275,None,1145.5870411966275,None,1146.0203545125996,None,1146.0203545125996,None,v,6.5055002832584705,1146.0203545125996,None,t,6.644537858796639,1146.0203545125996,None,6.5055002832584705,6.644537858796639,8.554556655553181,True,False,False,1152.7368631255185,None,1152.7368631255185,None,1152.7368631255185,None,1152.7368631255185,None,1152.7368631255185,None,1152.7368631255185,None,1152.7368631255185,None,1152.7368631255185,None,1153.7203093452208,None,1153.7203093452208,None,1154.7179508894574,None,1154.7179508894574,None,h,,,,,,,,,,,,,,,,,,,,,,,,,,,,,,,,,,,,,,,,,,,,,,,45_46Exp,001,2021_May_14_1053,ComputerHuman,2020.1.3,60.034549831500456,
Human.xlsx,h,Sychronize.jpg,Number7.jpg,7,Human,,,,,0,5,5,4,0,9,9,2,,,,,,,,,,,,,,,,,,,,,,,,,,,,,1155.7848399926347,None,1155.7848399926347,None,1156.2178899391588,None,1156.2178899391588,None,v,5.635592600505561,1156.2178899391588,None,t,5.838640500382553,1156.2178899391588,None,5.635592600505561,5.838640500382553,7.244640158158603,True,False,False,1162.1498735762493,None,1162.1498735762493,None,1162.1498735762493,None,1162.1498735762493,None,1162.1498735762493,None,1162.1498735762493,None,1162.1498735762493,None,1162.1498735762493,None,1163.1349173353556,None,1163.1349173353556,None,1164.1327571284583,None,1164.1327571284583,None,h,,,,,,,,,,,,,,,,,,,,,,,,,,,,,,,,,,,,,,,,,,,,,,,45_46Exp,001,2021_May_14_1053,ComputerHuman,2020.1.3,60.034549831500456,
Human.xlsx,h,,,,,,,,,0,5,5,4,,,,,,,,,,,,,,,,,,,,,,,,,,,,,,,,,,,,,,,,,,,,,,,,,,,,,,,,,,,,,,,,,,,,,,,,,,,,,,,h,1165.1336845353694,None,1165.1336845353694,None,q,0,7.931395627104848,1165.1336845353694,None,l,0,11.222435869058245,1165.1336845353694,None,h,c,1176.464677698029,None,1176.464677698029,None,1178.446506489282,None,None,None,None,None,None,None,None,,,,,,,,,,,,,,,,,,45_46Exp,001,2021_May_14_1053,ComputerHuman,2020.1.3,60.034549831500456,
Computer.xlsx,c,Sychronize.jpg,Number8.jpg,8,Computer,,,,,0,6,6,3,0,0,0,4,,,,,,,,,,,,,,,,,,,,,,,,,1183.4490696097319,None,1183.4490696097319,None,1186.5123347364733,None,1186.5123347364733,None,1186.945024113863,None,1186.945024113863,None,v,5.667391012846338,1186.945024113863,None,t,6.4465135466850825,1186.945024113863,None,5.667391012846338,6.4465135466850825,8.515758847348765,False,False,False,1193.4605783092643,None,1193.4605783092643,None,1193.4605783092643,None,1193.4605783092643,None,1193.4605783092643,None,1193.4605783092643,None,1193.4605783092643,None,1193.4605783092643,None,1194.4932694830836,None,1194.4932694830836,None,1195.4764439927708,None,1195.4764439927708,None,c,,,,,,,,,,,,,,,,,,,,,,,,,,,,,,,,,,,,,,,,,,,,,,,45_46Exp,001,2021_May_14_1053,ComputerHuman,2020.1.3,60.034549831500456,
Computer.xlsx,c,Sychronize.jpg,Number9.jpg,9,Computer,,,,,0,6,6,3,0,1,1,7,,,,,,,,,,,,,,,,,,,,,,,,,,,,,1196.527190890561,None,1196.527190890561,None,1196.9764462383082,None,1196.9764462383082,None,v,7.0556062405405555,1196.9764462383082,None,t,8.15456386211872,1196.9764462383082,None,7.0556062405405555,8.15456386211872,9.388415459440871,False,False,False,1205.2243789004183,None,1205.2243789004183,None,1205.2243789004183,None,1205.2243789004183,None,1205.2243789004183,None,1205.2243789004183,None,1205.2243789004183,None,1205.2243789004183,None,1206.2075867723738,None,1206.2075867723738,None,1207.2073047970453,None,1207.2073047970453,None,c,,,,,,,,,,,,,,,,,,,,,,,,,,,,,,,,,,,,,,,,,,,,,,,45_46Exp,001,2021_May_14_1053,ComputerHuman,2020.1.3,60.034549831500456,
Computer.xlsx,c,Sychronize.jpg,Number9.jpg,9,Computer,,,,,0,6,6,3,0,2,2,6,,,,,,,,,,,,,,,,,,,,,,,,,,,,,1208.2578476717308,None,1208.2578476717308,None,1208.7076255880902,None,1208.7076255880902,None,v,8.61989597387992,1208.7076255880902,None,t,8.787535599786224,1208.7076255880902,None,8.61989597387992,8.787535599786224,9.536707835415996,False,False,False,1217.5736067884518,None,1217.5736067884518,None,1217.5736067884518,None,1217.5736067884518,None,1217.5736067884518,None,1217.5736067884518,None,1217.5736067884518,None,1217.5736067884518,None,1218.57173368954,None,1218.57173368954,None,1219.5548530231672,None,1219.5548530231672,None,c,,,,,,,,,,,,,,,,,,,,,,,,,,,,,,,,,,,,,,,,,,,,,,,45_46Exp,001,2021_May_14_1053,ComputerHuman,2020.1.3,60.034549831500456,
Computer.xlsx,c,Sychronize.jpg,Number7.jpg,7,Computer,,,,,0,6,6,3,0,3,3,3,,,,,,,,,,,,,,,,,,,,,,,,,,,,,1220.6060169493157,None,1220.6060169493157,None,1221.054839229152,None,1221.054839229152,None,v,7.228360238078039,1221.054839229152,None,t,7.9235083376797775,1221.054839229152,None,7.228360238078039,7.9235083376797775,6.645481763267496,False,False,False,1229.0542595597335,None,1229.0542595597335,None,1229.0542595597335,None,1229.0542595597335,None,1229.0542595597335,None,1229.0542595597335,None,1229.0542595597335,None,1229.0542595597335,None,1230.0693527784033,None,1230.0693527784033,None,1231.0525442900157,None,1231.0525442900157,None,c,,,,,,,,,,,,,,,,,,,,,,,,,,,,,,,,,,,,,,,,,,,,,,,45_46Exp,001,2021_May_14_1053,ComputerHuman,2020.1.3,60.034549831500456,
Computer.xlsx,c,Sychronize.jpg,Number10.jpg,10,Computer,,,,,0,6,6,3,0,4,4,9,,,,,,,,,,,,,,,,,,,,,,,,,,,,,1232.1023403631484,None,1232.1023403631484,None,1232.5525288920458,None,1232.5525288920458,None,v,11.16610303680045,1232.5525288920458,None,t,8.533414236834687,1232.5525288920458,None,11.16610303680045,8.533414236834687,10.067238524950552,False,False,False,1243.8016289127686,None,1243.8016289127686,None,1243.8016289127686,None,1243.8016289127686,None,1243.8016289127686,None,1243.8016289127686,None,1243.8016289127686,None,1243.8016289127686,None,1244.8164395145277,None,1244.8164395145277,None,1245.799585473812,None,1245.799585473812,None,c,,,,,,,,,,,,,,,,,,,,,,,,,,,,,,,,,,,,,,,,,,,,,,,45_46Exp,001,2021_May_14_1053,ComputerHuman,2020.1.3,60.034549831500456,
Computer.xlsx,c,Sychronize.jpg,Number6.jpg,6,Computer,,,,,0,6,6,3,0,5,5,1,,,,,,,,,,,,,,,,,,,,,,,,,,,,,1246.8496510114223,None,1246.8496510114223,None,1247.2997612673043,None,1247.2997612673043,None,v,5.646614339231746,1247.2997612673043,None,t,4.953605595109366,1247.2997612673043,None,5.646614339231746,4.953605595109366,5.946000974227381,False,True,False,1253.015721006745,None,1253.015721006745,None,1253.015721006745,None,1253.015721006745,None,1253.015721006745,None,1253.015721006745,None,1253.015721006745,None,1253.015721006745,None,1254.0145353630428,None,1254.0145353630428,None,1254.997677793625,None,1254.997677793625,None,c,,,,,,,,,,,,,,,,,,,,,,,,,,,,,,,,,,,,,,,,,,,,,,,45_46Exp,001,2021_May_14_1053,ComputerHuman,2020.1.3,60.034549831500456,
Computer.xlsx,c,Sychronize.jpg,Number6.jpg,6,Computer,,,,,0,6,6,3,0,6,6,0,,,,,,,,,,,,,,,,,,,,,,,,,,,,,1256.0474039343098,None,1256.0474039343098,None,1256.4975879721324,None,1256.4975879721324,None,v,4.752497197890079,1256.4975879721324,None,t,5.8635884199566135,1256.4975879721324,None,4.752497197890079,5.8635884199566135,5.602236006465037,False,False,True,1262.4301288232682,None,1262.4301288232682,None,1262.4301288232682,None,1262.4301288232682,None,1262.4301288232682,None,1262.4301288232682,None,1262.4301288232682,None,1262.4301288232682,None,1263.4459030813264,None,1263.4459030813264,None,1264.4291388621032,None,1264.4291388621032,None,c,,,,,,,,,,,,,,,,,,,,,,,,,,,,,,,,,,,,,,,,,,,,,,,45_46Exp,001,2021_May_14_1053,ComputerHuman,2020.1.3,60.034549831500456,
Computer.xlsx,c,Sychronize.jpg,Number8.jpg,8,Computer,,,,,0,6,6,3,0,7,7,5,,,,,,,,,,,,,,,,,,,,,,,,,,,,,1265.479209211579,None,1265.479209211579,None,1265.9290528901029,None,1265.9290528901029,None,v,7.140603356629072,1265.9290528901029,None,t,8.187566844833782,1265.9290528901029,None,7.140603356629072,8.187566844833782,7.571481196069186,False,False,False,1274.210456889854,None,1274.210456889854,None,1274.210456889854,None,1274.210456889854,None,1274.210456889854,None,1274.210456889854,None,1274.210456889854,None,1274.210456889854,None,1275.2101396275102,None,1275.2101396275102,None,1276.193383107272,None,1276.193383107272,None,c,,,,,,,,,,,,,,,,,,,,,,,,,,,,,,,,,,,,,,,,,,,,,,,45_46Exp,001,2021_May_14_1053,ComputerHuman,2020.1.3,60.034549831500456,
Computer.xlsx,c,Sychronize.jpg,Number10.jpg,10,Computer,,,,,0,6,6,3,0,8,8,8,,,,,,,,,,,,,,,,,,,,,,,,,,,,,1277.243815309047,None,1277.243815309047,None,1277.6936772726604,None,1277.6936772726604,None,v,10.043472319261582,1277.6936772726604,None,t,9.20246149384684,1277.6936772726604,None,10.043472319261582,9.20246149384684,10.195560991405333,False,True,False,1287.8092720802083,None,1287.8092720802083,None,1287.8092720802083,None,1287.8092720802083,None,1287.8092720802083,None,1287.8092720802083,None,1287.8092720802083,None,1287.8092720802083,None,1288.8073251993555,None,1288.8073251993555,None,1289.7906501600428,None,1289.7906501600428,None,c,,,,,,,,,,,,,,,,,,,,,,,,,,,,,,,,,,,,,,,,,,,,,,,45_46Exp,001,2021_May_14_1053,ComputerHuman,2020.1.3,60.034549831500456,
Computer.xlsx,c,Sychronize.jpg,Number7.jpg,7,Computer,,,,,0,6,6,3,0,9,9,2,,,,,,,,,,,,,,,,,,,,,,,,,,,,,1290.857275572981,None,1290.857275572981,None,1291.3073656190272,None,1291.3073656190272,None,v,6.461416857056065,1291.3073656190272,None,t,6.548540817773755,1291.3073656190272,None,6.461416857056065,6.548540817773755,6.59265047561215,False,True,True,1297.923712360785,None,1297.923712360785,None,1297.923712360785,None,1297.923712360785,None,1297.923712360785,None,1297.923712360785,None,1297.923712360785,None,1297.923712360785,None,1298.9388235437532,None,1298.9388235437532,None,1299.9052341550077,None,1299.9052341550077,None,c,,,,,,,,,,,,,,,,,,,,,,,,,,,,,,,,,,,,,,,,,,,,,,,45_46Exp,001,2021_May_14_1053,ComputerHuman,2020.1.3,60.034549831500456,
Computer.xlsx,c,,,,,,,,,0,6,6,3,,,,,,,,,,,,,,,,,,,,,,,,,,,,,,,,,,,,,,,,,,,,,,,,,,,,,,,,,,,,,,,,,,,,,,,,,,,,,,,c,1300.9056290487842,None,1300.9056290487842,None,a,0,3.00291053715182,1300.9056290487842,None,l,1,3.3146475757498592,1300.9056290487842,None,c,c,1304.3043729593683,None,1304.3043729593683,None,1306.2872905154281,None,None,None,None,None,None,None,None,,,,,,,,,,,,,,,,,,45_46Exp,001,2021_May_14_1053,ComputerHuman,2020.1.3,60.034549831500456,
Human.xlsx,h,Sychronize.jpg,Number8.jpg,8,Human,,,,,0,7,7,2,0,0,0,4,,,,,,,,,,,,,,,,,,,,,,,,,1311.3058046498022,None,1311.3058046498022,None,1314.369492899932,None,1314.369492899932,None,1314.819389829769,None,1314.819389829769,None,v,6.98866709396043,1314.819389829769,None,t,6.6595800716904705,1314.819389829769,None,6.98866709396043,6.6595800716904705,8.457477189263807,False,False,False,1321.884865848393,None,1321.884865848393,None,1321.884865848393,None,1321.884865848393,None,1321.884865848393,None,1321.884865848393,None,1321.884865848393,None,1321.884865848393,None,1322.8861490125732,None,1322.8861490125732,None,1323.900351715302,None,1323.900351715302,None,h,,,,,,,,,,,,,,,,,,,,,,,,,,,,,,,,,,,,,,,,,,,,,,,45_46Exp,001,2021_May_14_1053,ComputerHuman,2020.1.3,60.034549831500456,
Human.xlsx,h,Sychronize.jpg,Number6.jpg,6,Human,,,,,0,7,7,2,0,1,1,0,,,,,,,,,,,,,,,,,,,,,,,,,,,,,1324.950834281271,None,1324.950834281271,None,1325.4005400196452,None,1325.4005400196452,None,v,4.471144845497747,1325.4005400196452,None,t,4.8265662462376895,1325.4005400196452,None,4.471144845497747,4.8265662462376895,5.583930656544711,False,False,False,1330.3007236404396,None,1330.3007236404396,None,1330.3007236404396,None,1330.3007236404396,None,1330.3007236404396,None,1330.3007236404396,None,1330.3007236404396,None,1330.3007236404396,None,1331.3011817300521,None,1331.3011817300521,None,1332.298782533826,None,1332.298782533826,None,h,,,,,,,,,,,,,,,,,,,,,,,,,,,,,,,,,,,,,,,,,,,,,,,45_46Exp,001,2021_May_14_1053,ComputerHuman,2020.1.3,60.034549831500456,
Human.xlsx,h,Sychronize.jpg,Number10.jpg,10,Human,,,,,0,7,7,2,0,2,2,8,,,,,,,,,,,,,,,,,,,,,,,,,,,,,1333.3490623598545,None,1333.3490623598545,None,1333.7819891226172,None,1333.7819891226172,None,v,9.381327202374905,1333.7819891226172,None,t,8.716471721948437,1333.7819891226172,None,9.381327202374905,8.716471721948437,10.161216118558587,False,False,False,1343.2464599104223,None,1343.2464599104223,None,1343.2464599104223,None,1343.2464599104223,None,1343.2464599104223,None,1343.2464599104223,None,1343.2464599104223,None,1343.2464599104223,None,1344.2319043375442,None,1344.2319043375442,None,1345.2294377751987,None,1345.2294377751987,None,h,,,,,,,,,,,,,,,,,,,,,,,,,,,,,,,,,,,,,,,,,,,,,,,45_46Exp,001,2021_May_14_1053,ComputerHuman,2020.1.3,60.034549831500456,
Human.xlsx,h,Sychronize.jpg,Number7.jpg,7,Human,,,,,0,7,7,2,0,3,3,3,,,,,,,,,,,,,,,,,,,,,,,,,,,,,1346.279729149705,None,1346.279729149705,None,1346.7294291138405,None,1346.7294291138405,None,v,5.917503450107688,1346.7294291138405,None,t,6.036590709763004,1346.7294291138405,None,5.917503450107688,6.036590709763004,7.095510054631362,True,False,False,1352.8612222652082,None,1352.8612222652082,None,1352.8612222652082,None,1352.8612222652082,None,1352.8612222652082,None,1352.8612222652082,None,1352.8612222652082,None,1352.8612222652082,None,1353.8294684428229,None,1353.8294684428229,None,1354.8274371939256,None,1354.8274371939256,None,h,,,,,,,,,,,,,,,,,,,,,,,,,,,,,,,,,,,,,,,,,,,,,,,45_46Exp,001,2021_May_14_1053,ComputerHuman,2020.1.3,60.034549831500456,
Human.xlsx,h,Sychronize.jpg,Number10.jpg,10,Human,,,,,0,7,7,2,0,4,4,9,,,,,,,,,,,,,,,,,,,,,,,,,,,,,1355.8943253347297,None,1355.8943253347297,None,1356.327554924239,None,1356.327554924239,None,v,7.550964073328032,1356.327554924239,None,t,8.722533068744724,1356.327554924239,None,7.550964073328032,8.722533068744724,10.558562079355562,False,False,False,1365.1419269404814,None,1365.1419269404814,None,1365.1419269404814,None,1365.1419269404814,None,1365.1419269404814,None,1365.1419269404814,None,1365.1419269404814,None,1365.1419269404814,None,1366.1273832368715,None,1366.1273832368715,None,1367.108261524258,None,1367.108261524258,None,h,,,,,,,,,,,,,,,,,,,,,,,,,,,,,,,,,,,,,,,,,,,,,,,45_46Exp,001,2021_May_14_1053,ComputerHuman,2020.1.3,60.034549831500456,
Human.xlsx,h,Sychronize.jpg,Number7.jpg,7,Human,,,,,0,7,7,2,0,5,5,2,,,,,,,,,,,,,,,,,,,,,,,,,,,,,1368.1582337116743,None,1368.1582337116743,None,1368.608632037915,None,1368.608632037915,None,v,6.44950139447883,1368.608632037915,None,t,5.528583765278654,1368.608632037915,None,6.44950139447883,5.528583765278654,6.5632405196721875,False,False,False,1375.1566653642553,None,1375.1566653642553,None,1375.1566653642553,None,1375.1566653642553,None,1375.1566653642553,None,1375.1566653642553,None,1375.1566653642553,None,1375.1566653642553,None,1376.1420122708992,None,1376.1420122708992,None,1377.1396044133148,None,1377.1396044133148,None,h,,,,,,,,,,,,,,,,,,,,,,,,,,,,,,,,,,,,,,,,,,,,,,,45_46Exp,001,2021_May_14_1053,ComputerHuman,2020.1.3,60.034549831500456,
Human.xlsx,h,Sychronize.jpg,Number8.jpg,8,Human,,,,,0,7,7,2,0,6,6,5,,,,,,,,,,,,,,,,,,,,,,,,,,,,,1378.1892096157758,None,1378.1892096157758,None,1378.639462944464,None,1378.639462944464,None,v,6.1304076548444755,1378.639462944464,None,t,6.645592940543793,1378.639462944464,None,6.1304076548444755,6.645592940543793,7.818617771755399,False,False,False,1385.3556546158306,None,1385.3556546158306,None,1385.3556546158306,None,1385.3556546158306,None,1385.3556546158306,None,1385.3556546158306,None,1385.3556546158306,None,1385.3556546158306,None,1386.340356411683,None,1386.340356411683,None,1387.337537299979,None,1387.337537299979,None,h,,,,,,,,,,,,,,,,,,,,,,,,,,,,,,,,,,,,,,,,,,,,,,,45_46Exp,001,2021_May_14_1053,ComputerHuman,2020.1.3,60.034549831500456,
Human.xlsx,h,Sychronize.jpg,Number6.jpg,6,Human,,,,,0,7,7,2,0,7,7,1,,,,,,,,,,,,,,,,,,,,,,,,,,,,,1388.4041886969917,None,1388.4041886969917,None,1388.8377544755162,None,1388.8377544755162,None,v,5.1917506016434345,1388.8377544755162,None,t,4.6346453045493945,1388.8377544755162,None,5.1917506016434345,4.6346453045493945,5.568178414582325,False,False,False,1394.1038820849108,None,1394.1038820849108,None,1394.1038820849108,None,1394.1038820849108,None,1394.1038820849108,None,1394.1038820849108,None,1394.1038820849108,None,1394.1038820849108,None,1395.1052855457333,None,1395.1052855457333,None,1396.102417032208,None,1396.102417032208,None,h,,,,,,,,,,,,,,,,,,,,,,,,,,,,,,,,,,,,,,,,,,,,,,,45_46Exp,001,2021_May_14_1053,ComputerHuman,2020.1.3,60.034549831500456,
Human.xlsx,h,Sychronize.jpg,Number9.jpg,9,Human,,,,,0,7,7,2,0,8,8,7,,,,,,,,,,,,,,,,,,,,,,,,,,,,,1397.1359929477298,None,1397.1359929477298,None,1397.6025992415216,None,1397.6025992415216,None,v,6.518516379911489,1397.6025992415216,None,t,7.001556798941692,1397.6025992415216,None,6.518516379911489,7.001556798941692,9.611322365826123,False,False,False,1404.7006506283979,None,1404.7006506283979,None,1404.7006506283979,None,1404.7006506283979,None,1404.7006506283979,None,1404.7006506283979,None,1404.7006506283979,None,1404.7006506283979,None,1405.6700837328785,None,1405.6700837328785,None,1406.666924582667,None,1406.666924582667,None,h,,,,,,,,,,,,,,,,,,,,,,,,,,,,,,,,,,,,,,,,,,,,,,,45_46Exp,001,2021_May_14_1053,ComputerHuman,2020.1.3,60.034549831500456,
Human.xlsx,h,Sychronize.jpg,Number9.jpg,9,Human,,,,,0,7,7,2,0,9,9,6,,,,,,,,,,,,,,,,,,,,,,,,,,,,,1407.7333886377096,None,1407.7333886377096,None,1408.1834597570842,None,1408.1834597570842,None,v,5.169432206266265,1408.1834597570842,None,t,6.740515652357317,1408.1834597570842,None,5.169432206266265,6.740515652357317,9.565158684270559,False,False,False,1414.9988759481785,None,1414.9988759481785,None,1414.9988759481785,None,1414.9988759481785,None,1414.9988759481785,None,1414.9988759481785,None,1414.9988759481785,None,1414.9988759481785,None,1416.0007503302545,None,1416.0007503302545,None,1416.9810560056258,None,1416.9810560056258,None,h,,,,,,,,,,,,,,,,,,,,,,,,,,,,,,,,,,,,,,,,,,,,,,,45_46Exp,001,2021_May_14_1053,ComputerHuman,2020.1.3,60.034549831500456,
Human.xlsx,h,,,,,,,,,0,7,7,2,,,,,,,,,,,,,,,,,,,,,,,,,,,,,,,,,,,,,,,,,,,,,,,,,,,,,,,,,,,,,,,,,,,,,,,,,,,,,,,h,1417.9817697657008,None,1417.9817697657008,None,a,0,2.8708094263806743,1417.9817697657008,None,o,1,9.353420626992374,1417.9817697657008,None,c,h,1427.430348885925,None,1427.430348885925,None,1429.4289598606997,None,None,None,None,None,None,None,None,,,,,,,,,,,,,,,,,,45_46Exp,001,2021_May_14_1053,ComputerHuman,2020.1.3,60.034549831500456,
Computer.xlsx,c,Sychronize.jpg,Number7.jpg,7,Computer,,,,,0,8,8,5,0,0,0,3,,,,,,,,,,,,,,,,,,,,,,,,,1434.4316612420903,None,1434.4316612420903,None,1437.4941041813831,None,1437.4941041813831,None,1437.9276058016985,None,1437.9276058016985,None,v,5.208266528598415,1437.9276058016985,None,t,5.547655755280175,1437.9276058016985,None,5.208266528598415,5.547655755280175,7.347735166150721,False,False,False,1443.5594175589472,None,1443.5594175589472,None,1443.5594175589472,None,1443.5594175589472,None,1443.5594175589472,None,1443.5594175589472,None,1443.5594175589472,None,1443.5594175589472,None,1444.5758407772896,None,1444.5758407772896,None,1445.5590091919466,None,1445.5590091919466,None,c,,,,,,,,,,,,,,,,,,,,,,,,,,,,,,,,,,,,,,,,,,,,,,,45_46Exp,001,2021_May_14_1053,ComputerHuman,2020.1.3,60.034549831500456,
Computer.xlsx,c,Sychronize.jpg,Number10.jpg,10,Computer,,,,,0,8,8,5,0,1,1,9,,,,,,,,,,,,,,,,,,,,,,,,,,,,,1446.6088517797812,None,1446.6088517797812,None,1447.0589078219764,None,1447.0589078219764,None,v,8.072625488644917,1447.0589078219764,None,t,9.739365937251932,1447.0589078219764,None,8.072625488644917,9.739365937251932,9.778392063463542,False,False,True,1456.8572197553394,None,1456.8572197553394,None,1456.8572197553394,None,1456.8572197553394,None,1456.8572197553394,None,1456.8572197553394,None,1456.8572197553394,None,1456.8572197553394,None,1457.8898474125317,None,1457.8898474125317,None,1458.8729709164422,None,1458.8729709164422,None,c,,,,,,,,,,,,,,,,,,,,,,,,,,,,,,,,,,,,,,,,,,,,,,,45_46Exp,001,2021_May_14_1053,ComputerHuman,2020.1.3,60.034549831500456,
Computer.xlsx,c,Sychronize.jpg,Number10.jpg,10,Computer,,,,,0,8,8,5,0,2,2,8,,,,,,,,,,,,,,,,,,,,,,,,,,,,,1459.9232023030231,None,1459.9232023030231,None,1460.3732156800097,None,1460.3732156800097,None,v,9.525741556619323,1460.3732156800097,None,t,8.149567862383265,1460.3732156800097,None,9.525741556619323,8.149567862383265,10.517221280736685,False,False,False,1469.9721248621404,None,1469.9721248621404,None,1469.9721248621404,None,1469.9721248621404,None,1469.9721248621404,None,1469.9721248621404,None,1469.9721248621404,None,1469.9721248621404,None,1470.970598538348,None,1470.970598538348,None,1471.9537143432735,None,1471.9537143432735,None,c,,,,,,,,,,,,,,,,,,,,,,,,,,,,,,,,,,,,,,,,,,,,,,,45_46Exp,001,2021_May_14_1053,ComputerHuman,2020.1.3,60.034549831500456,
Computer.xlsx,c,Sychronize.jpg,Number9.jpg,9,Computer,,,,,0,8,8,5,0,3,3,6,,,,,,,,,,,,,,,,,,,,,,,,,,,,,1473.0206396958388,None,1473.0206396958388,None,1473.4539716176914,None,1473.4539716176914,None,v,9.240549656208259,1473.4539716176914,None,t,8.151575372743082,1473.4539716176914,None,9.240549656208259,8.151575372743082,9.361854290172746,False,True,False,1482.769041675248,None,1482.769041675248,None,1482.769041675248,None,1482.769041675248,None,1482.769041675248,None,1482.769041675248,None,1482.769041675248,None,1482.769041675248,None,1483.7846645199334,None,1483.7846645199334,None,1484.7510722440684,None,1484.7510722440684,None,c,,,,,,,,,,,,,,,,,,,,,,,,,,,,,,,,,,,,,,,,,,,,,,,45_46Exp,001,2021_May_14_1053,ComputerHuman,2020.1.3,60.034549831500456,
Computer.xlsx,c,Sychronize.jpg,Number8.jpg,8,Computer,,,,,0,8,8,5,0,4,4,5,,,,,,,,,,,,,,,,,,,,,,,,,,,,,1485.8175664534692,None,1485.8175664534692,None,1486.251225582188,None,1486.251225582188,None,v,8.198885956858703,1486.251225582188,None,t,7.95848033582979,1486.251225582188,None,8.198885956858703,7.95848033582979,8.510799655041732,False,False,False,1494.5324496181624,None,1494.5324496181624,None,1494.5324496181624,None,1494.5324496181624,None,1494.5324496181624,None,1494.5324496181624,None,1494.5324496181624,None,1494.5324496181624,None,1495.5322167238637,None,1495.5322167238637,None,1496.5153912335509,None,1496.5153912335509,None,c,,,,,,,,,,,,,,,,,,,,,,,,,,,,,,,,,,,,,,,,,,,,,,,45_46Exp,001,2021_May_14_1053,ComputerHuman,2020.1.3,60.034549831500456,
Computer.xlsx,c,Sychronize.jpg,Number6.jpg,6,Computer,,,,,0,8,8,5,0,5,5,1,,,,,,,,,,,,,,,,,,,,,,,,,,,,,1497.5661432639977,None,1497.5661432639977,None,1498.0153039783863,None,1498.0153039783863,None,v,7.150393899324172,1498.0153039783863,None,t,6.593539460827287,1498.0153039783863,None,7.150393899324172,6.593539460827287,6.309512910536403,False,False,True,1505.2309833464537,None,1505.2309833464537,None,1505.2309833464537,None,1505.2309833464537,None,1505.2309833464537,None,1505.2309833464537,None,1505.2309833464537,None,1505.2309833464537,None,1506.2466661790645,None,1506.2466661790645,None,1507.2465182943924,None,1507.2465182943924,None,c,,,,,,,,,,,,,,,,,,,,,,,,,,,,,,,,,,,,,,,,,,,,,,,45_46Exp,001,2021_May_14_1053,ComputerHuman,2020.1.3,60.034549831500456,
Computer.xlsx,c,Sychronize.jpg,Number6.jpg,6,Computer,,,,,0,8,8,5,0,6,6,0,,,,,,,,,,,,,,,,,,,,,,,,,,,,,1508.2965386004657,None,1508.2965386004657,None,1508.7468153469003,None,1508.7468153469003,None,v,5.922628407843604,1508.7468153469003,None,t,6.497541457430543,1508.7468153469003,None,5.922628407843604,6.497541457430543,5.5611129798709324,False,False,False,1515.3282051676874,None,1515.3282051676874,None,1515.3282051676874,None,1515.3282051676874,None,1515.3282051676874,None,1515.3282051676874,None,1515.3282051676874,None,1515.3282051676874,None,1516.3280454137466,None,1516.3280454137466,None,1517.2945384682998,None,1517.2945384682998,None,c,,,,,,,,,,,,,,,,,,,,,,,,,,,,,,,,,,,,,,,,,,,,,,,45_46Exp,001,2021_May_14_1053,ComputerHuman,2020.1.3,60.034549831500456,
Computer.xlsx,c,Sychronize.jpg,Number8.jpg,8,Computer,,,,,0,8,8,5,0,7,7,4,,,,,,,,,,,,,,,,,,,,,,,,,,,,,1518.3614092863877,None,1518.3614092863877,None,1518.7946462540908,None,1518.7946462540908,None,v,6.926367869055412,1518.7946462540908,None,t,7.725519633374461,1518.7946462540908,None,6.926367869055412,7.725519633374461,7.424960757500958,False,False,False,1526.5931131295283,None,1526.5931131295283,None,1526.5931131295283,None,1526.5931131295283,None,1526.5931131295283,None,1526.5931131295283,None,1526.5931131295283,None,1526.5931131295283,None,1527.609016987169,None,1527.609016987169,None,1528.5921716078115,None,1528.5921716078115,None,c,,,,,,,,,,,,,,,,,,,,,,,,,,,,,,,,,,,,,,,,,,,,,,,45_46Exp,001,2021_May_14_1053,ComputerHuman,2020.1.3,60.034549831500456,
Computer.xlsx,c,Sychronize.jpg,Number7.jpg,7,Computer,,,,,0,8,8,5,0,8,8,2,,,,,,,,,,,,,,,,,,,,,,,,,,,,,1529.6421431536455,None,1529.6421431536455,None,1530.0922043284977,None,1530.0922043284977,None,v,6.908427950652367,1530.0922043284977,None,t,6.363639104941285,1530.0922043284977,None,6.908427950652367,6.363639104941285,6.661336941060023,False,True,True,1537.075081785677,None,1537.075081785677,None,1537.075081785677,None,1537.075081785677,None,1537.075081785677,None,1537.075081785677,None,1537.075081785677,None,1537.075081785677,None,1538.0735772756757,None,1538.0735772756757,None,1539.0567370289746,None,1539.0567370289746,None,c,,,,,,,,,,,,,,,,,,,,,,,,,,,,,,,,,,,,,,,,,,,,,,,45_46Exp,001,2021_May_14_1053,ComputerHuman,2020.1.3,60.034549831500456,
Computer.xlsx,c,Sychronize.jpg,Number9.jpg,9,Computer,,,,,0,8,8,5,0,9,9,7,,,,,,,,,,,,,,,,,,,,,,,,,,,,,1540.123718840764,None,1540.123718840764,None,1540.5737351048701,None,1540.5737351048701,None,v,7.558528326169835,1540.5737351048701,None,t,7.989530984244993,1540.5737351048701,None,7.558528326169835,7.989530984244993,8.349944207340965,False,False,False,1548.6547512040893,None,1548.6547512040893,None,1548.6547512040893,None,1548.6547512040893,None,1548.6547512040893,None,1548.6547512040893,None,1548.6547512040893,None,1548.6547512040893,None,1549.654600111507,None,1549.654600111507,None,1550.621007514851,None,1550.621007514851,None,c,,,,,,,,,,,,,,,,,,,,,,,,,,,,,,,,,,,,,,,,,,,,,,,45_46Exp,001,2021_May_14_1053,ComputerHuman,2020.1.3,60.034549831500456,
Computer.xlsx,c,,,,,,,,,0,8,8,5,,,,,,,,,,,,,,,,,,,,,,,,,,,,,,,,,,,,,,,,,,,,,,,,,,,,,,,,,,,,,,,,,,,,,,,,,,,,,,,c,1551.6211383975974,None,1551.6211383975974,None,q,0,2.238920679281364,1551.6211383975974,None,l,1,5.401669524915178,1551.6211383975974,None,h,c,1557.1034634525972,None,1557.1034634525972,None,1559.1192656194767,None,None,None,None,None,None,None,None,,,,,,,,,,,,,,,,,,45_46Exp,001,2021_May_14_1053,ComputerHuman,2020.1.3,60.034549831500456,
Computer.xlsx,c,Sychronize.jpg,Number10.jpg,10,Computer,,,,,0,9,9,1,0,0,0,8,,,,,,,,,,,,,,,,,,,,,,,,,1564.1211400015527,None,1564.1211400015527,None,1567.1847679429661,None,1567.1847679429661,None,1567.6178708200127,None,1567.6178708200127,None,v,7.929440405685,1567.6178708200127,None,t,9.064360628160102,1567.6178708200127,None,7.929440405685,9.064360628160102,9.331057550103754,False,False,True,1576.7657580581108,None,1576.7657580581108,None,1576.7657580581108,None,1576.7657580581108,None,1576.7657580581108,None,1576.7657580581108,None,1576.7657580581108,None,1576.7657580581108,None,1577.765866806275,None,1577.765866806275,None,1578.7653804870506,None,1578.7653804870506,None,c,,,,,,,,,,,,,,,,,,,,,,,,,,,,,,,,,,,,,,,,,,,,,,,45_46Exp,001,2021_May_14_1053,ComputerHuman,2020.1.3,60.034549831500456,
Computer.xlsx,c,Sychronize.jpg,Number8.jpg,8,Computer,,,,,0,9,9,1,0,1,1,4,,,,,,,,,,,,,,,,,,,,,,,,,,,,,1579.815259003482,None,1579.815259003482,None,1580.2653484079465,None,1580.2653484079465,None,v,7.541543081916643,1580.2653484079465,None,t,6.988562516079583,1580.2653484079465,None,7.541543081916643,6.988562516079583,7.6265369421594515,False,True,False,1587.8639358366586,None,1587.8639358366586,None,1587.8639358366586,None,1587.8639358366586,None,1587.8639358366586,None,1587.8639358366586,None,1587.8639358366586,None,1587.8639358366586,None,1588.879874981314,None,1588.879874981314,None,1589.8630818908964,None,1589.8630818908964,None,c,,,,,,,,,,,,,,,,,,,,,,,,,,,,,,,,,,,,,,,,,,,,,,,45_46Exp,001,2021_May_14_1053,ComputerHuman,2020.1.3,60.034549831500456,
Computer.xlsx,c,Sychronize.jpg,Number7.jpg,7,Computer,,,,,0,9,9,1,0,2,2,2,,,,,,,,,,,,,,,,,,,,,,,,,,,,,1590.930078138283,None,1590.930078138283,None,1591.3800334520902,None,1591.3800334520902,None,v,5.986592538271907,1591.3800334520902,None,t,6.317580568274934,1591.3800334520902,None,5.986592538271907,6.317580568274934,7.052960479039403,False,False,False,1597.7795629799439,None,1597.7795629799439,None,1597.7795629799439,None,1597.7795629799439,None,1597.7795629799439,None,1597.7795629799439,None,1597.7795629799439,None,1597.7795629799439,None,1598.7946164205237,None,1598.7946164205237,None,1599.7609920655545,None,1599.7609920655545,None,c,,,,,,,,,,,,,,,,,,,,,,,,,,,,,,,,,,,,,,,,,,,,,,,45_46Exp,001,2021_May_14_1053,ComputerHuman,2020.1.3,60.034549831500456,
Computer.xlsx,c,Sychronize.jpg,Number7.jpg,7,Computer,,,,,0,9,9,1,0,3,3,3,,,,,,,,,,,,,,,,,,,,,,,,,,,,,1600.8116225161953,None,1600.8116225161953,None,1601.2612326588383,None,1601.2612326588383,None,v,7.0289491462790465,1601.2612326588383,None,t,6.20053321887508,1601.2612326588383,None,7.0289491462790465,6.20053321887508,7.0467190416290615,False,True,False,1608.3611821663276,None,1608.3611821663276,None,1608.3611821663276,None,1608.3611821663276,None,1608.3611821663276,None,1608.3611821663276,None,1608.3611821663276,None,1608.3611821663276,None,1609.3756819215641,None,1609.3756819215641,None,1610.3584021911315,None,1610.3584021911315,None,c,,,,,,,,,,,,,,,,,,,,,,,,,,,,,,,,,,,,,,,,,,,,,,,45_46Exp,001,2021_May_14_1053,ComputerHuman,2020.1.3,60.034549831500456,
Computer.xlsx,c,Sychronize.jpg,Number8.jpg,8,Computer,,,,,0,9,9,1,0,4,4,5,,,,,,,,,,,,,,,,,,,,,,,,,,,,,1611.4093688307876,None,1611.4093688307876,None,1611.8591432184453,None,1611.8591432184453,None,v,7.966654412448406,1611.8591432184453,None,t,7.785470026246912,1611.8591432184453,None,7.966654412448406,7.785470026246912,7.681346241100034,False,True,True,1619.923661996591,None,1619.923661996591,None,1619.923661996591,None,1619.923661996591,None,1619.923661996591,None,1619.923661996591,None,1619.923661996591,None,1619.923661996591,None,1620.9067842173372,None,1620.9067842173372,None,1621.8899542359495,None,1621.8899542359495,None,c,,,,,,,,,,,,,,,,,,,,,,,,,,,,,,,,,,,,,,,,,,,,,,,45_46Exp,001,2021_May_14_1053,ComputerHuman,2020.1.3,60.034549831500456,
Computer.xlsx,c,Sychronize.jpg,Number6.jpg,6,Computer,,,,,0,9,9,1,0,5,5,1,,,,,,,,,,,,,,,,,,,,,,,,,,,,,1622.9572016627244,None,1622.9572016627244,None,1623.3900238476062,None,1623.3900238476062,None,v,6.463449068326554,1623.3900238476062,None,t,5.5306794931757395,1623.3900238476062,None,6.463449068326554,5.5306794931757395,6.414590457932938,False,True,False,1629.9226482968884,None,1629.9226482968884,None,1629.9226482968884,None,1629.9226482968884,None,1629.9226482968884,None,1629.9226482968884,None,1629.9226482968884,None,1629.9226482968884,None,1630.9381733003047,None,1630.9381733003047,None,1631.921269857768,None,1631.921269857768,None,c,,,,,,,,,,,,,,,,,,,,,,,,,,,,,,,,,,,,,,,,,,,,,,,45_46Exp,001,2021_May_14_1053,ComputerHuman,2020.1.3,60.034549831500456,
Computer.xlsx,c,Sychronize.jpg,Number9.jpg,9,Computer,,,,,0,9,9,1,0,6,6,6,,,,,,,,,,,,,,,,,,,,,,,,,,,,,1632.9547870685283,None,1632.9547870685283,None,1633.4047202477536,None,1633.4047202477536,None,v,9.100261957967632,1633.4047202477536,None,t,8.631468831621532,1633.4047202477536,None,9.100261957967632,8.631468831621532,8.725926996100602,False,False,True,1642.5870848242098,None,1642.5870848242098,None,1642.5870848242098,None,1642.5870848242098,None,1642.5870848242098,None,1642.5870848242098,None,1642.5870848242098,None,1642.5870848242098,None,1643.6022085180289,None,1643.6022085180289,None,1644.5853233605817,None,1644.5853233605817,None,c,,,,,,,,,,,,,,,,,,,,,,,,,,,,,,,,,,,,,,,,,,,,,,,45_46Exp,001,2021_May_14_1053,ComputerHuman,2020.1.3,60.034549831500456,
Computer.xlsx,c,Sychronize.jpg,Number6.jpg,6,Computer,,,,,0,9,9,1,0,7,7,0,,,,,,,,,,,,,,,,,,,,,,,,,,,,,1645.6350969783412,None,1645.6350969783412,None,1646.085348382283,None,1646.085348382283,None,v,5.539425861019026,1646.085348382283,None,t,5.9984967731629695,1646.085348382283,None,5.539425861019026,5.9984967731629695,5.973520747346818,False,False,True,1652.1509690776684,None,1652.1509690776684,None,1652.1509690776684,None,1652.1509690776684,None,1652.1509690776684,None,1652.1509690776684,None,1652.1509690776684,None,1652.1509690776684,None,1653.1502315790558,None,1653.1502315790558,None,1654.1334465084142,None,1654.1334465084142,None,c,,,,,,,,,,,,,,,,,,,,,,,,,,,,,,,,,,,,,,,,,,,,,,,45_46Exp,001,2021_May_14_1053,ComputerHuman,2020.1.3,60.034549831500456,
Computer.xlsx,c,Sychronize.jpg,Number9.jpg,9,Computer,,,,,0,9,9,1,0,8,8,7,,,,,,,,,,,,,,,,,,,,,,,,,,,,,1655.1836580059503,None,1655.1836580059503,None,1655.633750618325,None,1655.633750618325,None,v,8.914468446030241,1655.633750618325,None,t,8.909509978846927,1655.633750618325,None,8.914468446030241,8.909509978846927,8.66384050599359,False,True,True,1664.6164102583843,None,1664.6164102583843,None,1664.6164102583843,None,1664.6164102583843,None,1664.6164102583843,None,1664.6164102583843,None,1664.6164102583843,None,1664.6164102583843,None,1665.647663325949,None,1665.647663325949,None,1666.6142138020991,None,1666.6142138020991,None,c,,,,,,,,,,,,,,,,,,,,,,,,,,,,,,,,,,,,,,,,,,,,,,,45_46Exp,001,2021_May_14_1053,ComputerHuman,2020.1.3,60.034549831500456,
Computer.xlsx,c,Sychronize.jpg,Number10.jpg,10,Computer,,,,,0,9,9,1,0,9,9,9,,,,,,,,,,,,,,,,,,,,,,,,,,,,,1667.6644140719486,None,1667.6644140719486,None,1668.1144252033978,None,1668.1144252033978,None,v,10.045417596158586,1668.1144252033978,None,t,9.336584871366085,1668.1144252033978,None,10.045417596158586,9.336584871366085,9.84352965708943,False,True,False,1678.2451533284961,None,1678.2451533284961,None,1678.2451533284961,None,1678.2451533284961,None,1678.2451533284961,None,1678.2451533284961,None,1678.2451533284961,None,1678.2451533284961,None,1679.2449438519434,None,1679.2449438519434,None,1680.2281161160931,None,1680.2281161160931,None,c,,,,,,,,,,,,,,,,,,,,,,,,,,,,,,,,,,,,,,,,,,,,,,,45_46Exp,001,2021_May_14_1053,ComputerHuman,2020.1.3,60.034549831500456,
Computer.xlsx,c,,,,,,,,,0,9,9,1,,,,,,,,,,,,,,,,,,,,,,,,,,,,,,,,,,,,,,,,,,,,,,,,,,,,,,,,,,,,,,,,,,,,,,,,,,,,,,,c,1681.2290986990643,None,1681.2290986990643,None,q,0,2.2906110235348933,1681.2290986990643,None,l,1,2.8816932249574165,1681.2290986990643,None,h,c,1684.1943066646909,None,1684.1943066646909,None,None,None,1686.1769130534367,None,1686.1769130534367,None,"['space', 'space']",1687.1598216273474,None,"[199.24890850846896, 199.94092921617266]",,,,,,,,,,,,,,,,,45_46Exp,001,2021_May_14_1053,ComputerHuman,2020.1.3,60.034549831500456,
Human.xlsx,h,Sychronize.jpg,Number7.jpg,7,Human,,,,,1,0,10,2,0,0,0,2,,,,,,,,,,,,,,,,,,,,,,,,,1887.1389233739264,None,1887.1389233739264,None,1890.2362241097567,None,1890.2362241097567,None,1890.6691149439225,None,1890.6691149439225,None,v,5.127252995707295,1890.6691149439225,None,t,6.042586294394823,1890.6691149439225,None,5.127252995707295,6.042586294394823,6.621306241329647,False,False,False,1896.784720979157,None,1896.784720979157,None,1896.784720979157,None,1896.784720979157,None,1896.784720979157,None,1896.784720979157,None,1896.784720979157,None,1896.784720979157,None,1897.8031077594865,None,1897.8031077594865,None,1898.8004920293051,None,1898.8004920293051,None,h,,,,,,,,,,,,,,,,,,,,,,,,,,,,,,,,,,,,,,,,,,,,,,,45_46Exp,001,2021_May_14_1053,ComputerHuman,2020.1.3,60.034549831500456,
Human.xlsx,h,Sychronize.jpg,Number7.jpg,7,Human,,,,,1,0,10,2,0,1,1,3,,,,,,,,,,,,,,,,,,,,,,,,,,,,,1899.833451384438,None,1899.833451384438,None,1900.2836331767235,None,1900.2836331767235,None,v,4.9043930408874985,1900.2836331767235,None,t,5.8675415280044945,1900.2836331767235,None,4.9043930408874985,5.8675415280044945,7.332423449325873,False,False,False,1906.2326614044105,None,1906.2326614044105,None,1906.2326614044105,None,1906.2326614044105,None,1906.2326614044105,None,1906.2326614044105,None,1906.2326614044105,None,1906.2326614044105,None,1907.234864597308,None,1907.234864597308,None,1908.2318732208128,None,1908.2318732208128,None,h,,,,,,,,,,,,,,,,,,,,,,,,,,,,,,,,,,,,,,,,,,,,,,,45_46Exp,001,2021_May_14_1053,ComputerHuman,2020.1.3,60.034549831500456,
Human.xlsx,h,Sychronize.jpg,Number10.jpg,10,Human,,,,,1,0,10,2,0,2,2,8,,,,,,,,,,,,,,,,,,,,,,,,,,,,,1909.2821533676324,None,1909.2821533676324,None,1909.732151346649,None,1909.732151346649,None,v,8.731457796409359,1909.732151346649,None,t,7.534551761880721,1909.732151346649,None,8.731457796409359,7.534551761880721,9.337385645555205,False,False,False,1918.5309486368628,None,1918.5309486368628,None,1918.5309486368628,None,1918.5309486368628,None,1918.5309486368628,None,1918.5309486368628,None,1918.5309486368628,None,1918.5309486368628,None,1919.5153809682374,None,1919.5153809682374,None,1920.5127604261902,None,1920.5127604261902,None,h,,,,,,,,,,,,,,,,,,,,,,,,,,,,,,,,,,,,,,,,,,,,,,,45_46Exp,001,2021_May_14_1053,ComputerHuman,2020.1.3,60.034549831500456,
Human.xlsx,h,Sychronize.jpg,Number10.jpg,10,Human,,,,,1,0,10,2,0,3,3,9,,,,,,,,,,,,,,,,,,,,,,,,,,,,,1921.5628140945323,None,1921.5628140945323,None,1922.0129375028473,None,1922.0129375028473,None,v,7.534264333104147,1922.0129375028473,None,t,8.857493069309385,1922.0129375028473,None,7.534264333104147,8.857493069309385,9.295473048598478,False,False,False,1930.9605767053094,None,1930.9605767053094,None,1930.9605767053094,None,1930.9605767053094,None,1930.9605767053094,None,1930.9605767053094,None,1930.9605767053094,None,1930.9605767053094,None,1931.9460310769537,None,1931.9460310769537,None,1932.926895249534,None,1932.926895249534,None,h,,,,,,,,,,,,,,,,,,,,,,,,,,,,,,,,,,,,,,,,,,,,,,,45_46Exp,001,2021_May_14_1053,ComputerHuman,2020.1.3,60.034549831500456,
Human.xlsx,h,Sychronize.jpg,Number6.jpg,6,Human,,,,,1,0,10,2,0,4,4,1,,,,,,,,,,,,,,,,,,,,,,,,,,,,,1933.9933387739497,None,1933.9933387739497,None,1934.427136805191,None,1934.427136805191,None,v,4.543764880694653,1934.427136805191,None,t,4.926623860309519,1934.427136805191,None,4.543764880694653,4.926623860309519,5.786775268642288,False,False,False,1939.4253974761446,None,1939.4253974761446,None,1939.4253974761446,None,1939.4253974761446,None,1939.4253974761446,None,1939.4253974761446,None,1939.4253974761446,None,1939.4253974761446,None,1940.4277450250124,None,1940.4277450250124,None,1941.425043964413,None,1941.425043964413,None,h,,,,,,,,,,,,,,,,,,,,,,,,,,,,,,,,,,,,,,,,,,,,,,,45_46Exp,001,2021_May_14_1053,ComputerHuman,2020.1.3,60.034549831500456,
Human.xlsx,h,Sychronize.jpg,Number8.jpg,8,Human,,,,,1,0,10,2,0,5,5,5,,,,,,,,,,,,,,,,,,,,,,,,,,,,,1942.4920694037842,None,1942.4920694037842,None,1942.9249419528605,None,1942.9249419528605,None,v,5.913639842760858,1942.9249419528605,None,t,6.764463345452441,1942.9249419528605,None,5.913639842760858,6.764463345452441,7.470099975090477,False,False,False,1949.7733765246398,None,1949.7733765246398,None,1949.7733765246398,None,1949.7733765246398,None,1949.7733765246398,None,1949.7733765246398,None,1949.7733765246398,None,1949.7733765246398,None,1950.7423473692247,None,1950.7423473692247,None,1951.739721694521,None,1951.739721694521,None,h,,,,,,,,,,,,,,,,,,,,,,,,,,,,,,,,,,,,,,,,,,,,,,,45_46Exp,001,2021_May_14_1053,ComputerHuman,2020.1.3,60.034549831500456,
Human.xlsx,h,Sychronize.jpg,Number8.jpg,8,Human,,,,,1,0,10,2,0,6,6,4,,,,,,,,,,,,,,,,,,,,,,,,,,,,,1952.7897448877138,None,1952.7897448877138,None,1953.2396248156256,None,1953.2396248156256,None,v,7.178561598617307,1953.2396248156256,None,t,5.64557529703643,1953.2396248156256,None,7.178561598617307,5.64557529703643,7.964937824092192,False,False,False,1960.504549458601,None,1960.504549458601,None,1960.504549458601,None,1960.504549458601,None,1960.504549458601,None,1960.504549458601,None,1960.504549458601,None,1960.504549458601,None,1961.4892919949161,None,1961.4892919949161,None,1962.4875699885865,None,1962.4875699885865,None,h,,,,,,,,,,,,,,,,,,,,,,,,,,,,,,,,,,,,,,,,,,,,,,,45_46Exp,001,2021_May_14_1053,ComputerHuman,2020.1.3,60.034549831500456,
Human.xlsx,h,Sychronize.jpg,Number9.jpg,9,Human,,,,,1,0,10,2,0,7,7,7,,,,,,,,,,,,,,,,,,,,,,,,,,,,,1963.5373397568533,None,1963.5373397568533,None,1963.9876562813774,None,1963.9876562813774,None,v,6.990139204066054,1963.9876562813774,None,t,7.90544812263488,1963.9876562813774,None,6.990139204066054,7.90544812263488,8.851246947003874,False,False,False,1971.9526105012874,None,1971.9526105012874,None,1971.9526105012874,None,1971.9526105012874,None,1971.9526105012874,None,1971.9526105012874,None,1971.9526105012874,None,1971.9526105012874,None,1972.9546962846625,None,1972.9546962846625,None,1973.968592311152,None,1973.968592311152,None,h,,,,,,,,,,,,,,,,,,,,,,,,,,,,,,,,,,,,,,,,,,,,,,,45_46Exp,001,2021_May_14_1053,ComputerHuman,2020.1.3,60.034549831500456,
Human.xlsx,h,Sychronize.jpg,Number9.jpg,9,Human,,,,,1,0,10,2,0,8,8,6,,,,,,,,,,,,,,,,,,,,,,,,,,,,,1975.018653357688,None,1975.018653357688,None,1975.4684184424054,None,1975.4684184424054,None,v,7.696969551155689,1975.4684184424054,None,t,7.30049363326043,1975.4684184424054,None,7.696969551155689,7.30049363326043,9.45357555979844,False,False,False,1983.2499651941716,None,1983.2499651941716,None,1983.2499651941716,None,1983.2499651941716,None,1983.2499651941716,None,1983.2499651941716,None,1983.2499651941716,None,1983.2499651941716,None,1984.219320025638,None,1984.219320025638,None,1985.2162911165906,None,1985.2162911165906,None,h,,,,,,,,,,,,,,,,,,,,,,,,,,,,,,,,,,,,,,,,,,,,,,,45_46Exp,001,2021_May_14_1053,ComputerHuman,2020.1.3,60.034549831500456,
Human.xlsx,h,Sychronize.jpg,Number6.jpg,6,Human,,,,,1,0,10,2,0,9,9,0,,,,,,,,,,,,,,,,,,,,,,,,,,,,,1986.2666315721267,None,1986.2666315721267,None,1986.7164851951725,None,1986.7164851951725,None,v,4.992633675232355,1986.7164851951725,None,t,4.735629363159205,1986.7164851951725,None,4.992633675232355,4.735629363159205,6.327750415581932,True,False,False,1991.7982750423926,None,1991.7982750423926,None,1991.7982750423926,None,1991.7982750423926,None,1991.7982750423926,None,1991.7982750423926,None,1991.7982750423926,None,1991.7982750423926,None,1992.7832761362902,None,1992.7832761362902,None,1993.7812096003781,None,1993.7812096003781,None,h,,,,,,,,,,,,,,,,,,,,,,,,,,,,,,,,,,,,,,,,,,,,,,,45_46Exp,001,2021_May_14_1053,ComputerHuman,2020.1.3,60.034549831500456,
Human.xlsx,h,,,,,,,,,1,0,10,2,,,,,,,,,,,,,,,,,,,,,,,,,,,,,,,,,,,,,,,,,,,,,,,,,,,,,,,,,,,,,,,,,,,,,,,,,,,,,,,h,1994.782234848558,None,1994.782234848558,None,a,0,2.4266937927573053,1994.782234848558,None,l,0,3.5296808706525553,1994.782234848558,None,c,c,1998.3977638939414,None,1998.3977638939414,None,2000.3799311197467,None,None,None,None,None,None,None,None,,,,,,,,,,,,,,,,,,45_46Exp,001,2021_May_14_1053,ComputerHuman,2020.1.3,60.034549831500456,
Human.xlsx,h,Sychronize.jpg,Number9.jpg,9,Human,,,,,1,1,11,8,0,0,0,7,,,,,,,,,,,,,,,,,,,,,,,,,2005.3822103401221,None,2005.3822103401221,None,2008.478733157668,None,2008.478733157668,None,2008.9118395634164,None,2008.9118395634164,None,v,7.78039414954128,2008.9118395634164,None,t,12.467414045643181,2008.9118395634164,None,7.78039414954128,12.467414045643181,9.560472174008005,False,False,False,2021.459316317293,None,2021.459316317293,None,2021.459316317293,None,2021.459316317293,None,2021.459316317293,None,2021.459316317293,None,2021.459316317293,None,2021.459316317293,None,2022.4602498192344,None,2022.4602498192344,None,2023.4578477358891,None,2023.4578477358891,None,h,,,,,,,,,,,,,,,,,,,,,,,,,,,,,,,,,,,,,,,,,,,,,,,45_46Exp,001,2021_May_14_1053,ComputerHuman,2020.1.3,60.034549831500456,
Human.xlsx,h,Sychronize.jpg,Number7.jpg,7,Human,,,,,1,1,11,8,0,1,1,3,,,,,,,,,,,,,,,,,,,,,,,,,,,,,2024.525603295679,None,2024.525603295679,None,2024.9750392487845,None,2024.9750392487845,None,v,7.3766997915499815,2024.9750392487845,None,t,5.855614196158513,2024.9750392487845,None,7.3766997915499815,5.855614196158513,7.352539093030088,False,False,False,2032.4247190030842,None,2032.4247190030842,None,2032.4247190030842,None,2032.4247190030842,None,2032.4247190030842,None,2032.4247190030842,None,2032.4247190030842,None,2032.4247190030842,None,2033.4256319743986,None,2033.4256319743986,None,2034.4062930862474,None,2034.4062930862474,None,h,,,,,,,,,,,,,,,,,,,,,,,,,,,,,,,,,,,,,,,,,,,,,,,45_46Exp,001,2021_May_14_1053,ComputerHuman,2020.1.3,60.034549831500456,
Human.xlsx,h,Sychronize.jpg,Number10.jpg,10,Human,,,,,1,1,11,8,0,2,2,9,,,,,,,,,,,,,,,,,,,,,,,,,,,,,2035.4728764755587,None,2035.4728764755587,None,2035.9063870780237,None,2035.9063870780237,None,v,7.180948925574739,2035.9063870780237,None,t,7.512548062518363,2035.9063870780237,None,7.180948925574739,7.512548062518363,9.703446310690184,False,False,False,2043.5045000567802,None,2043.5045000567802,None,2043.5045000567802,None,2043.5045000567802,None,2043.5045000567802,None,2043.5045000567802,None,2043.5045000567802,None,2043.5045000567802,None,2044.4901539604543,None,2044.4901539604543,None,2045.4873643615265,None,2045.4873643615265,None,h,,,,,,,,,,,,,,,,,,,,,,,,,,,,,,,,,,,,,,,,,,,,,,,45_46Exp,001,2021_May_14_1053,ComputerHuman,2020.1.3,60.034549831500456,
Human.xlsx,h,Sychronize.jpg,Number8.jpg,8,Human,,,,,1,1,11,8,0,3,3,5,,,,,,,,,,,,,,,,,,,,,,,,,,,,,2046.5374639029878,None,2046.5374639029878,None,2046.9879475596463,None,2046.9879475596463,None,v,5.871405776933443,2046.9879475596463,None,t,6.83059024910699,2046.9879475596463,None,5.871405776933443,6.83059024910699,7.858025005217726,False,False,False,2053.9023566593337,None,2053.9023566593337,None,2053.9023566593337,None,2053.9023566593337,None,2053.9023566593337,None,2053.9023566593337,None,2053.9023566593337,None,2053.9023566593337,None,2054.870440195888,None,2054.870440195888,None,2055.868597251334,None,2055.868597251334,None,h,,,,,,,,,,,,,,,,,,,,,,,,,,,,,,,,,,,,,,,,,,,,,,,45_46Exp,001,2021_May_14_1053,ComputerHuman,2020.1.3,60.034549831500456,
Human.xlsx,h,Sychronize.jpg,Number9.jpg,9,Human,,,,,1,1,11,8,0,4,4,6,,,,,,,,,,,,,,,,,,,,,,,,,,,,,2056.9351366922724,None,2056.9351366922724,None,2057.3851773364977,None,2057.3851773364977,None,v,7.469461334093012,2057.3851773364977,None,t,6.156487646016103,2057.3851773364977,None,7.469461334093012,6.156487646016103,8.54046920363219,False,False,False,2064.950040965017,None,2064.950040965017,None,2064.950040965017,None,2064.950040965017,None,2064.950040965017,None,2064.950040965017,None,2064.950040965017,None,2064.950040965017,None,2065.9352451196455,None,2065.9352451196455,None,2066.916399608122,None,2066.916399608122,None,h,,,,,,,,,,,,,,,,,,,,,,,,,,,,,,,,,,,,,,,,,,,,,,,45_46Exp,001,2021_May_14_1053,ComputerHuman,2020.1.3,60.034549831500456,
Human.xlsx,h,Sychronize.jpg,Number7.jpg,7,Human,,,,,1,1,11,8,0,5,5,2,,,,,,,,,,,,,,,,,,,,,,,,,,,,,2067.982627240164,None,2067.982627240164,None,2068.416641805361,None,2068.416641805361,None,v,5.253640817965788,2068.416641805361,None,t,6.336653199858574,2068.416641805361,None,5.253640817965788,6.336653199858574,7.429123463860049,False,False,False,2074.8480290918983,None,2074.8480290918983,None,2074.8480290918983,None,2074.8480290918983,None,2074.8480290918983,None,2074.8480290918983,None,2074.8480290918983,None,2074.8480290918983,None,2075.8338594306474,None,2075.8338594306474,None,2076.831037752615,None,2076.831037752615,None,h,,,,,,,,,,,,,,,,,,,,,,,,,,,,,,,,,,,,,,,,,,,,,,,45_46Exp,001,2021_May_14_1053,ComputerHuman,2020.1.3,60.034549831500456,
Human.xlsx,h,Sychronize.jpg,Number6.jpg,6,Human,,,,,1,1,11,8,0,6,6,1,,,,,,,,,,,,,,,,,,,,,,,,,,,,,2077.881527696778,None,2077.881527696778,None,2078.3312607023913,None,2078.3312607023913,None,v,5.078726292739702,2078.3312607023913,None,t,5.237763906773125,2078.3312607023913,None,5.078726292739702,5.237763906773125,6.437003834683297,True,False,False,2083.6463493658284,None,2083.6463493658284,None,2083.6463493658284,None,2083.6463493658284,None,2083.6463493658284,None,2083.6463493658284,None,2083.6463493658284,None,2083.6463493658284,None,2084.6488053420694,None,2084.6488053420694,None,2085.6292402962313,None,2085.6292402962313,None,h,,,,,,,,,,,,,,,,,,,,,,,,,,,,,,,,,,,,,,,,,,,,,,,45_46Exp,001,2021_May_14_1053,ComputerHuman,2020.1.3,60.034549831500456,
Human.xlsx,h,Sychronize.jpg,Number10.jpg,10,Human,,,,,1,1,11,8,0,7,7,8,,,,,,,,,,,,,,,,,,,,,,,,,,,,,2086.696047597692,None,2086.696047597692,None,2087.129202442888,None,2087.129202442888,None,v,7.51238895016013,2087.129202442888,None,t,8.755499802071881,2087.129202442888,None,7.51238895016013,8.755499802071881,9.518826239652777,False,False,False,2095.9769280664577,None,2095.9769280664577,None,2095.9769280664577,None,2095.9769280664577,None,2095.9769280664577,None,2095.9769280664577,None,2095.9769280664577,None,2095.9769280664577,None,2096.9622935789826,None,2096.9622935789826,None,2097.960098726652,None,2097.960098726652,None,h,,,,,,,,,,,,,,,,,,,,,,,,,,,,,,,,,,,,,,,,,,,,,,,45_46Exp,001,2021_May_14_1053,ComputerHuman,2020.1.3,60.034549831500456,
Human.xlsx,h,Sychronize.jpg,Number8.jpg,8,Human,,,,,1,1,11,8,0,8,8,4,,,,,,,,,,,,,,,,,,,,,,,,,,,,,2099.0095926146205,None,2099.0095926146205,None,2099.443670375653,None,2099.443670375653,None,v,6.233570205441083,2099.443670375653,None,t,6.7245899809258844,2099.443670375653,None,6.233570205441083,6.7245899809258844,8.019854965816974,False,False,False,2106.243364276838,None,2106.243364276838,None,2106.243364276838,None,2106.243364276838,None,2106.243364276838,None,2106.243364276838,None,2106.243364276838,None,2106.243364276838,None,2107.2437402439423,None,2107.2437402439423,None,2108.24135131303,None,2108.24135131303,None,h,,,,,,,,,,,,,,,,,,,,,,,,,,,,,,,,,,,,,,,,,,,,,,,45_46Exp,001,2021_May_14_1053,ComputerHuman,2020.1.3,60.034549831500456,
Human.xlsx,h,Sychronize.jpg,Number6.jpg,6,Human,,,,,1,1,11,8,0,9,9,0,,,,,,,,,,,,,,,,,,,,,,,,,,,,,2109.2913299162674,None,2109.2913299162674,None,2109.7414449840153,None,2109.7414449840153,None,v,5.09947120804145,2109.7414449840153,None,t,4.794598456225231,2109.7414449840153,None,5.09947120804145,4.794598456225231,6.136880577112015,False,False,False,2114.907230437681,None,2114.907230437681,None,2114.907230437681,None,2114.907230437681,None,2114.907230437681,None,2114.907230437681,None,2114.907230437681,None,2114.907230437681,None,2115.908805842503,None,2115.908805842503,None,2116.889593987606,None,2116.889593987606,None,h,,,,,,,,,,,,,,,,,,,,,,,,,,,,,,,,,,,,,,,,,,,,,,,45_46Exp,001,2021_May_14_1053,ComputerHuman,2020.1.3,60.034549831500456,
