Condition,CorrectTuringReply,Sychronize,NumberImage,Number,Partner,trials.thisRepN,trials.thisTrialN,trials.thisN,trials.thisIndex,Block.thisRepN,Block.thisTrialN,Block.thisN,Block.thisIndex,trials_loop.thisRepN,trials_loop.thisTrialN,trials_loop.thisN,trials_loop.thisIndex,key_resp_Istr.keys,key_resp_Istr.rt,key_resp_Istr.started,key_resp_Istr.stopped,key_respPrLeft.keys,key_respPrLeft.rt,key_respPrRight.keys,key_respPrRight.rt,RTPrLeft,RTPrRight,CompPr,SychronizedRTsPr,SychronizedRTsLeftCPr,SychronizedRTsRightCPr,CreditLeftPr.started,CreditLeftPr.stopped,CreditRightPr.started,CreditRightPr.stopped,text_StartExp.started,text_StartExp.stopped,key_startExp.keys,key_startExp.rt,key_startExp.started,key_startExp.stopped,SychroLeft.started,SychroLeft.stopped,SychroRight.started,SychroRight.stopped,NumberLeft.started,NumberLeft.stopped,NumberRight.started,NumberRight.stopped,CrossLeft.started,CrossLeft.stopped,CrossRight.started,CrossRight.stopped,key_respLeft.keys,key_respLeft.rt,key_respLeft.started,key_respLeft.stopped,key_respRight.keys,key_respRight.rt,key_respRight.started,key_respRight.stopped,RTLeft,RTRight,Comp,SychronizedRTs,SychronizedRTsLeftC,SychronizedRTsRightC,FeedbackLeftLeft.started,FeedbackLeftLeft.stopped,FeedbackLeftRight.started,FeedbackLeftRight.stopped,FeedbackRightLeft.started,FeedbackRightLeft.stopped,FeedbackRightRight.started,FeedbackRightRight.stopped,textLeftLeft.started,textLeftLeft.stopped,textLeftRight.started,textLeftRight.stopped,textRightLeft.started,textRightLeft.stopped,textRightRight.started,textRightRight.stopped,CreditLeft.started,CreditLeft.stopped,CreditRight.started,CreditRight.stopped,BlankLeft.started,BlankLeft.stopped,BlankRight.started,BlankRight.stopped,CorrectTuringReply,TuringtextLeft.started,TuringtextLeft.stopped,TuringtextRight.started,TuringtextRight.stopped,keyTuringLeft.keys,keyTuringLeft.corr,keyTuringLeft.rt,keyTuringLeft.started,keyTuringLeft.stopped,keyTuringRight.keys,keyTuringRight.corr,keyTuringRight.rt,keyTuringRight.started,keyTuringRight.stopped,RespTuringLeft,RespTuringRight,ScoreLeft.started,ScoreLeft.stopped,ScoreRight.started,ScoreRight.stopped,BlockText.started,BlockText.stopped,text_Pause.started,text_Pause.stopped,text_LongPause.started,text_LongPause.stopped,key_respPause.keys,key_respPause.started,key_respPause.stopped,key_respPause.rt,QuestImageLeft.started,QuestImageLeft.stopped,QuestImageRight.started,QuestImageRight.stopped,respQuestLeft.keys,respQuestLeft.rt,respQuestLeft.started,respQuestLeft.stopped,respQuestRight.keys,respQuestRight.rt,respQuestRight.started,respQuestRight.stopped,RespInclusionLeft,RespInclusionRight,EndText.started,EndText.stopped,participant,session,date,expName,psychopyVersion,frameRate,
,,,,,,,,,,,,,,,,,,"['t', 'v']","[483.34977451597297, 485.1417626954644]",21.41063338908498,None,,,,,,,,,,,,,,,,,,,,,,,,,,,,,,,,,,,,,,,,,,,,,,,,,,,,,,,,,,,,,,,,,,,,,,,,,,,,,,,,,,,,,,,,,,,,,,,,,,,,,,,,,,,,,,,,,,,,,,47_48Exp,001,2021_May_14_1531,ComputerHuman,2020.1.3,60.005774794712494,
,,,,,,,,,,,,,,,,,,,,,,v,6.331228944076429,t,6.902584420975472,6.331228944076429,6.902584420975472,6,False,False,False,577.8476479921337,None,577.8476479921337,None,578.8641485211192,None,"['space', 'space']","[41.777053752386564, 42.94503149205411]",579.8473172565682,None,,,,,,,,,,,,,,,,,,,,,,,,,,,,,,,,,,,,,,,,,,,,,,,,,,,,,,,,,,,,,,,,,,,,,,,,,,,,,,,,,,,,,,,,,,,,,,,,,,47_48Exp,001,2021_May_14_1531,ComputerHuman,2020.1.3,60.005774794712494,
Human.xlsx,h,Sychronize.jpg,Number6.jpg,6,Human,,,,,0,0,0,2,0,0,0,1,,,,,,,,,,,,,,,,,,,,,,,,,622.8745472836345,None,622.8745472836345,None,625.9217539314523,None,625.9217539314523,None,626.3549033232011,None,626.3549033232011,None,v,6.929061872251623,626.3549033232011,None,t,6.060588767049921,626.3549033232011,None,6.929061872251623,6.060588767049921,5.896709428372829,False,False,False,633.3864556888111,None,633.3864556888111,None,633.3864556888111,None,633.3864556888111,None,633.3864556888111,None,633.3864556888111,None,633.3864556888111,None,633.3864556888111,None,634.3734229110232,None,634.3734229110232,None,635.369342448932,None,635.369342448932,None,h,,,,,,,,,,,,,,,,,,,,,,,,,,,,,,,,,,,,,,,,,,,,,,,47_48Exp,001,2021_May_14_1531,ComputerHuman,2020.1.3,60.005774794712494,
Human.xlsx,h,Sychronize.jpg,Number7.jpg,7,Human,,,,,0,0,0,2,0,1,1,2,,,,,,,,,,,,,,,,,,,,,,,,,,,,,636.418989354228,None,636.418989354228,None,636.8692490987378,None,636.8692490987378,None,v,5.838505768144387,636.8692490987378,None,t,7.865500976167823,636.8692490987378,None,5.838505768144387,7.865500976167823,7.272366685317557,False,False,False,644.7854501372021,None,644.7854501372021,None,644.7854501372021,None,644.7854501372021,None,644.7854501372021,None,644.7854501372021,None,644.7854501372021,None,644.7854501372021,None,645.8032303016626,None,645.8032303016626,None,646.7997795523916,None,646.7997795523916,None,h,,,,,,,,,,,,,,,,,,,,,,,,,,,,,,,,,,,,,,,,,,,,,,,47_48Exp,001,2021_May_14_1531,ComputerHuman,2020.1.3,60.005774794712494,
Human.xlsx,h,Sychronize.jpg,Number8.jpg,8,Human,,,,,0,0,0,2,0,2,2,5,,,,,,,,,,,,,,,,,,,,,,,,,,,,,647.8505723233029,None,647.8505723233029,None,648.3006360644831,None,648.3006360644831,None,v,6.866569210345915,648.3006360644831,None,t,8.477502924011787,648.3006360644831,None,6.866569210345915,8.477502924011787,7.943506311683916,False,False,False,656.8649671798667,None,656.8649671798667,None,656.8649671798667,None,656.8649671798667,None,656.8649671798667,None,656.8649671798667,None,656.8649671798667,None,656.8649671798667,None,657.8336422551074,None,657.8336422551074,None,658.8313341635403,None,658.8313341635403,None,h,,,,,,,,,,,,,,,,,,,,,,,,,,,,,,,,,,,,,,,,,,,,,,,47_48Exp,001,2021_May_14_1531,ComputerHuman,2020.1.3,60.005774794712494,
Human.xlsx,h,Sychronize.jpg,Number10.jpg,10,Human,,,,,0,0,0,2,0,3,3,8,,,,,,,,,,,,,,,,,,,,,,,,,,,,,659.8986220099869,None,659.8986220099869,None,660.3312953478235,None,660.3312953478235,None,v,10.22739433624156,660.3312953478235,None,t,9.674383936835511,660.3312953478235,None,10.22739433624156,9.674383936835511,10.059396708669079,False,False,False,670.6297349560227,None,670.6297349560227,None,670.6297349560227,None,670.6297349560227,None,670.6297349560227,None,670.6297349560227,None,670.6297349560227,None,670.6297349560227,None,671.6314941741111,None,671.6314941741111,None,672.6118341741239,None,672.6118341741239,None,h,,,,,,,,,,,,,,,,,,,,,,,,,,,,,,,,,,,,,,,,,,,,,,,47_48Exp,001,2021_May_14_1531,ComputerHuman,2020.1.3,60.005774794712494,
Human.xlsx,h,Sychronize.jpg,Number8.jpg,8,Human,,,,,0,0,0,2,0,4,4,4,,,,,,,,,,,,,,,,,,,,,,,,,,,,,673.6786029806608,None,673.6786029806608,None,674.1119008986643,None,674.1119008986643,None,v,8.330370828029118,674.1119008986643,None,t,8.481476883476716,674.1119008986643,None,8.330370828029118,8.481476883476716,8.118860150273413,True,False,False,682.6615224614652,None,682.6615224614652,None,682.6615224614652,None,682.6615224614652,None,682.6615224614652,None,682.6615224614652,None,682.6615224614652,None,682.6615224614652,None,683.6620588240949,None,683.6620588240949,None,684.6594094108514,None,684.6594094108514,None,h,,,,,,,,,,,,,,,,,,,,,,,,,,,,,,,,,,,,,,,,,,,,,,,47_48Exp,001,2021_May_14_1531,ComputerHuman,2020.1.3,60.005774794712494,
Human.xlsx,h,Sychronize.jpg,Number7.jpg,7,Human,,,,,0,0,0,2,0,5,5,3,,,,,,,,,,,,,,,,,,,,,,,,,,,,,685.6934697208526,None,685.6934697208526,None,686.15953451936,None,686.15953451936,None,v,7.206368407987611,686.15953451936,None,t,6.833524204004789,686.15953451936,None,7.206368407987611,6.833524204004789,7.3522432016110315,False,False,False,693.4247719336054,None,693.4247719336054,None,693.4247719336054,None,693.4247719336054,None,693.4247719336054,None,693.4247719336054,None,693.4247719336054,None,693.4247719336054,None,694.4264596152934,None,694.4264596152934,None,695.440464389947,None,695.440464389947,None,h,,,,,,,,,,,,,,,,,,,,,,,,,,,,,,,,,,,,,,,,,,,,,,,47_48Exp,001,2021_May_14_1531,ComputerHuman,2020.1.3,60.005774794712494,
Human.xlsx,h,Sychronize.jpg,Number10.jpg,10,Human,,,,,0,0,0,2,0,6,6,9,,,,,,,,,,,,,,,,,,,,,,,,,,,,,696.4902582175419,None,696.4902582175419,None,696.940802824498,None,696.940802824498,None,v,9.732641836159019,696.940802824498,None,t,9.343461348205892,696.940802824498,None,9.732641836159019,9.343461348205892,10.259583225587956,False,False,False,706.7563187816086,None,706.7563187816086,None,706.7563187816086,None,706.7563187816086,None,706.7563187816086,None,706.7563187816086,None,706.7563187816086,None,706.7563187816086,None,707.7400617330277,None,707.7400617330277,None,708.7377834750259,None,708.7377834750259,None,h,,,,,,,,,,,,,,,,,,,,,,,,,,,,,,,,,,,,,,,,,,,,,,,47_48Exp,001,2021_May_14_1531,ComputerHuman,2020.1.3,60.005774794712494,
Human.xlsx,h,Sychronize.jpg,Number9.jpg,9,Human,,,,,0,0,0,2,0,7,7,7,,,,,,,,,,,,,,,,,,,,,,,,,,,,,709.7879786122176,None,709.7879786122176,None,710.2376705565766,None,710.2376705565766,None,v,9.13531094597056,710.2376705565766,None,t,8.890516903440584,710.2376705565766,None,9.13531094597056,8.890516903440584,9.107768005219288,True,False,False,719.4689522387016,None,719.4689522387016,None,719.4689522387016,None,719.4689522387016,None,719.4689522387016,None,719.4689522387016,None,719.4689522387016,None,719.4689522387016,None,720.4547488943936,None,720.4547488943936,None,721.4351761495709,None,721.4351761495709,None,h,,,,,,,,,,,,,,,,,,,,,,,,,,,,,,,,,,,,,,,,,,,,,,,47_48Exp,001,2021_May_14_1531,ComputerHuman,2020.1.3,60.005774794712494,
Human.xlsx,h,Sychronize.jpg,Number6.jpg,6,Human,,,,,0,0,0,2,0,8,8,0,,,,,,,,,,,,,,,,,,,,,,,,,,,,,722.5022458581043,None,722.5022458581043,None,722.9352573097021,None,722.9352573097021,None,v,5.381552076898515,722.9352573097021,None,t,6.556559952317912,722.9352573097021,None,5.381552076898515,6.556559952317912,6.386113408745072,False,False,False,729.5686925904301,None,729.5686925904301,None,729.5686925904301,None,729.5686925904301,None,729.5686925904301,None,729.5686925904301,None,729.5686925904301,None,729.5686925904301,None,730.5692424262816,None,730.5692424262816,None,731.5665400825201,None,731.5665400825201,None,h,,,,,,,,,,,,,,,,,,,,,,,,,,,,,,,,,,,,,,,,,,,,,,,47_48Exp,001,2021_May_14_1531,ComputerHuman,2020.1.3,60.005774794712494,
Human.xlsx,h,Sychronize.jpg,Number9.jpg,9,Human,,,,,0,0,0,2,0,9,9,6,,,,,,,,,,,,,,,,,,,,,,,,,,,,,732.6167137267112,None,732.6167137267112,None,733.0667399353406,None,733.0667399353406,None,v,9.905577080637158,733.0667399353406,None,t,8.516487376553414,733.0667399353406,None,9.905577080637158,8.516487376553414,8.348719160562945,False,False,False,743.0641678327411,None,743.0641678327411,None,743.0641678327411,None,743.0641678327411,None,743.0641678327411,None,743.0641678327411,None,743.0641678327411,None,743.0641678327411,None,744.0330716319986,None,744.0330716319986,None,745.0303647971596,None,745.0303647971596,None,h,,,,,,,,,,,,,,,,,,,,,,,,,,,,,,,,,,,,,,,,,,,,,,,47_48Exp,001,2021_May_14_1531,ComputerHuman,2020.1.3,60.005774794712494,
Human.xlsx,h,,,,,,,,,0,0,0,2,,,,,,,,,,,,,,,,,,,,,,,,,,,,,,,,,,,,,,,,,,,,,,,,,,,,,,,,,,,,,,,,,,,,,,,,,,,,,,,h,746.0480830489505,None,746.0480830489505,None,q,0,9.65182783529599,746.0480830489505,None,o,1,32.61363284951585,746.0480830489505,None,h,h,778.7908448802045,None,778.7908448802045,None,780.7564939335207,None,None,None,None,None,None,None,None,,,,,,,,,,,,,,,,,,47_48Exp,001,2021_May_14_1531,ComputerHuman,2020.1.3,60.005774794712494,
Computer.xlsx,c,Sychronize.jpg,Number10.jpg,10,Computer,,,,,0,1,1,5,0,0,0,9,,,,,,,,,,,,,,,,,,,,,,,,,785.7580090296251,None,785.7580090296251,None,788.8388740362607,None,788.8388740362607,None,789.2550064254428,None,789.2550064254428,None,v,9.50729542994668,789.2550064254428,None,t,8.790517673340219,789.2550064254428,None,9.50729542994668,8.790517673340219,9.950333173784932,False,False,False,798.83646040444,None,798.83646040444,None,798.83646040444,None,798.83646040444,None,798.83646040444,None,798.83646040444,None,798.83646040444,None,798.83646040444,None,799.8525689267663,None,799.8525689267663,None,800.8357710244818,None,800.8357710244818,None,c,,,,,,,,,,,,,,,,,,,,,,,,,,,,,,,,,,,,,,,,,,,,,,,47_48Exp,001,2021_May_14_1531,ComputerHuman,2020.1.3,60.005774794712494,
Computer.xlsx,c,Sychronize.jpg,Number8.jpg,8,Computer,,,,,0,1,1,5,0,1,1,5,,,,,,,,,,,,,,,,,,,,,,,,,,,,,801.8691458040194,None,801.8691458040194,None,802.3350479614674,None,802.3350479614674,None,v,7.8149212105090555,802.3350479614674,None,t,7.982544155282085,802.3350479614674,None,7.8149212105090555,7.982544155282085,8.056194255180568,False,True,True,810.3838114082246,None,810.3838114082246,None,810.3838114082246,None,810.3838114082246,None,810.3838114082246,None,810.3838114082246,None,810.3838114082246,None,810.3838114082246,None,811.3836340107773,None,811.3836340107773,None,812.3834338371671,None,812.3834338371671,None,c,,,,,,,,,,,,,,,,,,,,,,,,,,,,,,,,,,,,,,,,,,,,,,,47_48Exp,001,2021_May_14_1531,ComputerHuman,2020.1.3,60.005774794712494,
Computer.xlsx,c,Sychronize.jpg,Number7.jpg,7,Computer,,,,,0,1,1,5,0,2,2,2,,,,,,,,,,,,,,,,,,,,,,,,,,,,,813.4329963744167,None,813.4329963744167,None,813.8837992181652,None,813.8837992181652,None,v,8.181699576620304,813.8837992181652,None,t,7.708542088104878,813.8837992181652,None,8.181699576620304,7.708542088104878,7.085562591827446,False,False,False,822.1481079423356,None,822.1481079423356,None,822.1481079423356,None,822.1481079423356,None,822.1481079423356,None,822.1481079423356,None,822.1481079423356,None,822.1481079423356,None,823.1312866223052,None,823.1312866223052,None,824.1145182328,None,824.1145182328,None,c,,,,,,,,,,,,,,,,,,,,,,,,,,,,,,,,,,,,,,,,,,,,,,,47_48Exp,001,2021_May_14_1531,ComputerHuman,2020.1.3,60.005774794712494,
Computer.xlsx,c,Sychronize.jpg,Number7.jpg,7,Computer,,,,,0,1,1,5,0,3,3,3,,,,,,,,,,,,,,,,,,,,,,,,,,,,,825.164439093649,None,825.164439093649,None,825.614678307531,None,825.614678307531,None,v,7.490505226647656,825.614678307531,None,t,7.7655219559019315,825.614678307531,None,7.490505226647656,7.7655219559019315,7.246514596245333,False,True,False,833.4624847704436,None,833.4624847704436,None,833.4624847704436,None,833.4624847704436,None,833.4624847704436,None,833.4624847704436,None,833.4624847704436,None,833.4624847704436,None,834.4622878047412,None,834.4622878047412,None,835.4455335300408,None,835.4455335300408,None,c,,,,,,,,,,,,,,,,,,,,,,,,,,,,,,,,,,,,,,,,,,,,,,,47_48Exp,001,2021_May_14_1531,ComputerHuman,2020.1.3,60.005774794712494,
Computer.xlsx,c,Sychronize.jpg,Number8.jpg,8,Computer,,,,,0,1,1,5,0,4,4,4,,,,,,,,,,,,,,,,,,,,,,,,,,,,,836.4955432500101,None,836.4955432500101,None,836.9454828450544,None,836.9454828450544,None,v,7.323292252833198,836.9454828450544,None,t,7.790532108938351,836.9454828450544,None,7.323292252833198,7.790532108938351,8.081347249357194,False,False,True,844.8101539347881,None,844.8101539347881,None,844.8101539347881,None,844.8101539347881,None,844.8101539347881,None,844.8101539347881,None,844.8101539347881,None,844.8101539347881,None,845.8265838897423,None,845.8265838897423,None,846.8098831871466,None,846.8098831871466,None,c,,,,,,,,,,,,,,,,,,,,,,,,,,,,,,,,,,,,,,,,,,,,,,,47_48Exp,001,2021_May_14_1531,ComputerHuman,2020.1.3,60.005774794712494,
Computer.xlsx,c,Sychronize.jpg,Number9.jpg,9,Computer,,,,,0,1,1,5,0,5,5,7,,,,,,,,,,,,,,,,,,,,,,,,,,,,,847.8598245786234,None,847.8598245786234,None,848.3096432354469,None,848.3096432354469,None,v,8.834667824081407,848.3096432354469,None,t,9.829420965750614,848.3096432354469,None,8.834667824081407,9.829420965750614,9.297193367932064,False,False,False,858.2084246785817,None,858.2084246785817,None,858.2084246785817,None,858.2084246785817,None,858.2084246785817,None,858.2084246785817,None,858.2084246785817,None,858.2084246785817,None,859.2073185910594,None,859.2073185910594,None,860.1904141861487,None,860.1904141861487,None,c,,,,,,,,,,,,,,,,,,,,,,,,,,,,,,,,,,,,,,,,,,,,,,,47_48Exp,001,2021_May_14_1531,ComputerHuman,2020.1.3,60.005774794712494,
Computer.xlsx,c,Sychronize.jpg,Number6.jpg,6,Computer,,,,,0,1,1,5,0,6,6,0,,,,,,,,,,,,,,,,,,,,,,,,,,,,,861.2578098183876,None,861.2578098183876,None,861.6905129897896,None,861.6905129897896,None,v,5.885445517811604,861.6905129897896,None,t,6.032552592088905,861.6905129897896,None,5.885445517811604,6.032552592088905,6.304172023319145,False,False,True,867.805467819202,None,867.805467819202,None,867.805467819202,None,867.805467819202,None,867.805467819202,None,867.805467819202,None,867.805467819202,None,867.805467819202,None,868.8053141602941,None,868.8053141602941,None,869.7884594779935,None,869.7884594779935,None,c,,,,,,,,,,,,,,,,,,,,,,,,,,,,,,,,,,,,,,,,,,,,,,,47_48Exp,001,2021_May_14_1531,ComputerHuman,2020.1.3,60.005774794712494,
Computer.xlsx,c,Sychronize.jpg,Number10.jpg,10,Computer,,,,,0,1,1,5,0,7,7,8,,,,,,,,,,,,,,,,,,,,,,,,,,,,,870.8219728392614,None,870.8219728392614,None,871.2720394675634,None,871.2720394675634,None,v,9.851450969974394,871.2720394675634,None,t,10.606446488523943,871.2720394675634,None,9.851450969974394,10.606446488523943,9.903866267645018,False,True,False,881.9692810495253,None,881.9692810495253,None,881.9692810495253,None,881.9692810495253,None,881.9692810495253,None,881.9692810495253,None,881.9692810495253,None,881.9692810495253,None,882.9691254658683,None,882.9691254658683,None,883.9522938805239,None,883.9522938805239,None,c,,,,,,,,,,,,,,,,,,,,,,,,,,,,,,,,,,,,,,,,,,,,,,,47_48Exp,001,2021_May_14_1531,ComputerHuman,2020.1.3,60.005774794712494,
Computer.xlsx,c,Sychronize.jpg,Number9.jpg,9,Computer,,,,,0,1,1,5,0,8,8,6,,,,,,,,,,,,,,,,,,,,,,,,,,,,,885.0025945579728,None,885.0025945579728,None,885.4524619750337,None,885.4524619750337,None,v,8.578636792037287,885.4524619750337,None,t,9.541488868231681,885.4524619750337,None,8.578636792037287,9.541488868231681,9.363860055220387,False,False,True,895.1000329131602,None,895.1000329131602,None,895.1000329131602,None,895.1000329131602,None,895.1000329131602,None,895.1000329131602,None,895.1000329131602,None,895.1000329131602,None,896.0831423022646,None,896.0831423022646,None,897.0662956397427,None,897.0662956397427,None,c,,,,,,,,,,,,,,,,,,,,,,,,,,,,,,,,,,,,,,,,,,,,,,,47_48Exp,001,2021_May_14_1531,ComputerHuman,2020.1.3,60.005774794712494,
Computer.xlsx,c,Sychronize.jpg,Number6.jpg,6,Computer,,,,,0,1,1,5,0,9,9,1,,,,,,,,,,,,,,,,,,,,,,,,,,,,,898.1331010164577,None,898.1331010164577,None,898.5662590695647,None,898.5662590695647,None,v,5.956470259137859,898.5662590695647,None,t,6.3756119891149865,898.5662590695647,None,5.956470259137859,6.3756119891149865,6.08057404085787,False,True,True,905.031314980235,None,905.031314980235,None,905.031314980235,None,905.031314980235,None,905.031314980235,None,905.031314980235,None,905.031314980235,None,905.031314980235,None,906.0309800743853,None,906.0309800743853,None,906.9976476392658,None,906.9976476392658,None,c,,,,,,,,,,,,,,,,,,,,,,,,,,,,,,,,,,,,,,,,,,,,,,,47_48Exp,001,2021_May_14_1531,ComputerHuman,2020.1.3,60.005774794712494,
Computer.xlsx,c,,,,,,,,,0,1,1,5,,,,,,,,,,,,,,,,,,,,,,,,,,,,,,,,,,,,,,,,,,,,,,,,,,,,,,,,,,,,,,,,,,,,,,,,,,,,,,,c,907.9979286522212,None,907.9979286522212,None,q,0,4.428501129503275,907.9979286522212,None,o,0,5.999526833209529,907.9979286522212,None,h,h,914.1133098129321,None,914.1133098129321,None,916.0956794578888,None,None,None,None,None,None,None,None,,,,,,,,,,,,,,,,,,47_48Exp,001,2021_May_14_1531,ComputerHuman,2020.1.3,60.005774794712494,
Computer.xlsx,c,Sychronize.jpg,Number9.jpg,9,Computer,,,,,0,2,2,9,0,0,0,7,,,,,,,,,,,,,,,,,,,,,,,,,921.0974912857091,None,921.0974912857091,None,924.161334798704,None,924.161334798704,None,924.5943128880353,None,924.5943128880353,None,v,8.595416409232712,924.5943128880353,None,t,10.690399108971178,924.5943128880353,None,8.595416409232712,10.690399108971178,9.2391407609651,False,False,False,935.3751211788149,None,935.3751211788149,None,935.3751211788149,None,935.3751211788149,None,935.3751211788149,None,935.3751211788149,None,935.3751211788149,None,935.3751211788149,None,936.3749957495165,None,936.3749957495165,None,937.3581198950087,None,937.3581198950087,None,c,,,,,,,,,,,,,,,,,,,,,,,,,,,,,,,,,,,,,,,,,,,,,,,47_48Exp,001,2021_May_14_1531,ComputerHuman,2020.1.3,60.005774794712494,
Computer.xlsx,c,Sychronize.jpg,Number10.jpg,10,Computer,,,,,0,2,2,9,0,1,1,9,,,,,,,,,,,,,,,,,,,,,,,,,,,,,938.4252669141861,None,938.4252669141861,None,938.8583425239958,None,938.8583425239958,None,v,10.278819707091316,938.8583425239958,None,t,10.598311227622617,938.8583425239958,None,10.278819707091316,10.598311227622617,9.842601478430813,False,False,False,949.5223921773177,None,949.5223921773177,None,949.5223921773177,None,949.5223921773177,None,949.5223921773177,None,949.5223921773177,None,949.5223921773177,None,949.5223921773177,None,950.5387310276128,None,950.5387310276128,None,951.5219251055532,None,951.5219251055532,None,c,,,,,,,,,,,,,,,,,,,,,,,,,,,,,,,,,,,,,,,,,,,,,,,47_48Exp,001,2021_May_14_1531,ComputerHuman,2020.1.3,60.005774794712494,
Computer.xlsx,c,Sychronize.jpg,Number6.jpg,6,Computer,,,,,0,2,2,9,0,2,2,0,,,,,,,,,,,,,,,,,,,,,,,,,,,,,952.5724949266878,None,952.5724949266878,None,953.0222215164795,None,953.0222215164795,None,v,6.590632773168181,953.0222215164795,None,t,6.0815697845646355,953.0222215164795,None,6.590632773168181,6.0815697845646355,5.673675479387536,False,False,False,959.6716543258335,None,959.6716543258335,None,959.6716543258335,None,959.6716543258335,None,959.6716543258335,None,959.6716543258335,None,959.6716543258335,None,959.6716543258335,None,960.6867173901446,None,960.6867173901446,None,961.669874256324,None,961.669874256324,None,c,,,,,,,,,,,,,,,,,,,,,,,,,,,,,,,,,,,,,,,,,,,,,,,47_48Exp,001,2021_May_14_1531,ComputerHuman,2020.1.3,60.005774794712494,
Computer.xlsx,c,Sychronize.jpg,Number10.jpg,10,Computer,,,,,0,2,2,9,0,3,3,8,,,,,,,,,,,,,,,,,,,,,,,,,,,,,962.7531153622331,None,962.7531153622331,None,963.1868511600114,None,963.1868511600114,None,v,7.66967440350345,963.1868511600114,None,t,10.648382218678307,963.1868511600114,None,7.66967440350345,10.648382218678307,9.717902635032688,False,False,False,973.9339555396436,None,973.9339555396436,None,973.9339555396436,None,973.9339555396436,None,973.9339555396436,None,973.9339555396436,None,973.9339555396436,None,973.9339555396436,None,974.9171406354326,None,974.9171406354326,None,975.9003292599264,None,975.9003292599264,None,c,,,,,,,,,,,,,,,,,,,,,,,,,,,,,,,,,,,,,,,,,,,,,,,47_48Exp,001,2021_May_14_1531,ComputerHuman,2020.1.3,60.005774794712494,
Computer.xlsx,c,Sychronize.jpg,Number7.jpg,7,Computer,,,,,0,2,2,9,0,4,4,3,,,,,,,,,,,,,,,,,,,,,,,,,,,,,976.96749937606,None,976.96749937606,None,977.4001784881366,None,977.4001784881366,None,v,7.127792566247081,977.4001784881366,None,t,7.1835094796988415,977.4001784881366,None,7.127792566247081,7.1835094796988415,7.320783730448587,False,True,True,984.6500233856641,None,984.6500233856641,None,984.6500233856641,None,984.6500233856641,None,984.6500233856641,None,984.6500233856641,None,984.6500233856641,None,984.6500233856641,None,985.6649401692594,None,985.6649401692594,None,986.6481493243809,None,986.6481493243809,None,c,,,,,,,,,,,,,,,,,,,,,,,,,,,,,,,,,,,,,,,,,,,,,,,47_48Exp,001,2021_May_14_1531,ComputerHuman,2020.1.3,60.005774794712494,
Computer.xlsx,c,Sychronize.jpg,Number9.jpg,9,Computer,,,,,0,2,2,9,0,5,5,6,,,,,,,,,,,,,,,,,,,,,,,,,,,,,987.6980798089608,None,987.6980798089608,None,988.1313879922782,None,988.1313879922782,None,v,8.944160865161393,988.1313879922782,None,t,9.679467191737785,988.1313879922782,None,8.944160865161393,9.679467191737785,8.817406335100442,False,True,False,997.87965876815,None,997.87965876815,None,997.87965876815,None,997.87965876815,None,997.87965876815,None,997.87965876815,None,997.87965876815,None,997.87965876815,None,998.8955863643278,None,998.8955863643278,None,999.878748363164,None,999.878748363164,None,c,,,,,,,,,,,,,,,,,,,,,,,,,,,,,,,,,,,,,,,,,,,,,,,47_48Exp,001,2021_May_14_1531,ComputerHuman,2020.1.3,60.005774794712494,
Computer.xlsx,c,Sychronize.jpg,Number8.jpg,8,Computer,,,,,0,2,2,9,0,6,6,5,,,,,,,,,,,,,,,,,,,,,,,,,,,,,1000.9286705071754,None,1000.9286705071754,None,1001.378752212655,None,1001.378752212655,None,v,8.016347832446627,1001.378752212655,None,t,8.331503541212442,1001.378752212655,None,8.016347832446627,8.331503541212442,7.627458867848824,False,False,False,1009.7933967729696,None,1009.7933967729696,None,1009.7933967729696,None,1009.7933967729696,None,1009.7933967729696,None,1009.7933967729696,None,1009.7933967729696,None,1009.7933967729696,None,1010.7765690371198,None,1010.7765690371198,None,1011.7763338972836,None,1011.7763338972836,None,c,,,,,,,,,,,,,,,,,,,,,,,,,,,,,,,,,,,,,,,,,,,,,,,47_48Exp,001,2021_May_14_1531,ComputerHuman,2020.1.3,60.005774794712494,
Computer.xlsx,c,Sychronize.jpg,Number8.jpg,8,Computer,,,,,0,2,2,9,0,7,7,4,,,,,,,,,,,,,,,,,,,,,,,,,,,,,1012.8265421869073,None,1012.8265421869073,None,1013.2761844086563,None,1013.2761844086563,None,v,7.7785287496117235,1013.2761844086563,None,t,8.125483512303617,1013.2761844086563,None,7.7785287496117235,8.125483512303617,7.993825037181425,False,True,True,1021.4910794426178,None,1021.4910794426178,None,1021.4910794426178,None,1021.4910794426178,None,1021.4910794426178,None,1021.4910794426178,None,1021.4910794426178,None,1021.4910794426178,None,1022.4908750987233,None,1022.4908750987233,None,1023.4572921257968,None,1023.4572921257968,None,c,,,,,,,,,,,,,,,,,,,,,,,,,,,,,,,,,,,,,,,,,,,,,,,47_48Exp,001,2021_May_14_1531,ComputerHuman,2020.1.3,60.005774794712494,
Computer.xlsx,c,Sychronize.jpg,Number7.jpg,7,Computer,,,,,0,2,2,9,0,8,8,2,,,,,,,,,,,,,,,,,,,,,,,,,,,,,1024.5238103945267,None,1024.5238103945267,None,1024.9576324850968,None,1024.9576324850968,None,v,6.732714976515126,1024.9576324850968,None,t,7.403709114380035,1024.9576324850968,None,6.732714976515126,7.403709114380035,7.03061388438092,False,True,False,1032.455547343303,None,1032.455547343303,None,1032.455547343303,None,1032.455547343303,None,1032.455547343303,None,1032.455547343303,None,1032.455547343303,None,1032.455547343303,None,1033.455303221319,None,1033.455303221319,None,1034.4383795689464,None,1034.4383795689464,None,c,,,,,,,,,,,,,,,,,,,,,,,,,,,,,,,,,,,,,,,,,,,,,,,47_48Exp,001,2021_May_14_1531,ComputerHuman,2020.1.3,60.005774794712494,
Computer.xlsx,c,Sychronize.jpg,Number6.jpg,6,Computer,,,,,0,2,2,9,0,9,9,1,,,,,,,,,,,,,,,,,,,,,,,,,,,,,1035.4887367056144,None,1035.4887367056144,None,1035.938621766185,None,1035.938621766185,None,v,5.427404986501642,1035.938621766185,None,t,5.994603653038212,1035.938621766185,None,5.427404986501642,5.994603653038212,5.942552024970024,False,False,True,1042.0051050686889,None,1042.0051050686889,None,1042.0051050686889,None,1042.0051050686889,None,1042.0051050686889,None,1042.0051050686889,None,1042.0051050686889,None,1042.0051050686889,None,1043.0032778428977,None,1043.0032778428977,None,1043.986534795884,None,1043.986534795884,None,c,,,,,,,,,,,,,,,,,,,,,,,,,,,,,,,,,,,,,,,,,,,,,,,47_48Exp,001,2021_May_14_1531,ComputerHuman,2020.1.3,60.005774794712494,
Computer.xlsx,c,,,,,,,,,0,2,2,9,,,,,,,,,,,,,,,,,,,,,,,,,,,,,,,,,,,,,,,,,,,,,,,,,,,,,,,,,,,,,,,,,,,,,,,,,,,,,,,c,1045.0042283467628,None,1045.0042283467628,None,q,0,1.6936031699297018,1045.0042283467628,None,o,0,5.0445973334572045,1045.0042283467628,None,h,h,1050.1354110327738,None,1050.1354110327738,None,1052.1348785196387,None,None,None,None,None,None,None,None,,,,,,,,,,,,,,,,,,47_48Exp,001,2021_May_14_1531,ComputerHuman,2020.1.3,60.005774794712494,
Computer.xlsx,c,Sychronize.jpg,Number7.jpg,7,Computer,,,,,0,3,3,3,0,0,0,2,,,,,,,,,,,,,,,,,,,,,,,,,1057.1197038200407,None,1057.1197038200407,None,1060.200436660769,None,1060.200436660769,None,1060.633696404635,None,1060.633696404635,None,v,6.231493725004839,1060.633696404635,None,t,6.098537706100615,1060.633696404635,None,6.231493725004839,6.098537706100615,7.09031739743232,False,False,False,1066.932769575149,None,1066.932769575149,None,1066.932769575149,None,1066.932769575149,None,1066.932769575149,None,1066.932769575149,None,1066.932769575149,None,1066.932769575149,None,1067.964948124878,None,1067.964948124878,None,1068.9481142939985,None,1068.9481142939985,None,c,,,,,,,,,,,,,,,,,,,,,,,,,,,,,,,,,,,,,,,,,,,,,,,47_48Exp,001,2021_May_14_1531,ComputerHuman,2020.1.3,60.005774794712494,
Computer.xlsx,c,Sychronize.jpg,Number10.jpg,10,Computer,,,,,0,3,3,3,0,1,1,9,,,,,,,,,,,,,,,,,,,,,,,,,,,,,1069.998272861012,None,1069.998272861012,None,1070.4482230421636,None,1070.4482230421636,None,v,9.740479402968049,1070.4482230421636,None,t,9.89541987377379,1070.4482230421636,None,9.740479402968049,9.89541987377379,10.0332842355463,False,True,True,1080.4129921656386,None,1080.4129921656386,None,1080.4129921656386,None,1080.4129921656386,None,1080.4129921656386,None,1080.4129921656386,None,1080.4129921656386,None,1080.4129921656386,None,1081.4288902490407,None,1081.4288902490407,None,1082.4120371706995,None,1082.4120371706995,None,c,,,,,,,,,,,,,,,,,,,,,,,,,,,,,,,,,,,,,,,,,,,,,,,47_48Exp,001,2021_May_14_1531,ComputerHuman,2020.1.3,60.005774794712494,
Computer.xlsx,c,Sychronize.jpg,Number7.jpg,7,Computer,,,,,0,3,3,3,0,2,2,3,,,,,,,,,,,,,,,,,,,,,,,,,,,,,1083.462011603653,None,1083.462011603653,None,1083.9119640303397,None,1083.9119640303397,None,v,7.056394744930003,1083.9119640303397,None,t,6.539591389198904,1083.9119640303397,None,7.056394744930003,6.539591389198904,7.373260248926389,False,False,False,1091.0452212720375,None,1091.0452212720375,None,1091.0452212720375,None,1091.0452212720375,None,1091.0452212720375,None,1091.0452212720375,None,1091.0452212720375,None,1091.0452212720375,None,1092.043425804557,None,1092.043425804557,None,1093.0257729941404,None,1093.0257729941404,None,c,,,,,,,,,,,,,,,,,,,,,,,,,,,,,,,,,,,,,,,,,,,,,,,47_48Exp,001,2021_May_14_1531,ComputerHuman,2020.1.3,60.005774794712494,
Computer.xlsx,c,Sychronize.jpg,Number9.jpg,9,Computer,,,,,0,3,3,3,0,3,3,7,,,,,,,,,,,,,,,,,,,,,,,,,,,,,1094.1100428769314,None,1094.1100428769314,None,1094.5264456929617,None,1094.5264456929617,None,v,9.129460358886718,1094.5264456929617,None,t,8.996380193846562,1094.5264456929617,None,9.129460358886718,8.996380193846562,8.551503949645591,False,False,False,1103.7259369825224,None,1103.7259369825224,None,1103.7259369825224,None,1103.7259369825224,None,1103.7259369825224,None,1103.7259369825224,None,1103.7259369825224,None,1103.7259369825224,None,1104.7240715825938,None,1104.7240715825938,None,1105.7072938901474,None,1105.7072938901474,None,c,,,,,,,,,,,,,,,,,,,,,,,,,,,,,,,,,,,,,,,,,,,,,,,47_48Exp,001,2021_May_14_1531,ComputerHuman,2020.1.3,60.005774794712494,
Computer.xlsx,c,Sychronize.jpg,Number8.jpg,8,Computer,,,,,0,3,3,3,0,4,4,4,,,,,,,,,,,,,,,,,,,,,,,,,,,,,1106.774165991399,None,1106.774165991399,None,1107.207329177163,None,1107.207329177163,None,v,7.5482357454893645,1107.207329177163,None,t,7.4955663469663705,1107.207329177163,None,7.5482357454893645,7.4955663469663705,8.467257303002077,False,False,False,1114.8236887505627,None,1114.8236887505627,None,1114.8236887505627,None,1114.8236887505627,None,1114.8236887505627,None,1114.8236887505627,None,1114.8236887505627,None,1114.8236887505627,None,1115.8385862866962,None,1115.8385862866962,None,1116.8217239054102,None,1116.8217239054102,None,c,,,,,,,,,,,,,,,,,,,,,,,,,,,,,,,,,,,,,,,,,,,,,,,47_48Exp,001,2021_May_14_1531,ComputerHuman,2020.1.3,60.005774794712494,
Computer.xlsx,c,Sychronize.jpg,Number6.jpg,6,Computer,,,,,0,3,3,3,0,5,5,0,,,,,,,,,,,,,,,,,,,,,,,,,,,,,1117.871623594052,None,1117.871623594052,None,1118.3217630419203,None,1118.3217630419203,None,v,5.853513335605385,1118.3217630419203,None,t,5.99663297718871,1118.3217630419203,None,5.853513335605385,5.99663297718871,6.35213813712112,False,False,False,1124.4033767748551,None,1124.4033767748551,None,1124.4033767748551,None,1124.4033767748551,None,1124.4033767748551,None,1124.4033767748551,None,1124.4033767748551,None,1124.4033767748551,None,1125.3864502353645,None,1125.3864502353645,None,1126.3698031048698,None,1126.3698031048698,None,c,,,,,,,,,,,,,,,,,,,,,,,,,,,,,,,,,,,,,,,,,,,,,,,47_48Exp,001,2021_May_14_1531,ComputerHuman,2020.1.3,60.005774794712494,
Computer.xlsx,c,Sychronize.jpg,Number8.jpg,8,Computer,,,,,0,3,3,3,0,6,6,5,,,,,,,,,,,,,,,,,,,,,,,,,,,,,1127.4368833995104,None,1127.4368833995104,None,1127.8700472268574,None,1127.8700472268574,None,v,7.632796264966601,1127.8700472268574,None,t,8.523481904496293,1127.8700472268574,None,7.632796264966601,8.523481904496293,7.605202149394771,False,True,False,1136.4842841259087,None,1136.4842841259087,None,1136.4842841259087,None,1136.4842841259087,None,1136.4842841259087,None,1136.4842841259087,None,1136.4842841259087,None,1136.4842841259087,None,1137.484163187688,None,1137.484163187688,None,1138.4506706778375,None,1138.4506706778375,None,c,,,,,,,,,,,,,,,,,,,,,,,,,,,,,,,,,,,,,,,,,,,,,,,47_48Exp,001,2021_May_14_1531,ComputerHuman,2020.1.3,60.005774794712494,
Computer.xlsx,c,Sychronize.jpg,Number9.jpg,9,Computer,,,,,0,3,3,3,0,7,7,6,,,,,,,,,,,,,,,,,,,,,,,,,,,,,1139.5178112811918,None,1139.5178112811918,None,1139.9509625976862,None,1139.9509625976862,None,v,8.635322815236577,1139.9509625976862,None,t,9.862449611748161,1139.9509625976862,None,8.635322815236577,9.862449611748161,9.099614881858143,False,False,False,1149.8832115289733,None,1149.8832115289733,None,1149.8832115289733,None,1149.8832115289733,None,1149.8832115289733,None,1149.8832115289733,None,1149.8832115289733,None,1149.8832115289733,None,1150.89812574624,None,1150.89812574624,None,1151.8812806876704,None,1151.8812806876704,None,c,,,,,,,,,,,,,,,,,,,,,,,,,,,,,,,,,,,,,,,,,,,,,,,47_48Exp,001,2021_May_14_1531,ComputerHuman,2020.1.3,60.005774794712494,
Computer.xlsx,c,Sychronize.jpg,Number6.jpg,6,Computer,,,,,0,3,3,3,0,8,8,1,,,,,,,,,,,,,,,,,,,,,,,,,,,,,1152.931297465042,None,1152.931297465042,None,1153.3813833408058,None,1153.3813833408058,None,v,5.48870558888666,1153.3813833408058,None,t,5.955589687720931,1153.3813833408058,None,5.48870558888666,5.955589687720931,5.6958860889494884,False,True,True,1159.3978450540744,None,1159.3978450540744,None,1159.3978450540744,None,1159.3978450540744,None,1159.3978450540744,None,1159.3978450540744,None,1159.3978450540744,None,1159.3978450540744,None,1160.4127852554157,None,1160.4127852554157,None,1161.3960296975492,None,1161.3960296975492,None,c,,,,,,,,,,,,,,,,,,,,,,,,,,,,,,,,,,,,,,,,,,,,,,,47_48Exp,001,2021_May_14_1531,ComputerHuman,2020.1.3,60.005774794712494,
Computer.xlsx,c,Sychronize.jpg,Number10.jpg,10,Computer,,,,,0,3,3,3,0,9,9,8,,,,,,,,,,,,,,,,,,,,,,,,,,,,,1162.4633226766528,None,1162.4633226766528,None,1162.9127095487274,None,1162.9127095487274,None,v,9.82885188243381,1162.9127095487274,None,t,9.772515521472087,1162.9127095487274,None,9.82885188243381,9.772515521472087,9.278365778642186,False,False,False,1172.8269280985369,None,1172.8269280985369,None,1172.8269280985369,None,1172.8269280985369,None,1172.8269280985369,None,1172.8269280985369,None,1172.8269280985369,None,1172.8269280985369,None,1173.8101850515195,None,1173.8101850515195,None,1174.7933024604026,None,1174.7933024604026,None,c,,,,,,,,,,,,,,,,,,,,,,,,,,,,,,,,,,,,,,,,,,,,,,,47_48Exp,001,2021_May_14_1531,ComputerHuman,2020.1.3,60.005774794712494,
Computer.xlsx,c,,,,,,,,,0,3,3,3,,,,,,,,,,,,,,,,,,,,,,,,,,,,,,,,,,,,,,,,,,,,,,,,,,,,,,,,,,,,,,,,,,,,,,,,,,,,,,,c,1175.7937926291197,None,1175.7937926291197,None,q,0,1.455641335083783,1175.7937926291197,None,l,1,4.810613628360443,1175.7937926291197,None,h,c,1180.6919135634926,None,1180.6919135634926,None,1182.691741619492,None,None,None,None,None,None,None,None,,,,,,,,,,,,,,,,,,47_48Exp,001,2021_May_14_1531,ComputerHuman,2020.1.3,60.005774794712494,
Human.xlsx,h,Sychronize.jpg,Number9.jpg,9,Human,,,,,0,4,4,8,0,0,0,7,,,,,,,,,,,,,,,,,,,,,,,,,1187.6932169375104,None,1187.6932169375104,None,1190.757343708996,None,1190.757343708996,None,1191.190276566791,None,1191.190276566791,None,v,8.422404816483322,1191.190276566791,None,t,10.173469040775672,1191.190276566791,None,8.422404816483322,10.173469040775672,8.918853979271415,False,False,False,1201.4395610423635,None,1201.4395610423635,None,1201.4395610423635,None,1201.4395610423635,None,1201.4395610423635,None,1201.4395610423635,None,1201.4395610423635,None,1201.4395610423635,None,1202.4559781656753,None,1202.4559781656753,None,1203.4541432408987,None,1203.4541432408987,None,h,,,,,,,,,,,,,,,,,,,,,,,,,,,,,,,,,,,,,,,,,,,,,,,47_48Exp,001,2021_May_14_1531,ComputerHuman,2020.1.3,60.005774794712494,
Human.xlsx,h,Sychronize.jpg,Number7.jpg,7,Human,,,,,0,4,4,8,0,1,1,2,,,,,,,,,,,,,,,,,,,,,,,,,,,,,1204.5044455222996,None,1204.5044455222996,None,1204.9374117423613,None,1204.9374117423613,None,v,6.654800926702592,1204.9374117423613,None,t,7.173546351419645,1204.9374117423613,None,6.654800926702592,7.173546351419645,6.64560423049122,False,False,False,1212.187118058162,None,1212.187118058162,None,1212.187118058162,None,1212.187118058162,None,1212.187118058162,None,1212.187118058162,None,1212.187118058162,None,1212.187118058162,None,1213.1878735210703,None,1213.1878735210703,None,1214.185334780741,None,1214.185334780741,None,h,,,,,,,,,,,,,,,,,,,,,,,,,,,,,,,,,,,,,,,,,,,,,,,47_48Exp,001,2021_May_14_1531,ComputerHuman,2020.1.3,60.005774794712494,
Human.xlsx,h,Sychronize.jpg,Number8.jpg,8,Human,,,,,0,4,4,8,0,2,2,4,,,,,,,,,,,,,,,,,,,,,,,,,,,,,1215.235750301381,None,1215.235750301381,None,1215.6853979765765,None,1215.6853979765765,None,v,7.622464226988086,1215.6853979765765,None,t,7.657580581104412,1215.6853979765765,None,7.622464226988086,7.657580581104412,8.306773313875782,True,False,False,1223.4172641399855,None,1223.4172641399855,None,1223.4172641399855,None,1223.4172641399855,None,1223.4172641399855,None,1223.4172641399855,None,1223.4172641399855,None,1223.4172641399855,None,1224.4026437673165,None,1224.4026437673165,None,1225.3997165490327,None,1225.3997165490327,None,h,,,,,,,,,,,,,,,,,,,,,,,,,,,,,,,,,,,,,,,,,,,,,,,47_48Exp,001,2021_May_14_1531,ComputerHuman,2020.1.3,60.005774794712494,
Human.xlsx,h,Sychronize.jpg,Number9.jpg,9,Human,,,,,0,4,4,8,0,3,3,6,,,,,,,,,,,,,,,,,,,,,,,,,,,,,1226.466791390223,None,1226.466791390223,None,1226.8997556855393,None,1226.8997556855393,None,v,8.931610877898493,1226.8997556855393,None,t,8.662491892006074,1226.8997556855393,None,8.931610877898493,8.662491892006074,9.501577406490796,True,False,False,1235.8992764237191,None,1235.8992764237191,None,1235.8992764237191,None,1235.8992764237191,None,1235.8992764237191,None,1235.8992764237191,None,1235.8992764237191,None,1235.8992764237191,None,1236.8999375740605,None,1236.8999375740605,None,1237.8806602777913,None,1237.8806602777913,None,h,,,,,,,,,,,,,,,,,,,,,,,,,,,,,,,,,,,,,,,,,,,,,,,47_48Exp,001,2021_May_14_1531,ComputerHuman,2020.1.3,60.005774794712494,
Human.xlsx,h,Sychronize.jpg,Number6.jpg,6,Human,,,,,0,4,4,8,0,4,4,0,,,,,,,,,,,,,,,,,,,,,,,,,,,,,1238.947716513103,None,1238.947716513103,None,1239.380594194834,None,1239.380594194834,None,v,11.82229266793729,1239.380594194834,None,t,5.169573354323802,1239.380594194834,None,11.82229266793729,5.169573354323802,5.677633441899182,False,False,False,1251.2943610708498,None,1251.2943610708498,None,1251.2943610708498,None,1251.2943610708498,None,1251.2943610708498,None,1251.2943610708498,None,1251.2943610708498,None,1251.2943610708498,None,1252.278999670867,None,1252.278999670867,None,1253.2773568999255,None,1253.2773568999255,None,h,,,,,,,,,,,,,,,,,,,,,,,,,,,,,,,,,,,,,,,,,,,,,,,47_48Exp,001,2021_May_14_1531,ComputerHuman,2020.1.3,60.005774794712494,
Human.xlsx,h,Sychronize.jpg,Number6.jpg,6,Human,,,,,0,4,4,8,0,5,5,1,,,,,,,,,,,,,,,,,,,,,,,,,,,,,1254.3109241540878,None,1254.3109241540878,None,1254.760926624178,None,1254.760926624178,None,v,6.769652140606922,1254.760926624178,None,t,5.816549545856105,1254.760926624178,None,6.769652140606922,5.816549545856105,5.8253383105265035,False,False,False,1261.5936068269439,None,1261.5936068269439,None,1261.5936068269439,None,1261.5936068269439,None,1261.5936068269439,None,1261.5936068269439,None,1261.5936068269439,None,1261.5936068269439,None,1262.6112962075422,None,1262.6112962075422,None,1263.6086730991665,None,1263.6086730991665,None,h,,,,,,,,,,,,,,,,,,,,,,,,,,,,,,,,,,,,,,,,,,,,,,,47_48Exp,001,2021_May_14_1531,ComputerHuman,2020.1.3,60.005774794712494,
Human.xlsx,h,Sychronize.jpg,Number10.jpg,10,Human,,,,,0,4,4,8,0,6,6,8,,,,,,,,,,,,,,,,,,,,,,,,,,,,,1264.6585891481518,None,1264.6585891481518,None,1265.1087532969286,None,1265.1087532969286,None,v,10.545282863920875,1265.1087532969286,None,t,9.768560488679213,1265.1087532969286,None,10.545282863920875,9.768560488679213,9.750876290293265,False,False,False,1275.7068271391763,None,1275.7068271391763,None,1275.7068271391763,None,1275.7068271391763,None,1275.7068271391763,None,1275.7068271391763,None,1275.7068271391763,None,1275.7068271391763,None,1276.7074523609263,None,1276.7074523609263,None,1277.7057739821757,None,1277.7057739821757,None,h,,,,,,,,,,,,,,,,,,,,,,,,,,,,,,,,,,,,,,,,,,,,,,,47_48Exp,001,2021_May_14_1531,ComputerHuman,2020.1.3,60.005774794712494,
Human.xlsx,h,Sychronize.jpg,Number8.jpg,8,Human,,,,,0,4,4,8,0,7,7,5,,,,,,,,,,,,,,,,,,,,,,,,,,,,,1278.7725228996678,None,1278.7725228996678,None,1279.22227098246,None,1279.22227098246,None,v,8.463367266609566,1279.22227098246,None,t,8.002519492867577,1279.22227098246,None,8.463367266609566,8.002519492867577,7.737396041812337,False,False,False,1287.770422359903,None,1287.770422359903,None,1287.770422359903,None,1287.770422359903,None,1287.770422359903,None,1287.770422359903,None,1287.770422359903,None,1287.770422359903,None,1288.7562520570718,None,1288.7562520570718,None,1289.7366664806068,None,1289.7366664806068,None,h,,,,,,,,,,,,,,,,,,,,,,,,,,,,,,,,,,,,,,,,,,,,,,,47_48Exp,001,2021_May_14_1531,ComputerHuman,2020.1.3,60.005774794712494,
Human.xlsx,h,Sychronize.jpg,Number7.jpg,7,Human,,,,,0,4,4,8,0,8,8,3,,,,,,,,,,,,,,,,,,,,,,,,,,,,,1290.8029656490507,None,1290.8029656490507,None,1291.2368140444887,None,1291.2368140444887,None,v,8.172405939250893,1291.2368140444887,None,t,7.155516290731612,1291.2368140444887,None,8.172405939250893,7.155516290731612,6.946781765648001,False,False,False,1299.501341548148,None,1299.501341548148,None,1299.501341548148,None,1299.501341548148,None,1299.501341548148,None,1299.501341548148,None,1299.501341548148,None,1299.501341548148,None,1300.4863901191202,None,1300.4863901191202,None,1301.4842680863585,None,1301.4842680863585,None,h,,,,,,,,,,,,,,,,,,,,,,,,,,,,,,,,,,,,,,,,,,,,,,,47_48Exp,001,2021_May_14_1531,ComputerHuman,2020.1.3,60.005774794712494,
Human.xlsx,h,Sychronize.jpg,Number10.jpg,10,Human,,,,,0,4,4,8,0,9,9,9,,,,,,,,,,,,,,,,,,,,,,,,,,,,,1302.5343640991196,None,1302.5343640991196,None,1302.9842905417318,None,1302.9842905417318,None,v,8.452531586692203,1302.9842905417318,None,t,10.683401693902852,1302.9842905417318,None,8.452531586692203,10.683401693902852,10.437378580535274,False,False,False,1313.7651475927523,None,1313.7651475927523,None,1313.7651475927523,None,1313.7651475927523,None,1313.7651475927523,None,1313.7651475927523,None,1313.7651475927523,None,1313.7651475927523,None,1314.7506645186477,None,1314.7506645186477,None,1315.7480263330945,None,1315.7480263330945,None,h,,,,,,,,,,,,,,,,,,,,,,,,,,,,,,,,,,,,,,,,,,,,,,,47_48Exp,001,2021_May_14_1531,ComputerHuman,2020.1.3,60.005774794712494,
Human.xlsx,h,,,,,,,,,0,4,4,8,,,,,,,,,,,,,,,,,,,,,,,,,,,,,,,,,,,,,,,,,,,,,,,,,,,,,,,,,,,,,,,,,,,,,,,,,,,,,,,h,1316.748536711646,None,1316.748536711646,None,q,0,3.024094615393551,1316.748536711646,None,l,0,3.1876547415813548,1316.748536711646,None,h,c,1320.0309178409225,None,1320.0309178409225,None,None,None,1322.0301033524593,None,1322.0301033524593,None,"['space', 'space']",1323.0132416127562,None,"[19.470637674854515, 20.930448651939514]",,,,,,,,,,,,,,,,,47_48Exp,001,2021_May_14_1531,ComputerHuman,2020.1.3,60.005774794712494,
Human.xlsx,h,Sychronize.jpg,Number8.jpg,8,Human,,,,,0,5,5,0,0,0,0,4,,,,,,,,,,,,,,,,,,,,,,,,,1343.9950546852488,None,1343.9950546852488,None,1347.0759196918843,None,1347.0759196918843,None,1347.5254432209476,None,1347.5254432209476,None,v,7.997899139445508,1347.5254432209476,None,t,7.409531471847004,1347.5254432209476,None,7.997899139445508,7.409531471847004,7.662437964146436,False,False,False,1355.5904351658828,None,1355.5904351658828,None,1355.5904351658828,None,1355.5904351658828,None,1355.5904351658828,None,1355.5904351658828,None,1355.5904351658828,None,1355.5904351658828,None,1356.609110337362,None,1356.609110337362,None,1357.5895831448688,None,1357.5895831448688,None,h,,,,,,,,,,,,,,,,,,,,,,,,,,,,,,,,,,,,,,,,,,,,,,,47_48Exp,001,2021_May_14_1531,ComputerHuman,2020.1.3,60.005774794712494,
Human.xlsx,h,Sychronize.jpg,Number6.jpg,6,Human,,,,,0,5,5,0,0,1,1,0,,,,,,,,,,,,,,,,,,,,,,,,,,,,,1358.656464549058,None,1358.656464549058,None,1359.0895606894956,None,1359.0895606894956,None,v,6.237381523849763,1359.0895606894956,None,t,5.744595472868241,1359.0895606894956,None,6.237381523849763,5.744595472868241,6.268986914199155,False,False,False,1365.4057884819304,None,1365.4057884819304,None,1365.4057884819304,None,1365.4057884819304,None,1365.4057884819304,None,1365.4057884819304,None,1365.4057884819304,None,1365.4057884819304,None,1366.4068034647971,None,1366.4068034647971,None,1367.4042326453637,None,1367.4042326453637,None,h,,,,,,,,,,,,,,,,,,,,,,,,,,,,,,,,,,,,,,,,,,,,,,,47_48Exp,001,2021_May_14_1531,ComputerHuman,2020.1.3,60.005774794712494,
Human.xlsx,h,Sychronize.jpg,Number9.jpg,9,Human,,,,,0,5,5,0,0,2,2,6,,,,,,,,,,,,,,,,,,,,,,,,,,,,,1368.4540710629153,None,1368.4540710629153,None,1368.904237457231,None,1368.904237457231,None,v,8.850298367749929,1368.904237457231,None,t,9.04550902160554,1368.904237457231,None,8.850298367749929,9.04550902160554,9.575129503268649,True,False,False,1378.0025073028082,None,1378.0025073028082,None,1378.0025073028082,None,1378.0025073028082,None,1378.0025073028082,None,1378.0025073028082,None,1378.0025073028082,None,1378.0025073028082,None,1379.0198175083897,None,1379.0198175083897,None,1380.0183752318517,None,1380.0183752318517,None,h,,,,,,,,,,,,,,,,,,,,,,,,,,,,,,,,,,,,,,,,,,,,,,,47_48Exp,001,2021_May_14_1531,ComputerHuman,2020.1.3,60.005774794712494,
Human.xlsx,h,Sychronize.jpg,Number7.jpg,7,Human,,,,,0,5,5,0,0,3,3,3,,,,,,,,,,,,,,,,,,,,,,,,,,,,,1381.0687689387014,None,1381.0687689387014,None,1381.5185821420746,None,1381.5185821420746,None,v,7.051550158568716,1381.5185821420746,None,t,7.2945269198207825,1381.5185821420746,None,7.051550158568716,7.2945269198207825,6.967454360740846,True,False,False,1388.8998820772103,None,1388.8998820772103,None,1388.8998820772103,None,1388.8998820772103,None,1388.8998820772103,None,1388.8998820772103,None,1388.8998820772103,None,1388.8998820772103,None,1389.8857364752876,None,1389.8857364752876,None,1390.866181373971,None,1390.866181373971,None,h,,,,,,,,,,,,,,,,,,,,,,,,,,,,,,,,,,,,,,,,,,,,,,,47_48Exp,001,2021_May_14_1531,ComputerHuman,2020.1.3,60.005774794712494,
Human.xlsx,h,Sychronize.jpg,Number6.jpg,6,Human,,,,,0,5,5,0,0,4,4,1,,,,,,,,,,,,,,,,,,,,,,,,,,,,,1391.9163210143124,None,1391.9163210143124,None,1392.3664030405853,None,1392.3664030405853,None,v,5.415422799389489,1392.3664030405853,None,t,6.202565430146933,1392.3664030405853,None,5.415422799389489,6.202565430146933,6.3666975524738,False,False,False,1398.6646684592451,None,1398.6646684592451,None,1398.6646684592451,None,1398.6646684592451,None,1398.6646684592451,None,1398.6646684592451,None,1398.6646684592451,None,1398.6646684592451,None,1399.6493676887694,None,1399.6493676887694,None,1400.6472950578282,None,1400.6472950578282,None,h,,,,,,,,,,,,,,,,,,,,,,,,,,,,,,,,,,,,,,,,,,,,,,,47_48Exp,001,2021_May_14_1531,ComputerHuman,2020.1.3,60.005774794712494,
Human.xlsx,h,Sychronize.jpg,Number9.jpg,9,Human,,,,,0,5,5,0,0,5,5,7,,,,,,,,,,,,,,,,,,,,,,,,,,,,,1401.681520896007,None,1401.681520896007,None,1402.1477666206629,None,1402.1477666206629,None,v,8.589629980364407,1402.1477666206629,None,t,9.104490946316218,1402.1477666206629,None,8.589629980364407,9.104490946316218,9.17362262105183,False,False,False,1411.345309104625,None,1411.345309104625,None,1411.345309104625,None,1411.345309104625,None,1411.345309104625,None,1411.345309104625,None,1411.345309104625,None,1411.345309104625,None,1412.3312735340332,None,1412.3312735340332,None,1413.3282844030728,None,1413.3282844030728,None,h,,,,,,,,,,,,,,,,,,,,,,,,,,,,,,,,,,,,,,,,,,,,,,,47_48Exp,001,2021_May_14_1531,ComputerHuman,2020.1.3,60.005774794712494,
Human.xlsx,h,Sychronize.jpg,Number10.jpg,10,Human,,,,,0,5,5,0,0,6,6,8,,,,,,,,,,,,,,,,,,,,,,,,,,,,,1414.3952350981308,None,1414.3952350981308,None,1414.8286356692697,None,1414.8286356692697,None,v,9.252331348918233,1414.8286356692697,None,t,10.787426851624332,1414.8286356692697,None,9.252331348918233,10.787426851624332,9.41438098513437,False,False,False,1425.6923928253127,None,1425.6923928253127,None,1425.6923928253127,None,1425.6923928253127,None,1425.6923928253127,None,1425.6923928253127,None,1425.6923928253127,None,1425.6923928253127,None,1426.67776764078,None,1426.67776764078,None,1427.6753825593587,None,1427.6753825593587,None,h,,,,,,,,,,,,,,,,,,,,,,,,,,,,,,,,,,,,,,,,,,,,,,,47_48Exp,001,2021_May_14_1531,ComputerHuman,2020.1.3,60.005774794712494,
Human.xlsx,h,Sychronize.jpg,Number7.jpg,7,Human,,,,,0,5,5,0,0,7,7,2,,,,,,,,,,,,,,,,,,,,,,,,,,,,,1428.7420544870001,None,1428.7420544870001,None,1429.1920916025229,None,1429.1920916025229,None,v,7.156436961031432,1429.1920916025229,None,t,7.3155736994958716,1429.1920916025229,None,7.156436961031432,7.3155736994958716,6.993199232359579,True,False,False,1436.59037293242,None,1436.59037293242,None,1436.59037293242,None,1436.59037293242,None,1436.59037293242,None,1436.59037293242,None,1436.59037293242,None,1436.59037293242,None,1437.57492908914,None,1437.57492908914,None,1438.5564377309274,None,1438.5564377309274,None,h,,,,,,,,,,,,,,,,,,,,,,,,,,,,,,,,,,,,,,,,,,,,,,,47_48Exp,001,2021_May_14_1531,ComputerHuman,2020.1.3,60.005774794712494,
Human.xlsx,h,Sychronize.jpg,Number8.jpg,8,Human,,,,,0,5,5,0,0,8,8,5,,,,,,,,,,,,,,,,,,,,,,,,,,,,,1439.589826946063,None,1439.589826946063,None,1440.0566340550467,None,1440.0566340550467,None,v,7.791523994848831,1440.0566340550467,None,t,8.690552126299735,1440.0566340550467,None,7.791523994848831,8.690552126299735,8.549185117696391,False,False,False,1448.8376502184256,None,1448.8376502184256,None,1448.8376502184256,None,1448.8376502184256,None,1448.8376502184256,None,1448.8376502184256,None,1448.8376502184256,None,1448.8376502184256,None,1449.822276949173,None,1449.822276949173,None,1450.8206335366485,None,1450.8206335366485,None,h,,,,,,,,,,,,,,,,,,,,,,,,,,,,,,,,,,,,,,,,,,,,,,,47_48Exp,001,2021_May_14_1531,ComputerHuman,2020.1.3,60.005774794712494,
Human.xlsx,h,Sychronize.jpg,Number10.jpg,10,Human,,,,,0,5,5,0,0,9,9,9,,,,,,,,,,,,,,,,,,,,,,,,,,,,,1451.870997409933,None,1451.870997409933,None,1452.3206020991274,None,1452.3206020991274,None,v,9.251059091635398,1452.3206020991274,None,t,11.190387560494855,1452.3206020991274,None,9.251059091635398,11.190387560494855,9.298758040911737,False,False,False,1463.5858048679402,None,1463.5858048679402,None,1463.5858048679402,None,1463.5858048679402,None,1463.5858048679402,None,1463.5858048679402,None,1463.5858048679402,None,1463.5858048679402,None,1464.5873481936578,None,1464.5873481936578,None,1465.584334361789,None,1465.584334361789,None,h,,,,,,,,,,,,,,,,,,,,,,,,,,,,,,,,,,,,,,,,,,,,,,,47_48Exp,001,2021_May_14_1531,ComputerHuman,2020.1.3,60.005774794712494,
Human.xlsx,h,,,,,,,,,0,5,5,0,,,,,,,,,,,,,,,,,,,,,,,,,,,,,,,,,,,,,,,,,,,,,,,,,,,,,,,,,,,,,,,,,,,,,,,,,,,,,,,h,1466.584780902922,None,1466.584780902922,None,q,0,2.506979450768995,1466.584780902922,None,o,1,5.321794158651755,1466.584780902922,None,h,h,1472.00002790882,None,1472.00002790882,None,1473.9825881036559,None,None,None,None,None,None,None,None,,,,,,,,,,,,,,,,,,47_48Exp,001,2021_May_14_1531,ComputerHuman,2020.1.3,60.005774794712494,
Computer.xlsx,c,Sychronize.jpg,Number8.jpg,8,Computer,,,,,0,6,6,1,0,0,0,5,,,,,,,,,,,,,,,,,,,,,,,,,1479.0016924935517,None,1479.0016924935517,None,1482.0819265042046,None,1482.0819265042046,None,1482.5146367330126,None,1482.5146367330126,None,v,7.324058943428099,1482.5146367330126,None,t,8.523481262916903,1482.5146367330126,None,7.324058943428099,8.523481262916903,8.130328049837058,False,False,False,1491.1291908944077,None,1491.1291908944077,None,1491.1291908944077,None,1491.1291908944077,None,1491.1291908944077,None,1491.1291908944077,None,1491.1291908944077,None,1491.1291908944077,None,1492.1290054771853,None,1492.1290054771853,None,1493.112057444694,None,1493.112057444694,None,c,,,,,,,,,,,,,,,,,,,,,,,,,,,,,,,,,,,,,,,,,,,,,,,47_48Exp,001,2021_May_14_1531,ComputerHuman,2020.1.3,60.005774794712494,
Computer.xlsx,c,Sychronize.jpg,Number6.jpg,6,Computer,,,,,0,6,6,1,0,1,1,0,,,,,,,,,,,,,,,,,,,,,,,,,,,,,1494.1788653877338,None,1494.1788653877338,None,1494.6119698687362,None,1494.6119698687362,None,v,5.734393676051695,1494.6119698687362,None,t,5.701566807620111,1494.6119698687362,None,5.734393676051695,5.701566807620111,5.73225587559633,False,True,True,1500.443915139218,None,1500.443915139218,None,1500.443915139218,None,1500.443915139218,None,1500.443915139218,None,1500.443915139218,None,1500.443915139218,None,1500.443915139218,None,1501.4436613935031,None,1501.4436613935031,None,1502.4268692654587,None,1502.4268692654587,None,c,,,,,,,,,,,,,,,,,,,,,,,,,,,,,,,,,,,,,,,,,,,,,,,47_48Exp,001,2021_May_14_1531,ComputerHuman,2020.1.3,60.005774794712494,
Computer.xlsx,c,Sychronize.jpg,Number7.jpg,7,Computer,,,,,0,6,6,1,0,2,2,3,,,,,,,,,,,,,,,,,,,,,,,,,,,,,1503.476362511843,None,1503.476362511843,None,1503.9269401602796,None,1503.9269401602796,None,v,6.803084662533365,1503.9269401602796,None,t,6.606574163357436,1503.9269401602796,None,6.803084662533365,6.606574163357436,7.2413008064320845,False,False,False,1510.8101725406705,None,1510.8101725406705,None,1510.8101725406705,None,1510.8101725406705,None,1510.8101725406705,None,1510.8101725406705,None,1510.8101725406705,None,1510.8101725406705,None,1511.8248352577575,None,1511.8248352577575,None,1512.8080979849801,None,1512.8080979849801,None,c,,,,,,,,,,,,,,,,,,,,,,,,,,,,,,,,,,,,,,,,,,,,,,,47_48Exp,001,2021_May_14_1531,ComputerHuman,2020.1.3,60.005774794712494,
Computer.xlsx,c,Sychronize.jpg,Number7.jpg,7,Computer,,,,,0,6,6,1,0,3,3,2,,,,,,,,,,,,,,,,,,,,,,,,,,,,,1513.8580403388296,None,1513.8580403388296,None,1514.3081836361926,None,1514.3081836361926,None,v,6.385393549662695,1514.3081836361926,None,t,6.352513429919782,1514.3081836361926,None,6.385393549662695,6.352513429919782,6.897342063332321,False,False,False,1520.7898196320239,None,1520.7898196320239,None,1520.7898196320239,None,1520.7898196320239,None,1520.7898196320239,None,1520.7898196320239,None,1520.7898196320239,None,1520.7898196320239,None,1521.7896047020258,None,1521.7896047020258,None,1522.7559944618624,None,1522.7559944618624,None,c,,,,,,,,,,,,,,,,,,,,,,,,,,,,,,,,,,,,,,,,,,,,,,,47_48Exp,001,2021_May_14_1531,ComputerHuman,2020.1.3,60.005774794712494,
Computer.xlsx,c,Sychronize.jpg,Number10.jpg,10,Computer,,,,,0,6,6,1,0,4,4,9,,,,,,,,,,,,,,,,,,,,,,,,,,,,,1523.806545356325,None,1523.806545356325,None,1524.2559447392487,None,1524.2559447392487,None,v,9.52528025909487,1524.2559447392487,None,t,10.720652591640828,1524.2559447392487,None,9.52528025909487,10.720652591640828,10.0703275989602,False,False,False,1535.0549948128064,None,1535.0549948128064,None,1535.0549948128064,None,1535.0549948128064,None,1535.0549948128064,None,1535.0549948128064,None,1535.0549948128064,None,1535.0549948128064,None,1536.0699154458962,None,1536.0699154458962,None,1537.053252596641,None,1537.053252596641,None,c,,,,,,,,,,,,,,,,,,,,,,,,,,,,,,,,,,,,,,,,,,,,,,,47_48Exp,001,2021_May_14_1531,ComputerHuman,2020.1.3,60.005774794712494,
Computer.xlsx,c,Sychronize.jpg,Number9.jpg,9,Computer,,,,,0,6,6,1,0,5,5,6,,,,,,,,,,,,,,,,,,,,,,,,,,,,,1538.0871066379987,None,1538.0871066379987,None,1538.5364668844195,None,1538.5364668844195,None,v,8.532267408849293,1538.5364668844195,None,t,9.459460673264402,1538.5364668844195,None,8.532267408849293,9.459460673264402,9.648941865056935,False,False,True,1548.0842191978045,None,1548.0842191978045,None,1548.0842191978045,None,1548.0842191978045,None,1548.0842191978045,None,1548.0842191978045,None,1548.0842191978045,None,1548.0842191978045,None,1549.0841123743849,None,1549.0841123743849,None,1550.0671653042664,None,1550.0671653042664,None,c,,,,,,,,,,,,,,,,,,,,,,,,,,,,,,,,,,,,,,,,,,,,,,,47_48Exp,001,2021_May_14_1531,ComputerHuman,2020.1.3,60.005774794712494,
Computer.xlsx,c,Sychronize.jpg,Number8.jpg,8,Computer,,,,,0,6,6,1,0,6,6,4,,,,,,,,,,,,,,,,,,,,,,,,,,,,,1551.116775960174,None,1551.116775960174,None,1551.5671556805355,None,1551.5671556805355,None,v,7.885167391974392,1551.5671556805355,None,t,7.8965403968977625,1551.5671556805355,None,7.885167391974392,7.8965403968977625,7.734596639721314,False,True,True,1559.533620826267,None,1559.533620826267,None,1559.533620826267,None,1559.533620826267,None,1559.533620826267,None,1559.533620826267,None,1559.533620826267,None,1559.533620826267,None,1560.548341285743,None,1560.548341285743,None,1561.5314673559806,None,1561.5314673559806,None,c,,,,,,,,,,,,,,,,,,,,,,,,,,,,,,,,,,,,,,,,,,,,,,,47_48Exp,001,2021_May_14_1531,ComputerHuman,2020.1.3,60.005774794712494,
Computer.xlsx,c,Sychronize.jpg,Number10.jpg,10,Computer,,,,,0,6,6,1,0,7,7,8,,,,,,,,,,,,,,,,,,,,,,,,,,,,,1562.5988309091153,None,1562.5988309091153,None,1563.0485591028628,None,1563.0485591028628,None,v,8.127383878454566,1563.0485591028628,None,t,9.770493575517321,1563.0485591028628,None,8.127383878454566,9.770493575517321,10.402338019386873,False,False,False,1572.9125504363692,None,1572.9125504363692,None,1572.9125504363692,None,1572.9125504363692,None,1572.9125504363692,None,1572.9125504363692,None,1572.9125504363692,None,1572.9125504363692,None,1573.8957095480873,None,1573.8957095480873,None,1574.8788208619371,None,1574.8788208619371,None,c,,,,,,,,,,,,,,,,,,,,,,,,,,,,,,,,,,,,,,,,,,,,,,,47_48Exp,001,2021_May_14_1531,ComputerHuman,2020.1.3,60.005774794712494,
Computer.xlsx,c,Sychronize.jpg,Number9.jpg,9,Computer,,,,,0,6,6,1,0,8,8,7,,,,,,,,,,,,,,,,,,,,,,,,,,,,,1575.9462184189215,None,1575.9462184189215,None,1576.37861555567,None,1576.37861555567,None,v,7.72085565236921,1576.37861555567,None,t,9.0124473341275,1576.37861555567,None,7.72085565236921,9.0124473341275,9.287033235753706,False,False,True,1585.4766826613086,None,1585.4766826613086,None,1585.4766826613086,None,1585.4766826613086,None,1585.4766826613086,None,1585.4766826613086,None,1585.4766826613086,None,1585.4766826613086,None,1586.4764488046349,None,1586.4764488046349,None,1587.44293031071,None,1587.44293031071,None,c,,,,,,,,,,,,,,,,,,,,,,,,,,,,,,,,,,,,,,,,,,,,,,,47_48Exp,001,2021_May_14_1531,ComputerHuman,2020.1.3,60.005774794712494,
Computer.xlsx,c,Sychronize.jpg,Number6.jpg,6,Computer,,,,,0,6,6,1,0,9,9,1,,,,,,,,,,,,,,,,,,,,,,,,,,,,,1588.4932868057986,None,1588.4932868057986,None,1588.9428995147719,None,1588.9428995147719,None,v,6.132177779829362,1588.9428995147719,None,t,6.415566834566562,1588.9428995147719,None,6.132177779829362,6.415566834566562,6.169985736353482,False,True,True,1595.4260393790246,None,1595.4260393790246,None,1595.4260393790246,None,1595.4260393790246,None,1595.4260393790246,None,1595.4260393790246,None,1595.4260393790246,None,1595.4260393790246,None,1596.4410960275163,None,1596.4410960275163,None,1597.424292992575,None,1597.424292992575,None,c,,,,,,,,,,,,,,,,,,,,,,,,,,,,,,,,,,,,,,,,,,,,,,,47_48Exp,001,2021_May_14_1531,ComputerHuman,2020.1.3,60.005774794712494,
Computer.xlsx,c,,,,,,,,,0,6,6,1,,,,,,,,,,,,,,,,,,,,,,,,,,,,,,,,,,,,,,,,,,,,,,,,,,,,,,,,,,,,,,,,,,,,,,,,,,,,,,,c,1598.425362509919,None,1598.425362509919,None,q,0,1.97359023563331,1598.425362509919,None,o,0,3.968682774226181,1598.425362509919,None,h,h,1602.490743895185,None,1602.490743895185,None,1604.4894960180209,None,None,None,None,None,None,None,None,,,,,,,,,,,,,,,,,,47_48Exp,001,2021_May_14_1531,ComputerHuman,2020.1.3,60.005774794712494,
Human.xlsx,h,Sychronize.jpg,Number6.jpg,6,Human,,,,,0,7,7,4,0,0,0,0,,,,,,,,,,,,,,,,,,,,,,,,,1609.4749365956486,None,1609.4749365956486,None,1612.55473208494,None,1612.55473208494,None,1613.0047817113154,None,1613.0047817113154,None,v,5.501518945598946,1613.0047817113154,None,t,5.5285821613251755,1613.0047817113154,None,5.501518945598946,5.5285821613251755,5.954714483416791,True,False,False,1618.6199184292527,None,1618.6199184292527,None,1618.6199184292527,None,1618.6199184292527,None,1618.6199184292527,None,1618.6199184292527,None,1618.6199184292527,None,1618.6199184292527,None,1619.6051662114623,None,1619.6051662114623,None,1620.602870951534,None,1620.602870951534,None,h,,,,,,,,,,,,,,,,,,,,,,,,,,,,,,,,,,,,,,,,,,,,,,,47_48Exp,001,2021_May_14_1531,ComputerHuman,2020.1.3,60.005774794712494,
Human.xlsx,h,Sychronize.jpg,Number6.jpg,6,Human,,,,,0,7,7,4,0,1,1,1,,,,,,,,,,,,,,,,,,,,,,,,,,,,,1621.6364131839982,None,1621.6364131839982,None,1622.1033649697456,None,1622.1033649697456,None,v,5.174599187626882,1622.1033649697456,None,t,5.465609596012655,1622.1033649697456,None,5.174599187626882,5.465609596012655,5.611390539268505,True,False,False,1627.6346943855788,None,1627.6346943855788,None,1627.6346943855788,None,1627.6346943855788,None,1627.6346943855788,None,1627.6346943855788,None,1627.6346943855788,None,1627.6346943855788,None,1628.6367711868043,None,1628.6367711868043,None,1629.634311361071,None,1629.634311361071,None,h,,,,,,,,,,,,,,,,,,,,,,,,,,,,,,,,,,,,,,,,,,,,,,,47_48Exp,001,2021_May_14_1531,ComputerHuman,2020.1.3,60.005774794712494,
Human.xlsx,h,Sychronize.jpg,Number9.jpg,9,Human,,,,,0,7,7,4,0,2,2,6,,,,,,,,,,,,,,,,,,,,,,,,,,,,,1630.6841340598585,None,1630.6841340598585,None,1631.1344563586208,None,1631.1344563586208,None,v,8.567099542102369,1631.1344563586208,None,t,8.466473165510251,1631.1344563586208,None,8.567099542102369,8.466473165510251,8.945820885736127,True,False,False,1639.7989240026764,None,1639.7989240026764,None,1639.7989240026764,None,1639.7989240026764,None,1639.7989240026764,None,1639.7989240026764,None,1639.7989240026764,None,1639.7989240026764,None,1640.7667922884393,None,1640.7667922884393,None,1641.7652752675858,None,1641.7652752675858,None,h,,,,,,,,,,,,,,,,,,,,,,,,,,,,,,,,,,,,,,,,,,,,,,,47_48Exp,001,2021_May_14_1531,ComputerHuman,2020.1.3,60.005774794712494,
Human.xlsx,h,Sychronize.jpg,Number7.jpg,7,Human,,,,,0,7,7,4,0,3,3,3,,,,,,,,,,,,,,,,,,,,,,,,,,,,,1642.8155015215088,None,1642.8155015215088,None,1643.2655588468697,None,1643.2655588468697,None,v,6.511668774262944,1643.2655588468697,None,t,6.8745517747120175,1643.2655588468697,None,6.511668774262944,6.8745517747120175,7.020753342443944,False,False,False,1650.2149842138715,None,1650.2149842138715,None,1650.2149842138715,None,1650.2149842138715,None,1650.2149842138715,None,1650.2149842138715,None,1650.2149842138715,None,1650.2149842138715,None,1651.216046994603,None,1651.216046994603,None,1652.2131480059288,None,1652.2131480059288,None,h,,,,,,,,,,,,,,,,,,,,,,,,,,,,,,,,,,,,,,,,,,,,,,,47_48Exp,001,2021_May_14_1531,ComputerHuman,2020.1.3,60.005774794712494,
Human.xlsx,h,Sychronize.jpg,Number8.jpg,8,Human,,,,,0,7,7,4,0,4,4,4,,,,,,,,,,,,,,,,,,,,,,,,,,,,,1653.2633181214223,None,1653.2633181214223,None,1653.7133703141226,None,1653.7133703141226,None,v,7.647571258916287,1653.7133703141226,None,t,7.814548772108537,1653.7133703141226,None,7.647571258916287,7.814548772108537,8.001031829419388,True,False,False,1661.5945823525144,None,1661.5945823525144,None,1661.5945823525144,None,1661.5945823525144,None,1661.5945823525144,None,1661.5945823525144,None,1661.5945823525144,None,1661.5945823525144,None,1662.5967188208742,None,1662.5967188208742,None,1663.594139340079,None,1663.594139340079,None,h,,,,,,,,,,,,,,,,,,,,,,,,,,,,,,,,,,,,,,,,,,,,,,,47_48Exp,001,2021_May_14_1531,ComputerHuman,2020.1.3,60.005774794712494,
Human.xlsx,h,Sychronize.jpg,Number10.jpg,10,Human,,,,,0,7,7,4,0,5,5,8,,,,,,,,,,,,,,,,,,,,,,,,,,,,,1664.6440101575245,None,1664.6440101575245,None,1665.0942522585283,None,1665.0942522585283,None,v,10.038151999779075,1665.0942522585283,None,t,9.581378913891967,1665.0942522585283,None,10.038151999779075,9.581378913891967,10.230373904262635,False,False,False,1675.2251154366568,None,1675.2251154366568,None,1675.2251154366568,None,1675.2251154366568,None,1675.2251154366568,None,1675.2251154366568,None,1675.2251154366568,None,1675.2251154366568,None,1676.193901184808,None,1676.193901184808,None,1677.1914888361498,None,1677.1914888361498,None,h,,,,,,,,,,,,,,,,,,,,,,,,,,,,,,,,,,,,,,,,,,,,,,,47_48Exp,001,2021_May_14_1531,ComputerHuman,2020.1.3,60.005774794712494,
Human.xlsx,h,Sychronize.jpg,Number10.jpg,10,Human,,,,,0,7,7,4,0,6,6,9,,,,,,,,,,,,,,,,,,,,,,,,,,,,,1678.2413679941637,None,1678.2413679941637,None,1678.7083210630735,None,1678.7083210630735,None,v,9.155696254507347,1678.7083210630735,None,t,9.658472380211606,1678.7083210630735,None,9.155696254507347,9.658472380211606,9.869167107344873,False,False,False,1688.4557792752275,None,1688.4557792752275,None,1688.4557792752275,None,1688.4557792752275,None,1688.4557792752275,None,1688.4557792752275,None,1688.4557792752275,None,1688.4557792752275,None,1689.424453708889,None,1689.424453708889,None,1690.4220464928876,None,1690.4220464928876,None,h,,,,,,,,,,,,,,,,,,,,,,,,,,,,,,,,,,,,,,,,,,,,,,,47_48Exp,001,2021_May_14_1531,ComputerHuman,2020.1.3,60.005774794712494,
Human.xlsx,h,Sychronize.jpg,Number9.jpg,9,Human,,,,,0,7,7,4,0,7,7,7,,,,,,,,,,,,,,,,,,,,,,,,,,,,,1691.4720080941988,None,1691.4720080941988,None,1691.92223191011,None,1691.92223191011,None,v,9.217228147233982,1691.92223191011,None,t,8.90850141179908,1691.92223191011,None,9.217228147233982,8.90850141179908,8.85918569107781,False,False,False,1701.2215289927735,None,1701.2215289927735,None,1701.2215289927735,None,1701.2215289927735,None,1701.2215289927735,None,1701.2215289927735,None,1701.2215289927735,None,1701.2215289927735,None,1702.220894468086,None,1702.220894468086,None,1703.2361477614868,None,1703.2361477614868,None,h,,,,,,,,,,,,,,,,,,,,,,,,,,,,,,,,,,,,,,,,,,,,,,,47_48Exp,001,2021_May_14_1531,ComputerHuman,2020.1.3,60.005774794712494,
Human.xlsx,h,Sychronize.jpg,Number7.jpg,7,Human,,,,,0,7,7,4,0,8,8,2,,,,,,,,,,,,,,,,,,,,,,,,,,,,,1704.2864320785884,None,1704.2864320785884,None,1704.7195782624258,None,1704.7195782624258,None,v,11.711370823541074,1704.7195782624258,None,t,7.6425329147677985,1704.7195782624258,None,11.711370823541074,7.6425329147677985,6.850484588211216,False,False,False,1716.5167776924463,None,1716.5167776924463,None,1716.5167776924463,None,1716.5167776924463,None,1716.5167776924463,None,1716.5167776924463,None,1716.5167776924463,None,1716.5167776924463,None,1717.5028117335096,None,1717.5028117335096,None,1718.4996942861326,None,1718.4996942861326,None,h,,,,,,,,,,,,,,,,,,,,,,,,,,,,,,,,,,,,,,,,,,,,,,,47_48Exp,001,2021_May_14_1531,ComputerHuman,2020.1.3,60.005774794712494,
Human.xlsx,h,Sychronize.jpg,Number8.jpg,8,Human,,,,,0,7,7,4,0,9,9,5,,,,,,,,,,,,,,,,,,,,,,,,,,,,,1719.5500988998792,None,1719.5500988998792,None,1719.999884836012,None,1719.999884836012,None,v,8.462700342028256,1719.999884836012,None,t,7.861521884045942,1719.999884836012,None,8.462700342028256,7.861521884045942,7.556985763899212,False,False,False,1728.5327027222957,None,1728.5327027222957,None,1728.5327027222957,None,1728.5327027222957,None,1728.5327027222957,None,1728.5327027222957,None,1728.5327027222957,None,1728.5327027222957,None,1729.5328615138642,None,1729.5328615138642,None,1730.530597691457,None,1730.530597691457,None,h,,,,,,,,,,,,,,,,,,,,,,,,,,,,,,,,,,,,,,,,,,,,,,,47_48Exp,001,2021_May_14_1531,ComputerHuman,2020.1.3,60.005774794712494,
Human.xlsx,h,,,,,,,,,0,7,7,4,,,,,,,,,,,,,,,,,,,,,,,,,,,,,,,,,,,,,,,,,,,,,,,,,,,,,,,,,,,,,,,,,,,,,,,,,,,,,,,h,1731.530531929293,None,1731.530531929293,None,a,0,1.6798550281091593,1731.530531929293,None,o,1,3.2987203003649483,1731.530531929293,None,c,h,1734.914229456699,None,1734.914229456699,None,1736.9126168401162,None,None,None,None,None,None,None,None,,,,,,,,,,,,,,,,,,47_48Exp,001,2021_May_14_1531,ComputerHuman,2020.1.3,60.005774794712494,
Human.xlsx,h,Sychronize.jpg,Number10.jpg,10,Human,,,,,0,8,8,6,0,0,0,9,,,,,,,,,,,,,,,,,,,,,,,,,1741.8984266482403,None,1741.8984266482403,None,1744.9943989883504,None,1744.9943989883504,None,1745.427734759698,None,1745.427734759698,None,v,8.598027006755729,1745.427734759698,None,t,9.129552425918519,1745.427734759698,None,8.598027006755729,9.129552425918519,9.28322060263783,False,False,False,1754.6423455727927,None,1754.6423455727927,None,1754.6423455727927,None,1754.6423455727927,None,1754.6423455727927,None,1754.6423455727927,None,1754.6423455727927,None,1754.6423455727927,None,1755.644466322392,None,1755.644466322392,None,1756.62531092672,None,1756.62531092672,None,h,,,,,,,,,,,,,,,,,,,,,,,,,,,,,,,,,,,,,,,,,,,,,,,47_48Exp,001,2021_May_14_1531,ComputerHuman,2020.1.3,60.005774794712494,
Human.xlsx,h,Sychronize.jpg,Number6.jpg,6,Human,,,,,0,8,8,6,0,1,1,1,,,,,,,,,,,,,,,,,,,,,,,,,,,,,1757.6922821524022,None,1757.6922821524022,None,1758.1255925812584,None,1758.1255925812584,None,v,5.463745479250065,1758.1255925812584,None,t,5.722630268432113,1758.1255925812584,None,5.463745479250065,5.722630268432113,6.147264590295707,True,False,False,1763.9251414848877,None,1763.9251414848877,None,1763.9251414848877,None,1763.9251414848877,None,1763.9251414848877,None,1763.9251414848877,None,1763.9251414848877,None,1763.9251414848877,None,1764.9261327292188,None,1764.9261327292188,None,1765.9234505952918,None,1765.9234505952918,None,h,,,,,,,,,,,,,,,,,,,,,,,,,,,,,,,,,,,,,,,,,,,,,,,47_48Exp,001,2021_May_14_1531,ComputerHuman,2020.1.3,60.005774794712494,
Human.xlsx,h,Sychronize.jpg,Number10.jpg,10,Human,,,,,0,8,8,6,0,2,2,8,,,,,,,,,,,,,,,,,,,,,,,,,,,,,1766.9575481170505,None,1766.9575481170505,None,1767.42353688808,None,1767.42353688808,None,v,9.761346860446793,1767.42353688808,None,t,10.340447837130341,1767.42353688808,None,9.761346860446793,10.340447837130341,10.701859259272853,False,False,False,1777.8376386699492,None,1777.8376386699492,None,1777.8376386699492,None,1777.8376386699492,None,1777.8376386699492,None,1777.8376386699492,None,1777.8376386699492,None,1777.8376386699492,None,1778.8397661561576,None,1778.8397661561576,None,1779.8372915740365,None,1779.8372915740365,None,h,,,,,,,,,,,,,,,,,,,,,,,,,,,,,,,,,,,,,,,,,,,,,,,47_48Exp,001,2021_May_14_1531,ComputerHuman,2020.1.3,60.005774794712494,
Human.xlsx,h,Sychronize.jpg,Number9.jpg,9,Human,,,,,0,8,8,6,0,3,3,6,,,,,,,,,,,,,,,,,,,,,,,,,,,,,1780.8869420080337,None,1780.8869420080337,None,1781.3371087231426,None,1781.3371087231426,None,v,7.859395680996386,1781.3371087231426,None,t,8.130573824604653,1781.3371087231426,None,7.859395680996386,8.130573824604653,9.41808333426853,True,False,False,1789.5519803393581,None,1789.5519803393581,None,1789.5519803393581,None,1789.5519803393581,None,1789.5519803393581,None,1789.5519803393581,None,1789.5519803393581,None,1789.5519803393581,None,1790.5211516783456,None,1790.5211516783456,None,1791.518125977207,None,1791.518125977207,None,h,,,,,,,,,,,,,,,,,,,,,,,,,,,,,,,,,,,,,,,,,,,,,,,47_48Exp,001,2021_May_14_1531,ComputerHuman,2020.1.3,60.005774794712494,
Human.xlsx,h,Sychronize.jpg,Number6.jpg,6,Human,,,,,0,8,8,6,0,4,4,0,,,,,,,,,,,,,,,,,,,,,,,,,,,,,1792.584513363192,None,1792.584513363192,None,1793.018518304656,None,1793.018518304656,None,v,5.261642950583337,1793.018518304656,None,t,5.796584473584517,1793.018518304656,None,5.261642950583337,5.796584473584517,5.642288450459694,False,False,False,1798.8999866550912,None,1798.8999866550912,None,1798.8999866550912,None,1798.8999866550912,None,1798.8999866550912,None,1798.8999866550912,None,1798.8999866550912,None,1798.8999866550912,None,1799.885947876588,None,1799.885947876588,None,1800.8829789554657,None,1800.8829789554657,None,h,,,,,,,,,,,,,,,,,,,,,,,,,,,,,,,,,,,,,,,,,,,,,,,47_48Exp,001,2021_May_14_1531,ComputerHuman,2020.1.3,60.005774794712494,
Human.xlsx,h,Sychronize.jpg,Number8.jpg,8,Human,,,,,0,8,8,6,0,5,5,5,,,,,,,,,,,,,,,,,,,,,,,,,,,,,1801.9331064057478,None,1801.9331064057478,None,1802.38326670503,None,1802.38326670503,None,v,7.448484807657223,1802.38326670503,None,t,7.739541730745259,1802.38326670503,None,7.448484807657223,7.739541730745259,7.583009726370099,True,False,False,1810.2144423977952,None,1810.2144423977952,None,1810.2144423977952,None,1810.2144423977952,None,1810.2144423977952,None,1810.2144423977952,None,1810.2144423977952,None,1810.2144423977952,None,1811.1835784497707,None,1811.1835784497707,None,1812.197329157916,None,1812.197329157916,None,h,,,,,,,,,,,,,,,,,,,,,,,,,,,,,,,,,,,,,,,,,,,,,,,47_48Exp,001,2021_May_14_1531,ComputerHuman,2020.1.3,60.005774794712494,
Human.xlsx,h,Sychronize.jpg,Number7.jpg,7,Human,,,,,0,8,8,6,0,6,6,2,,,,,,,,,,,,,,,,,,,,,,,,,,,,,1813.2476115502723,None,1813.2476115502723,None,1813.6976586103192,None,1813.6976586103192,None,v,7.0257617664537975,1813.6976586103192,None,t,7.124582089465548,1813.6976586103192,None,7.0257617664537975,7.124582089465548,6.910628260135223,True,False,False,1820.9123031064737,None,1820.9123031064737,None,1820.9123031064737,None,1820.9123031064737,None,1820.9123031064737,None,1820.9123031064737,None,1820.9123031064737,None,1820.9123031064737,None,1821.897747533596,None,1821.897747533596,None,1822.878592137924,None,1822.878592137924,None,h,,,,,,,,,,,,,,,,,,,,,,,,,,,,,,,,,,,,,,,,,,,,,,,47_48Exp,001,2021_May_14_1531,ComputerHuman,2020.1.3,60.005774794712494,
Human.xlsx,h,Sychronize.jpg,Number8.jpg,8,Human,,,,,0,8,8,6,0,7,7,4,,,,,,,,,,,,,,,,,,,,,,,,,,,,,1823.9454976014422,None,1823.9454976014422,None,1824.378616197253,None,1824.378616197253,None,v,7.780372656543477,1824.378616197253,None,t,7.963583479773661,1824.378616197253,None,7.780372656543477,7.963583479773661,8.056605321542905,True,False,False,1832.4264471044407,None,1832.4264471044407,None,1832.4264471044407,None,1832.4264471044407,None,1832.4264471044407,None,1832.4264471044407,None,1832.4264471044407,None,1832.4264471044407,None,1833.4119325928186,None,1833.4119325928186,None,1834.4095167154592,None,1834.4095167154592,None,h,,,,,,,,,,,,,,,,,,,,,,,,,,,,,,,,,,,,,,,,,,,,,,,47_48Exp,001,2021_May_14_1531,ComputerHuman,2020.1.3,60.005774794712494,
Human.xlsx,h,Sychronize.jpg,Number7.jpg,7,Human,,,,,0,8,8,6,0,8,8,3,,,,,,,,,,,,,,,,,,,,,,,,,,,,,1835.4600518911575,None,1835.4600518911575,None,1835.9096973208143,None,1835.9096973208143,None,v,6.232968722233636,1835.9096973208143,None,t,7.068628432225523,1835.9096973208143,None,6.232968722233636,7.068628432225523,6.704203803570581,False,False,False,1843.0425006431833,None,1843.0425006431833,None,1843.0425006431833,None,1843.0425006431833,None,1843.0425006431833,None,1843.0425006431833,None,1843.0425006431833,None,1843.0425006431833,None,1844.0432676545752,None,1844.0432676545752,None,1845.0573664210024,None,1845.0573664210024,None,h,,,,,,,,,,,,,,,,,,,,,,,,,,,,,,,,,,,,,,,,,,,,,,,47_48Exp,001,2021_May_14_1531,ComputerHuman,2020.1.3,60.005774794712494,
Human.xlsx,h,Sychronize.jpg,Number9.jpg,9,Human,,,,,0,8,8,6,0,9,9,7,,,,,,,,,,,,,,,,,,,,,,,,,,,,,1846.124668703047,None,1846.124668703047,None,1846.5573458903782,None,1846.5573458903782,None,v,8.492897365471435,1846.5573458903782,None,t,8.528470846831624,1846.5573458903782,None,8.492897365471435,8.528470846831624,8.361609296611345,True,False,False,1855.1718897864594,None,1855.1718897864594,None,1855.1718897864594,None,1855.1718897864594,None,1855.1718897864594,None,1855.1718897864594,None,1855.1718897864594,None,1855.1718897864594,None,1856.1581240011365,None,1856.1581240011365,None,1857.1383074551195,None,1857.1383074551195,None,h,,,,,,,,,,,,,,,,,,,,,,,,,,,,,,,,,,,,,,,,,,,,,,,47_48Exp,001,2021_May_14_1531,ComputerHuman,2020.1.3,60.005774794712494,
Human.xlsx,h,,,,,,,,,0,8,8,6,,,,,,,,,,,,,,,,,,,,,,,,,,,,,,,,,,,,,,,,,,,,,,,,,,,,,,,,,,,,,,,,,,,,,,,,,,,,,,,h,1858.1387260874326,None,1858.1387260874326,None,a,0,1.9992775785685808,1858.1387260874326,None,o,1,3.2186492515611462,1858.1387260874326,None,c,h,1861.4545275485725,None,1861.4545275485725,None,1863.4536148980478,None,None,None,None,None,None,None,None,,,,,,,,,,,,,,,,,,47_48Exp,001,2021_May_14_1531,ComputerHuman,2020.1.3,60.005774794712494,
Computer.xlsx,c,Sychronize.jpg,Number8.jpg,8,Computer,,,,,0,9,9,7,0,0,0,4,,,,,,,,,,,,,,,,,,,,,,,,,1868.4561760937504,None,1868.4561760937504,None,1871.5191310155533,None,1871.5191310155533,None,1871.9520487961672,None,1871.9520487961672,None,v,7.189390541923785,1871.9520487961672,None,t,6.632544123203843,1871.9520487961672,None,7.189390541923785,6.632544123203843,8.018091935770018,False,False,False,1879.2172801153793,None,1879.2172801153793,None,1879.2172801153793,None,1879.2172801153793,None,1879.2172801153793,None,1879.2172801153793,None,1879.2172801153793,None,1879.2172801153793,None,1880.233529785768,None,1880.233529785768,None,1881.2333790139783,None,1881.2333790139783,None,c,,,,,,,,,,,,,,,,,,,,,,,,,,,,,,,,,,,,,,,,,,,,,,,47_48Exp,001,2021_May_14_1531,ComputerHuman,2020.1.3,60.005774794712494,
Computer.xlsx,c,Sychronize.jpg,Number10.jpg,10,Computer,,,,,0,9,9,7,0,1,1,8,,,,,,,,,,,,,,,,,,,,,,,,,,,,,1882.2834907454962,None,1882.2834907454962,None,1882.7336029261278,None,1882.7336029261278,None,v,9.10735689350986,1882.7336029261278,None,t,9.430431329226849,1882.7336029261278,None,9.10735689350986,9.430431329226849,9.961732730146457,False,False,False,1892.2478072328086,None,1892.2478072328086,None,1892.2478072328086,None,1892.2478072328086,None,1892.2478072328086,None,1892.2478072328086,None,1892.2478072328086,None,1892.2478072328086,None,1893.2308489350035,None,1893.2308489350035,None,1894.2140831118268,None,1894.2140831118268,None,c,,,,,,,,,,,,,,,,,,,,,,,,,,,,,,,,,,,,,,,,,,,,,,,47_48Exp,001,2021_May_14_1531,ComputerHuman,2020.1.3,60.005774794712494,
Computer.xlsx,c,Sychronize.jpg,Number10.jpg,10,Computer,,,,,0,9,9,7,0,2,2,9,,,,,,,,,,,,,,,,,,,,,,,,,,,,,1895.281089945318,None,1895.281089945318,None,1895.7310673937063,None,1895.7310673937063,None,v,10.409409571249853,1895.7310673937063,None,t,9.836791140005516,1895.7310673937063,None,10.409409571249853,9.836791140005516,10.30733388718969,False,True,False,1906.2282582265252,None,1906.2282582265252,None,1906.2282582265252,None,1906.2282582265252,None,1906.2282582265252,None,1906.2282582265252,None,1906.2282582265252,None,1906.2282582265252,None,1907.2113737106592,None,1907.2113737106592,None,1908.194571958884,None,1908.194571958884,None,c,,,,,,,,,,,,,,,,,,,,,,,,,,,,,,,,,,,,,,,,,,,,,,,47_48Exp,001,2021_May_14_1531,ComputerHuman,2020.1.3,60.005774794712494,
Computer.xlsx,c,Sychronize.jpg,Number9.jpg,9,Computer,,,,,0,9,9,7,0,3,3,6,,,,,,,,,,,,,,,,,,,,,,,,,,,,,1909.2619316625241,None,1909.2619316625241,None,1909.694709257452,None,1909.694709257452,None,v,8.313359920495714,1909.694709257452,None,t,8.028498755651526,1909.694709257452,None,8.313359920495714,8.028498755651526,9.415422760819704,False,False,False,1918.09248149196,None,1918.09248149196,None,1918.09248149196,None,1918.09248149196,None,1918.09248149196,None,1918.09248149196,None,1918.09248149196,None,1918.09248149196,None,1919.0921918176464,None,1919.0921918176464,None,1920.075455186452,None,1920.075455186452,None,c,,,,,,,,,,,,,,,,,,,,,,,,,,,,,,,,,,,,,,,,,,,,,,,47_48Exp,001,2021_May_14_1531,ComputerHuman,2020.1.3,60.005774794712494,
Computer.xlsx,c,Sychronize.jpg,Number6.jpg,6,Computer,,,,,0,9,9,7,0,4,4,0,,,,,,,,,,,,,,,,,,,,,,,,,,,,,1921.1253908036888,None,1921.1253908036888,None,1921.5588054896325,None,1921.5588054896325,None,v,6.224947021357366,1921.5588054896325,None,t,5.648574693306728,1921.5588054896325,None,6.224947021357366,5.648574693306728,5.758272972534291,False,False,True,1927.8409123425627,None,1927.8409123425627,None,1927.8409123425627,None,1927.8409123425627,None,1927.8409123425627,None,1927.8409123425627,None,1927.8409123425627,None,1927.8409123425627,None,1928.873552189816,None,1928.873552189816,None,1929.8568572614568,None,1929.8568572614568,None,c,,,,,,,,,,,,,,,,,,,,,,,,,,,,,,,,,,,,,,,,,,,,,,,47_48Exp,001,2021_May_14_1531,ComputerHuman,2020.1.3,60.005774794712494,
Computer.xlsx,c,Sychronize.jpg,Number9.jpg,9,Computer,,,,,0,9,9,7,0,5,5,7,,,,,,,,,,,,,,,,,,,,,,,,,,,,,1930.906913175335,None,1930.906913175335,None,1931.3569400255474,None,1931.3569400255474,None,v,8.086492323149287,1931.3569400255474,None,t,8.565459337489301,1931.3569400255474,None,8.086492323149287,8.565459337489301,9.489583713386745,False,False,False,1940.0047605391082,None,1940.0047605391082,None,1940.0047605391082,None,1940.0047605391082,None,1940.0047605391082,None,1940.0047605391082,None,1940.0047605391082,None,1940.0047605391082,None,1940.9879225379445,None,1940.9879225379445,None,1941.9710479665991,None,1941.9710479665991,None,c,,,,,,,,,,,,,,,,,,,,,,,,,,,,,,,,,,,,,,,,,,,,,,,47_48Exp,001,2021_May_14_1531,ComputerHuman,2020.1.3,60.005774794712494,
Computer.xlsx,c,Sychronize.jpg,Number7.jpg,7,Computer,,,,,0,9,9,7,0,6,6,2,,,,,,,,,,,,,,,,,,,,,,,,,,,,,1943.039192645927,None,1943.039192645927,None,1943.4713074865576,None,1943.4713074865576,None,v,7.0877430874352285,1943.4713074865576,None,t,9.918441443121992,1943.4713074865576,None,7.0877430874352285,9.918441443121992,7.004514394628639,False,True,False,1953.4854575795543,None,1953.4854575795543,None,1953.4854575795543,None,1953.4854575795543,None,1953.4854575795543,None,1953.4854575795543,None,1953.4854575795543,None,1953.4854575795543,None,1954.4851730378978,None,1954.4851730378978,None,1955.4517052289557,None,1955.4517052289557,None,c,,,,,,,,,,,,,,,,,,,,,,,,,,,,,,,,,,,,,,,,,,,,,,,47_48Exp,001,2021_May_14_1531,ComputerHuman,2020.1.3,60.005774794712494,
Computer.xlsx,c,Sychronize.jpg,Number6.jpg,6,Computer,,,,,0,9,9,7,0,7,7,1,,,,,,,,,,,,,,,,,,,,,,,,,,,,,1956.5348940459226,None,1956.5348940459226,None,1956.951913101555,None,1956.951913101555,None,v,5.798605777959892,1956.951913101555,None,t,5.2215777530145715,1956.951913101555,None,5.798605777959892,5.2215777530145715,6.136456499900637,False,False,False,1962.8185445453637,None,1962.8185445453637,None,1962.8185445453637,None,1962.8185445453637,None,1962.8185445453637,None,1962.8185445453637,None,1962.8185445453637,None,1962.8185445453637,None,1963.833272062242,None,1963.833272062242,None,1964.816387546376,None,1964.816387546376,None,c,,,,,,,,,,,,,,,,,,,,,,,,,,,,,,,,,,,,,,,,,,,,,,,47_48Exp,001,2021_May_14_1531,ComputerHuman,2020.1.3,60.005774794712494,
Computer.xlsx,c,Sychronize.jpg,Number8.jpg,8,Computer,,,,,0,9,9,7,0,8,8,5,,,,,,,,,,,,,,,,,,,,,,,,,,,,,1965.8667097168218,None,1965.8667097168218,None,1966.3163208218393,None,1966.3163208218393,None,v,6.79786603381217,1966.3163208218393,None,t,6.861561020552472,1966.3163208218393,None,6.79786603381217,6.861561020552472,8.569492461767185,False,False,False,1973.2647097129739,None,1973.2647097129739,None,1973.2647097129739,None,1973.2647097129739,None,1973.2647097129739,None,1973.2647097129739,None,1973.2647097129739,None,1973.2647097129739,None,1974.2477247895113,None,1974.2477247895113,None,1975.2308855051851,None,1975.2308855051851,None,c,,,,,,,,,,,,,,,,,,,,,,,,,,,,,,,,,,,,,,,,,,,,,,,47_48Exp,001,2021_May_14_1531,ComputerHuman,2020.1.3,60.005774794712494,
Computer.xlsx,c,Sychronize.jpg,Number7.jpg,7,Computer,,,,,0,9,9,7,0,9,9,3,,,,,,,,,,,,,,,,,,,,,,,,,,,,,1976.2812942892124,None,1976.2812942892124,None,1976.7312592267517,None,1976.7312592267517,None,v,7.290594983980554,1976.7312592267517,None,t,7.17754501179661,1976.7312592267517,None,7.290594983980554,7.17754501179661,6.494472366260978,False,False,False,1984.0970691246948,None,1984.0970691246948,None,1984.0970691246948,None,1984.0970691246948,None,1984.0970691246948,None,1984.0970691246948,None,1984.0970691246948,None,1984.0970691246948,None,1985.1122813568436,None,1985.1122813568436,None,1986.0954244290078,None,1986.0954244290078,None,c,,,,,,,,,,,,,,,,,,,,,,,,,,,,,,,,,,,,,,,,,,,,,,,47_48Exp,001,2021_May_14_1531,ComputerHuman,2020.1.3,60.005774794712494,
Computer.xlsx,c,,,,,,,,,0,9,9,7,,,,,,,,,,,,,,,,,,,,,,,,,,,,,,,,,,,,,,,,,,,,,,,,,,,,,,,,,,,,,,,,,,,,,,,,,,,,,,,c,1987.09605125471,None,1987.09605125471,None,q,0,4.733477496829437,1987.09605125471,None,l,0,2.3167025631846627,1987.09605125471,None,h,c,1991.9275063564746,None,1991.9275063564746,None,None,None,1993.9105294527872,None,1993.9105294527872,None,"['space', 'space']",1994.8936404458473,None,"[428.341174428846, 435.8409652730843]",,,,,,,,,,,,,,,,,47_48Exp,001,2021_May_14_1531,ComputerHuman,2020.1.3,60.005774794712494,
Human.xlsx,h,Sychronize.jpg,Number6.jpg,6,Human,,,,,1,0,10,4,0,0,0,0,,,,,,,,,,,,,,,,,,,,,,,,,2430.7917225645033,None,2430.7917225645033,None,2433.8560706818134,None,2433.8560706818134,None,2434.304803460949,None,2434.304803460949,None,v,5.897415835657739,2434.304803460949,None,t,5.324611666401324,2434.304803460949,None,5.897415835657739,5.324611666401324,6.410021179050198,False,False,False,2440.27031617807,None,2440.27031617807,None,2440.27031617807,None,2440.27031617807,None,2440.27031617807,None,2440.27031617807,None,2440.27031617807,None,2440.27031617807,None,2441.2887956670093,None,2441.2887956670093,None,2442.269514842039,None,2442.269514842039,None,h,,,,,,,,,,,,,,,,,,,,,,,,,,,,,,,,,,,,,,,,,,,,,,,47_48Exp,001,2021_May_14_1531,ComputerHuman,2020.1.3,60.005774794712494,
Human.xlsx,h,Sychronize.jpg,Number10.jpg,10,Human,,,,,1,0,10,4,0,1,1,9,,,,,,,,,,,,,,,,,,,,,,,,,,,,,2443.336524883438,None,2443.336524883438,None,2443.7694814797687,None,2443.7694814797687,None,v,9.632262147875736,2443.7694814797687,None,t,9.119452640654345,2443.7694814797687,None,9.632262147875736,9.119452640654345,9.52860071881616,False,False,False,2453.5006172019675,None,2453.5006172019675,None,2453.5006172019675,None,2453.5006172019675,None,2453.5006172019675,None,2453.5006172019675,None,2453.5006172019675,None,2453.5006172019675,None,2454.486698399316,None,2454.486698399316,None,2455.466914894776,None,2455.466914894776,None,h,,,,,,,,,,,,,,,,,,,,,,,,,,,,,,,,,,,,,,,,,,,,,,,47_48Exp,001,2021_May_14_1531,ComputerHuman,2020.1.3,60.005774794712494,
Human.xlsx,h,Sychronize.jpg,Number8.jpg,8,Human,,,,,1,0,10,4,0,2,2,4,,,,,,,,,,,,,,,,,,,,,,,,,,,,,2456.5338303028184,None,2456.5338303028184,None,2456.9668597187156,None,2456.9668597187156,None,v,7.582537290356413,2456.9668597187156,None,t,6.893551907520305,2456.9668597187156,None,7.582537290356413,6.893551907520305,8.005922797732845,False,False,False,2464.6163955019947,None,2464.6163955019947,None,2464.6163955019947,None,2464.6163955019947,None,2464.6163955019947,None,2464.6163955019947,None,2464.6163955019947,None,2464.6163955019947,None,2465.6172407863996,None,2465.6172407863996,None,2466.6146378878584,None,2466.6146378878584,None,h,,,,,,,,,,,,,,,,,,,,,,,,,,,,,,,,,,,,,,,,,,,,,,,47_48Exp,001,2021_May_14_1531,ComputerHuman,2020.1.3,60.005774794712494,
Human.xlsx,h,Sychronize.jpg,Number7.jpg,7,Human,,,,,1,0,10,4,0,3,3,2,,,,,,,,,,,,,,,,,,,,,,,,,,,,,2467.66459339414,None,2467.66459339414,None,2468.114518874383,None,2468.114518874383,None,v,6.878522205475747,2468.114518874383,None,t,6.141567654511164,2468.114518874383,None,6.878522205475747,6.141567654511164,7.027909291918078,False,False,False,2475.0795651613225,None,2475.0795651613225,None,2475.0795651613225,None,2475.0795651613225,None,2475.0795651613225,None,2475.0795651613225,None,2475.0795651613225,None,2475.0795651613225,None,2476.0486633599503,None,2476.0486633599503,None,2477.0458298126505,None,2477.0458298126505,None,h,,,,,,,,,,,,,,,,,,,,,,,,,,,,,,,,,,,,,,,,,,,,,,,47_48Exp,001,2021_May_14_1531,ComputerHuman,2020.1.3,60.005774794712494,
Human.xlsx,h,Sychronize.jpg,Number10.jpg,10,Human,,,,,1,0,10,4,0,4,4,8,,,,,,,,,,,,,,,,,,,,,,,,,,,,,2478.112726294021,None,2478.112726294021,None,2478.5452825431275,None,2478.5452825431275,None,v,9.343312501161563,2478.5452825431275,None,t,8.746621589107235,2478.5452825431275,None,9.343312501161563,8.746621589107235,10.677928419010726,False,False,False,2487.9769700900833,None,2487.9769700900833,None,2487.9769700900833,None,2487.9769700900833,None,2487.9769700900833,None,2487.9769700900833,None,2487.9769700900833,None,2487.9769700900833,None,2488.9464971863417,None,2488.9464971863417,None,2489.943244365142,None,2489.943244365142,None,h,,,,,,,,,,,,,,,,,,,,,,,,,,,,,,,,,,,,,,,,,,,,,,,47_48Exp,001,2021_May_14_1531,ComputerHuman,2020.1.3,60.005774794712494,
Human.xlsx,h,Sychronize.jpg,Number8.jpg,8,Human,,,,,1,0,10,4,0,5,5,5,,,,,,,,,,,,,,,,,,,,,,,,,,,,,2490.9935941236217,None,2490.9935941236217,None,2491.4434076477846,None,2491.4434076477846,None,v,7.592838853186549,2491.4434076477846,None,t,8.488536211214523,2491.4434076477846,None,7.592838853186549,8.488536211214523,7.856938770253219,False,False,False,2500.0244089906155,None,2500.0244089906155,None,2500.0244089906155,None,2500.0244089906155,None,2500.0244089906155,None,2500.0244089906155,None,2500.0244089906155,None,2500.0244089906155,None,2501.0099316907545,None,2501.0099316907545,None,2502.007427595854,None,2502.007427595854,None,h,,,,,,,,,,,,,,,,,,,,,,,,,,,,,,,,,,,,,,,,,,,,,,,47_48Exp,001,2021_May_14_1531,ComputerHuman,2020.1.3,60.005774794712494,
Human.xlsx,h,Sychronize.jpg,Number7.jpg,7,Human,,,,,1,0,10,4,0,6,6,3,,,,,,,,,,,,,,,,,,,,,,,,,,,,,2503.0576406973487,None,2503.0576406973487,None,2503.5071991926307,None,2503.5071991926307,None,v,12.328415285821393,2503.5071991926307,None,t,6.139594148004107,2503.5071991926307,None,12.328415285821393,6.139594148004107,7.520322792009443,False,False,False,2515.9212772359606,None,2515.9212772359606,None,2515.9212772359606,None,2515.9212772359606,None,2515.9212772359606,None,2515.9212772359606,None,2515.9212772359606,None,2515.9212772359606,None,2516.9064839569182,None,2516.9064839569182,None,2517.904259591811,None,2517.904259591811,None,h,,,,,,,,,,,,,,,,,,,,,,,,,,,,,,,,,,,,,,,,,,,,,,,47_48Exp,001,2021_May_14_1531,ComputerHuman,2020.1.3,60.005774794712494,
Human.xlsx,h,Sychronize.jpg,Number9.jpg,9,Human,,,,,1,0,10,4,0,7,7,7,,,,,,,,,,,,,,,,,,,,,,,,,,,,,2518.95457630881,None,2518.95457630881,None,2519.4043596786178,None,2519.4043596786178,None,v,8.998835207716184,2519.4043596786178,None,t,8.154750562505797,2519.4043596786178,None,8.998835207716184,8.154750562505797,8.58284420065862,False,False,False,2528.4854457102847,None,2528.4854457102847,None,2528.4854457102847,None,2528.4854457102847,None,2528.4854457102847,None,2528.4854457102847,None,2528.4854457102847,None,2528.4854457102847,None,2529.470819242586,None,2529.470819242586,None,2530.4683449812546,None,2530.4683449812546,None,h,,,,,,,,,,,,,,,,,,,,,,,,,,,,,,,,,,,,,,,,,,,,,,,47_48Exp,001,2021_May_14_1531,ComputerHuman,2020.1.3,60.005774794712494,
Human.xlsx,h,Sychronize.jpg,Number6.jpg,6,Human,,,,,1,0,10,4,0,8,8,1,,,,,,,,,,,,,,,,,,,,,,,,,,,,,2531.5183527764784,None,2531.5183527764784,None,2531.968437689866,None,2531.968437689866,None,v,6.354412512904673,2531.968437689866,None,t,5.229636986437981,2531.968437689866,None,6.354412512904673,5.229636986437981,6.434900349028489,False,False,False,2538.416678375539,None,2538.416678375539,None,2538.416678375539,None,2538.416678375539,None,2538.416678375539,None,2538.416678375539,None,2538.416678375539,None,2538.416678375539,None,2539.385384888301,None,2539.385384888301,None,2540.383035735478,None,2540.383035735478,None,h,,,,,,,,,,,,,,,,,,,,,,,,,,,,,,,,,,,,,,,,,,,,,,,47_48Exp,001,2021_May_14_1531,ComputerHuman,2020.1.3,60.005774794712494,
Human.xlsx,h,Sychronize.jpg,Number9.jpg,9,Human,,,,,1,0,10,4,0,9,9,6,,,,,,,,,,,,,,,,,,,,,,,,,,,,,2541.432998299166,None,2541.432998299166,None,2541.8830864204647,None,2541.8830864204647,None,v,10.919307258154731,2541.8830864204647,None,t,8.510504623558518,2541.8830864204647,None,10.919307258154731,8.510504623558518,8.354359139569107,False,False,False,2552.8971553533265,None,2552.8971553533265,None,2552.8971553533265,None,2552.8971553533265,None,2552.8971553533265,None,2552.8971553533265,None,2552.8971553533265,None,2552.8971553533265,None,2553.8817621950293,None,2553.8817621950293,None,2554.8634299491787,None,2554.8634299491787,None,h,,,,,,,,,,,,,,,,,,,,,,,,,,,,,,,,,,,,,,,,,,,,,,,47_48Exp,001,2021_May_14_1531,ComputerHuman,2020.1.3,60.005774794712494,
Human.xlsx,h,,,,,,,,,1,0,10,4,,,,,,,,,,,,,,,,,,,,,,,,,,,,,,,,,,,,,,,,,,,,,,,,,,,,,,,,,,,,,,,,,,,,,,,,,,,,,,,h,2555.8642283980917,None,2555.8642283980917,None,a,0,6.481824300179142,2555.8642283980917,None,l,0,3.457700172009936,2555.8642283980917,None,c,c,2562.428942537983,None,2562.428942537983,None,2564.4281524296384,None,None,None,None,None,None,None,None,,,,,,,,,,,,,,,,,,47_48Exp,001,2021_May_14_1531,ComputerHuman,2020.1.3,60.005774794712494,
Human.xlsx,h,Sychronize.jpg,Number7.jpg,7,Human,,,,,1,1,11,2,0,0,0,2,,,,,,,,,,,,,,,,,,,,,,,,,2569.4303306008333,None,2569.4303306008333,None,2572.4930003393965,None,2572.4930003393965,None,2572.926597555441,None,2572.926597555441,None,v,6.955000715366623,2572.926597555441,None,t,6.594559255558124,2572.926597555441,None,6.955000715366623,6.594559255558124,7.232845814653203,False,False,False,2579.9916796426623,None,2579.9916796426623,None,2579.9916796426623,None,2579.9916796426623,None,2579.9916796426623,None,2579.9916796426623,None,2579.9916796426623,None,2579.9916796426623,None,2580.9770679313515,None,2580.9770679313515,None,2581.9745699314844,None,2581.9745699314844,None,h,,,,,,,,,,,,,,,,,,,,,,,,,,,,,,,,,,,,,,,,,,,,,,,47_48Exp,001,2021_May_14_1531,ComputerHuman,2020.1.3,60.005774794712494,
Human.xlsx,h,Sychronize.jpg,Number10.jpg,10,Human,,,,,1,1,11,2,0,1,1,9,,,,,,,,,,,,,,,,,,,,,,,,,,,,,2583.0245514218404,None,2583.0245514218404,None,2583.474681245978,None,2583.474681245978,None,v,9.902395154258556,2583.474681245978,None,t,8.665484551664122,2583.474681245978,None,9.902395154258556,8.665484551664122,10.088145662890202,False,False,False,2593.4721919074655,None,2593.4721919074655,None,2593.4721919074655,None,2593.4721919074655,None,2593.4721919074655,None,2593.4721919074655,None,2593.4721919074655,None,2593.4721919074655,None,2594.4405288689486,None,2594.4405288689486,None,2595.4551880573345,None,2595.4551880573345,None,h,,,,,,,,,,,,,,,,,,,,,,,,,,,,,,,,,,,,,,,,,,,,,,,47_48Exp,001,2021_May_14_1531,ComputerHuman,2020.1.3,60.005774794712494,
Human.xlsx,h,Sychronize.jpg,Number7.jpg,7,Human,,,,,1,1,11,2,0,2,2,3,,,,,,,,,,,,,,,,,,,,,,,,,,,,,2596.5049607127185,None,2596.5049607127185,None,2596.955212437453,None,2596.955212437453,None,v,7.23740045051818,2596.955212437453,None,t,5.888568418635259,2596.955212437453,None,7.23740045051818,5.888568418635259,7.4689781163248306,False,False,False,2604.2867220736953,None,2604.2867220736953,None,2604.2867220736953,None,2604.2867220736953,None,2604.2867220736953,None,2604.2867220736953,None,2604.2867220736953,None,2604.2867220736953,None,2605.255642554086,None,2605.255642554086,None,2606.252946626144,None,2606.252946626144,None,h,,,,,,,,,,,,,,,,,,,,,,,,,,,,,,,,,,,,,,,,,,,,,,,47_48Exp,001,2021_May_14_1531,ComputerHuman,2020.1.3,60.005774794712494,
Human.xlsx,h,Sychronize.jpg,Number8.jpg,8,Human,,,,,1,1,11,2,0,3,3,4,,,,,,,,,,,,,,,,,,,,,,,,,,,,,2607.319799479934,None,2607.319799479934,None,2607.753194276829,None,2607.753194276829,None,v,7.763118910184858,2607.753194276829,None,t,7.310513541549881,2607.753194276829,None,7.763118910184858,7.310513541549881,8.253960594964061,False,False,False,2615.601113658191,None,2615.601113658191,None,2615.601113658191,None,2615.601113658191,None,2615.601113658191,None,2615.601113658191,None,2615.601113658191,None,2615.601113658191,None,2616.587077125223,None,2616.587077125223,None,2617.584039875608,None,2617.584039875608,None,h,,,,,,,,,,,,,,,,,,,,,,,,,,,,,,,,,,,,,,,,,,,,,,,47_48Exp,001,2021_May_14_1531,ComputerHuman,2020.1.3,60.005774794712494,
Human.xlsx,h,Sychronize.jpg,Number9.jpg,9,Human,,,,,1,1,11,2,0,4,4,7,,,,,,,,,,,,,,,,,,,,,,,,,,,,,2618.6343177768904,None,2618.6343177768904,None,2619.0842275383693,None,2619.0842275383693,None,v,8.835507334246358,2619.0842275383693,None,t,9.094489002320188,2619.0842275383693,None,8.835507334246358,9.094489002320188,8.377819772841695,True,False,False,2628.2650927374816,None,2628.2650927374816,None,2628.2650927374816,None,2628.2650927374816,None,2628.2650927374816,None,2628.2650927374816,None,2628.2650927374816,None,2628.2650927374816,None,2629.2503167811556,None,2629.2503167811556,None,2630.248088245764,None,2630.248088245764,None,h,,,,,,,,,,,,,,,,,,,,,,,,,,,,,,,,,,,,,,,,,,,,,,,47_48Exp,001,2021_May_14_1531,ComputerHuman,2020.1.3,60.005774794712494,
Human.xlsx,h,Sychronize.jpg,Number8.jpg,8,Human,,,,,1,1,11,2,0,5,5,5,,,,,,,,,,,,,,,,,,,,,,,,,,,,,2631.299141499003,None,2631.299141499003,None,2631.7480067648394,None,2631.7480067648394,None,v,8.491450597859512,2631.7480067648394,None,t,7.626481493243773,2631.7480067648394,None,8.491450597859512,7.626481493243773,8.290492775173652,False,False,False,2640.3144204556884,None,2640.3144204556884,None,2640.3144204556884,None,2640.3144204556884,None,2640.3144204556884,None,2640.3144204556884,None,2640.3144204556884,None,2640.3144204556884,None,2641.2979391741683,None,2641.2979391741683,None,2642.2957003734628,None,2642.2957003734628,None,h,,,,,,,,,,,,,,,,,,,,,,,,,,,,,,,,,,,,,,,,,,,,,,,47_48Exp,001,2021_May_14_1531,ComputerHuman,2020.1.3,60.005774794712494,
Human.xlsx,h,Sychronize.jpg,Number6.jpg,6,Human,,,,,1,1,11,2,0,6,6,1,,,,,,,,,,,,,,,,,,,,,,,,,,,,,2643.345545848417,None,2643.345545848417,None,2643.7956878626137,None,2643.7956878626137,None,v,5.991395742588793,2643.7956878626137,None,t,5.546593936920544,2643.7956878626137,None,5.991395742588793,5.546593936920544,5.8790393711499,False,False,False,2649.862092571311,None,2649.862092571311,None,2649.862092571311,None,2649.862092571311,None,2649.862092571311,None,2649.862092571311,None,2649.862092571311,None,2649.862092571311,None,2650.8625436035218,None,2650.8625436035218,None,2651.860363828371,None,2651.860363828371,None,h,,,,,,,,,,,,,,,,,,,,,,,,,,,,,,,,,,,,,,,,,,,,,,,47_48Exp,001,2021_May_14_1531,ComputerHuman,2020.1.3,60.005774794712494,
Human.xlsx,h,Sychronize.jpg,Number10.jpg,10,Human,,,,,1,1,11,2,0,7,7,8,,,,,,,,,,,,,,,,,,,,,,,,,,,,,2652.9101092165183,None,2652.9101092165183,None,2653.360344901699,None,2653.360344901699,None,v,9.886247816215473,2653.360344901699,None,t,9.721531559102004,2653.360344901699,None,9.886247816215473,9.721531559102004,10.534757890674694,True,False,False,2663.3414349111736,None,2663.3414349111736,None,2663.3414349111736,None,2663.3414349111736,None,2663.3414349111736,None,2663.3414349111736,None,2663.3414349111736,None,2663.3414349111736,None,2664.3270708505515,None,2664.3270708505515,None,2665.3243258415787,None,2665.3243258415787,None,h,,,,,,,,,,,,,,,,,,,,,,,,,,,,,,,,,,,,,,,,,,,,,,,47_48Exp,001,2021_May_14_1531,ComputerHuman,2020.1.3,60.005774794712494,
Human.xlsx,h,Sychronize.jpg,Number9.jpg,9,Human,,,,,1,1,11,2,0,8,8,6,,,,,,,,,,,,,,,,,,,,,,,,,,,,,2666.374697093055,None,2666.374697093055,None,2666.824653690026,None,2666.824653690026,None,v,9.745501386780234,2666.824653690026,None,t,8.66848651426335,2666.824653690026,None,9.745501386780234,8.66848651426335,9.25615450408783,False,False,False,2676.640156494701,None,2676.640156494701,None,2676.640156494701,None,2676.640156494701,None,2676.640156494701,None,2676.640156494701,None,2676.640156494701,None,2676.640156494701,None,2677.623617470792,None,2677.623617470792,None,2678.638326060998,None,2678.638326060998,None,h,,,,,,,,,,,,,,,,,,,,,,,,,,,,,,,,,,,,,,,,,,,,,,,47_48Exp,001,2021_May_14_1531,ComputerHuman,2020.1.3,60.005774794712494,
Human.xlsx,h,Sychronize.jpg,Number6.jpg,6,Human,,,,,1,1,11,2,0,9,9,0,,,,,,,,,,,,,,,,,,,,,,,,,,,,,2679.688347329444,None,2679.688347329444,None,2680.1383863697156,None,2680.1383863697156,None,v,6.159505006588006,2680.1383863697156,None,t,5.454699492573127,2680.1383863697156,None,6.159505006588006,5.454699492573127,5.751633667407127,False,False,False,2686.386718095884,None,2686.386718095884,None,2686.386718095884,None,2686.386718095884,None,2686.386718095884,None,2686.386718095884,None,2686.386718095884,None,2686.386718095884,None,2687.372386435156,None,2687.372386435156,None,2688.3529827472157,None,2688.3529827472157,None,h,,,,,,,,,,,,,,,,,,,,,,,,,,,,,,,,,,,,,,,,,,,,,,,47_48Exp,001,2021_May_14_1531,ComputerHuman,2020.1.3,60.005774794712494,
