Condition,CorrectTuringReply,Sychronize,NumberImage,Number,Partner,trials.thisRepN,trials.thisTrialN,trials.thisN,trials.thisIndex,Block.thisRepN,Block.thisTrialN,Block.thisN,Block.thisIndex,trials_loop.thisRepN,trials_loop.thisTrialN,trials_loop.thisN,trials_loop.thisIndex,key_resp_Istr.keys,key_resp_Istr.rt,key_resp_Istr.started,key_resp_Istr.stopped,key_respPrLeft.keys,key_respPrRight.keys,key_respPrRight.rt,RTPrLeft,RTPrRight,CompPr,SychronizedRTsPr,SychronizedRTsLeftCPr,SychronizedRTsRightCPr,CreditLeftPr.started,CreditLeftPr.stopped,CreditRightPr.started,CreditRightPr.stopped,key_respPrLeft.rt,text_StartExp.started,text_StartExp.stopped,key_startExp.keys,key_startExp.rt,key_startExp.started,key_startExp.stopped,SychroLeft.started,SychroLeft.stopped,SychroRight.started,SychroRight.stopped,NumberLeft.started,NumberLeft.stopped,NumberRight.started,NumberRight.stopped,CrossLeft.started,CrossLeft.stopped,CrossRight.started,CrossRight.stopped,key_respLeft.keys,key_respLeft.rt,key_respLeft.started,key_respLeft.stopped,key_respRight.keys,key_respRight.rt,key_respRight.started,key_respRight.stopped,RTLeft,RTRight,Comp,SychronizedRTs,SychronizedRTsLeftC,SychronizedRTsRightC,FeedbackLeftLeft.started,FeedbackLeftLeft.stopped,FeedbackLeftRight.started,FeedbackLeftRight.stopped,FeedbackRightLeft.started,FeedbackRightLeft.stopped,FeedbackRightRight.started,FeedbackRightRight.stopped,textLeftLeft.started,textLeftLeft.stopped,textLeftRight.started,textLeftRight.stopped,textRightLeft.started,textRightLeft.stopped,textRightRight.started,textRightRight.stopped,CreditLeft.started,CreditLeft.stopped,CreditRight.started,CreditRight.stopped,BlankLeft.started,BlankLeft.stopped,BlankRight.started,BlankRight.stopped,CorrectTuringReply,TuringtextLeft.started,TuringtextLeft.stopped,TuringtextRight.started,TuringtextRight.stopped,keyTuringLeft.keys,keyTuringLeft.corr,keyTuringLeft.rt,keyTuringLeft.started,keyTuringLeft.stopped,keyTuringRight.keys,keyTuringRight.corr,keyTuringRight.rt,keyTuringRight.started,keyTuringRight.stopped,RespTuringLeft,RespTuringRight,ScoreLeft.started,ScoreLeft.stopped,ScoreRight.started,ScoreRight.stopped,BlockText.started,BlockText.stopped,text_Pause.started,text_Pause.stopped,text_LongPause.started,text_LongPause.stopped,key_respPause.keys,key_respPause.started,key_respPause.stopped,key_respPause.rt,QuestImageLeft.started,QuestImageLeft.stopped,QuestImageRight.started,QuestImageRight.stopped,respQuestLeft.keys,respQuestLeft.rt,respQuestLeft.started,respQuestLeft.stopped,respQuestRight.keys,respQuestRight.rt,respQuestRight.started,respQuestRight.stopped,RespInclusionLeft,RespInclusionRight,EndText.started,EndText.stopped,participant,session,date,expName,psychopyVersion,frameRate,
,,,,,,,,,,,,,,,,,,"['t', 'v']","[84.08791067086668, 95.45489885996903]",16.772701173391397,None,,,,,,,,,,,,,,,,,,,,,,,,,,,,,,,,,,,,,,,,,,,,,,,,,,,,,,,,,,,,,,,,,,,,,,,,,,,,,,,,,,,,,,,,,,,,,,,,,,,,,,,,,,,,,,,,,,,,,,49_50Exp,001,2021_May_17_1521,ComputerHuman,2020.1.3,60.00804608981156,
,,,,,,,,,,,,,,,,,,,,,,v,t,5.4140871093777605,3.687257254302949,5.4140871093777605,6,False,False,False,192.21108626894966,None,192.21108626894966,None,3.687257254302949,193.21085499092214,None,"['space', 'space']","[59.20137612030294, 177.2749793100793]",194.1938963130242,None,,,,,,,,,,,,,,,,,,,,,,,,,,,,,,,,,,,,,,,,,,,,,,,,,,,,,,,,,,,,,,,,,,,,,,,,,,,,,,,,,,,,,,,,,,,,,,,,,,49_50Exp,001,2021_May_17_1521,ComputerHuman,2020.1.3,60.00804608981156,
Human.xlsx,h,Sychronize.jpg,Number10.jpg,10,Human,,,,,0,0,0,6,0,0,0,9,,,,,,,,,,,,,,,,,,,,,,,,,371.56845091837613,None,371.56845091837613,None,374.6149923335024,None,374.6149923335024,None,375.0481840985931,None,375.0481840985931,None,v,8.367631661673386,375.0481840985931,None,t,10.242652672367967,375.0481840985931,None,8.367631661673386,10.242652672367967,9.941237618104482,False,False,False,385.3629756275941,None,385.3629756275941,None,385.3629756275941,None,385.3629756275941,None,385.3629756275941,None,385.3629756275941,None,385.3629756275941,None,385.3629756275941,None,386.36463563285497,None,386.36463563285497,None,387.3777735720746,None,387.3777735720746,None,h,,,,,,,,,,,,,,,,,,,,,,,,,,,,,,,,,,,,,,,,,,,,,,,49_50Exp,001,2021_May_17_1521,ComputerHuman,2020.1.3,60.00804608981156,
Human.xlsx,h,Sychronize.jpg,Number6.jpg,6,Human,,,,,0,0,0,6,0,1,1,1,,,,,,,,,,,,,,,,,,,,,,,,,,,,,388.4278306698402,None,388.4278306698402,None,388.8777674773696,None,388.8777674773696,None,v,6.329029722915038,388.8777674773696,None,t,5.8080026688394355,388.8777674773696,None,6.329029722915038,5.8080026688394355,6.065318427030147,False,False,False,395.2760458835078,None,395.2760458835078,None,395.2760458835078,None,395.2760458835078,None,395.2760458835078,None,395.2760458835078,None,395.2760458835078,None,395.2760458835078,None,396.2778961077288,None,396.2778961077288,None,397.25859353448004,None,397.25859353448004,None,h,,,,,,,,,,,,,,,,,,,,,,,,,,,,,,,,,,,,,,,,,,,,,,,49_50Exp,001,2021_May_17_1521,ComputerHuman,2020.1.3,60.00804608981156,
Human.xlsx,h,Sychronize.jpg,Number6.jpg,6,Human,,,,,0,0,0,6,0,2,2,0,,,,,,,,,,,,,,,,,,,,,,,,,,,,,398.30902882474857,None,398.30902882474857,None,398.7584017116501,None,398.7584017116501,None,v,5.019686860456659,398.7584017116501,None,t,6.131046749597772,398.7584017116501,None,5.019686860456659,6.131046749597772,5.990850827555608,False,False,False,404.9568931117001,None,404.9568931117001,None,404.9568931117001,None,404.9568931117001,None,404.9568931117001,None,404.9568931117001,None,404.9568931117001,None,404.9568931117001,None,405.9589845579417,None,405.9589845579417,None,406.9560751380932,None,406.9560751380932,None,h,,,,,,,,,,,,,,,,,,,,,,,,,,,,,,,,,,,,,,,,,,,,,,,49_50Exp,001,2021_May_17_1521,ComputerHuman,2020.1.3,60.00804608981156,
Human.xlsx,h,Sychronize.jpg,Number8.jpg,8,Human,,,,,0,0,0,6,0,3,3,4,,,,,,,,,,,,,,,,,,,,,,,,,,,,,408.0061543692623,None,408.0061543692623,None,408.45620761774035,None,408.45620761774035,None,v,6.952815112302687,408.45620761774035,None,t,8.479849621166068,408.45620761774035,None,6.952815112302687,8.479849621166068,7.86515888663026,False,False,False,417.02024308250975,None,417.02024308250975,None,417.02024308250975,None,417.02024308250975,None,417.02024308250975,None,417.02024308250975,None,417.02024308250975,None,417.02024308250975,None,417.98883257523767,None,417.98883257523767,None,418.98633406683666,None,418.98633406683666,None,h,,,,,,,,,,,,,,,,,,,,,,,,,,,,,,,,,,,,,,,,,,,,,,,49_50Exp,001,2021_May_17_1521,ComputerHuman,2020.1.3,60.00804608981156,
Human.xlsx,h,Sychronize.jpg,Number7.jpg,7,Human,,,,,0,0,0,6,0,4,4,2,,,,,,,,,,,,,,,,,,,,,,,,,,,,,420.0536266704303,None,420.0536266704303,None,420.48613647007505,None,420.48613647007505,None,v,7.241818660063018,420.48613647007505,None,t,6.940959306615241,420.48613647007505,None,7.241818660063018,6.940959306615241,6.73409035751903,False,False,False,427.8020988240428,None,427.8020988240428,None,427.8020988240428,None,427.8020988240428,None,427.8020988240428,None,427.8020988240428,None,427.8020988240428,None,427.8020988240428,None,428.8026855196217,None,428.8026855196217,None,429.80023993892473,None,429.80023993892473,None,h,,,,,,,,,,,,,,,,,,,,,,,,,,,,,,,,,,,,,,,,,,,,,,,49_50Exp,001,2021_May_17_1521,ComputerHuman,2020.1.3,60.00804608981156,
Human.xlsx,h,Sychronize.jpg,Number9.jpg,9,Human,,,,,0,0,0,6,0,5,5,6,,,,,,,,,,,,,,,,,,,,,,,,,,,,,430.85010168534654,None,430.85010168534654,None,431.2833524728467,None,431.2833524728467,None,v,7.699621486723117,431.2833524728467,None,t,8.474784600283783,431.2833524728467,None,7.699621486723117,8.474784600283783,9.336278502137828,False,False,False,439.8477202594422,None,439.8477202594422,None,439.8477202594422,None,439.8477202594422,None,439.8477202594422,None,439.8477202594422,None,439.8477202594422,None,439.8477202594422,None,440.83301213167124,None,440.83301213167124,None,441.8304225234647,None,441.8304225234647,None,h,,,,,,,,,,,,,,,,,,,,,,,,,,,,,,,,,,,,,,,,,,,,,,,49_50Exp,001,2021_May_17_1521,ComputerHuman,2020.1.3,60.00804608981156,
Human.xlsx,h,Sychronize.jpg,Number8.jpg,8,Human,,,,,0,0,0,6,0,6,6,5,,,,,,,,,,,,,,,,,,,,,,,,,,,,,442.8803381599123,None,442.8803381599123,None,443.33033366907694,None,443.33033366907694,None,v,6.879644325829304,443.33033366907694,None,t,7.9748234139328815,443.33033366907694,None,6.879644325829304,7.9748234139328815,7.6826577596193975,False,False,False,451.3947428355136,None,451.3947428355136,None,451.3947428355136,None,451.3947428355136,None,451.3947428355136,None,451.3947428355136,None,451.3947428355136,None,451.3947428355136,None,452.363600495275,None,452.363600495275,None,453.3609117679139,None,453.3609117679139,None,h,,,,,,,,,,,,,,,,,,,,,,,,,,,,,,,,,,,,,,,,,,,,,,,49_50Exp,001,2021_May_17_1521,ComputerHuman,2020.1.3,60.00804608981156,
Human.xlsx,h,Sychronize.jpg,Number10.jpg,10,Human,,,,,0,0,0,6,0,7,7,8,,,,,,,,,,,,,,,,,,,,,,,,,,,,,454.4449580748428,None,454.4449580748428,None,454.87763820546206,None,454.87763820546206,None,v,9.539155273844699,454.87763820546206,None,t,9.12671277257732,454.87763820546206,None,9.539155273844699,9.12671277257732,9.2652954884441,False,False,False,464.4930651876848,None,464.4930651876848,None,464.4930651876848,None,464.4930651876848,None,464.4930651876848,None,464.4930651876848,None,464.4930651876848,None,464.4930651876848,None,465.47639841409364,None,465.47639841409364,None,466.47418379064993,None,466.47418379064993,None,h,,,,,,,,,,,,,,,,,,,,,,,,,,,,,,,,,,,,,,,,,,,,,,,49_50Exp,001,2021_May_17_1521,ComputerHuman,2020.1.3,60.00804608981156,
Human.xlsx,h,Sychronize.jpg,Number9.jpg,9,Human,,,,,0,0,0,6,0,8,8,7,,,,,,,,,,,,,,,,,,,,,,,,,,,,,467.5409208137394,None,467.5409208137394,None,467.97405259409925,None,467.97405259409925,None,v,7.941681368806712,467.97405259409925,None,t,8.112807862811678,467.97405259409925,None,7.941681368806712,8.112807862811678,8.902349917812995,True,False,False,476.17174302156263,None,476.17174302156263,None,476.17174302156263,None,476.17174302156263,None,476.17174302156263,None,476.17174302156263,None,476.17174302156263,None,476.17174302156263,None,477.157425917253,None,477.157425917253,None,478.1545703874308,None,478.1545703874308,None,h,,,,,,,,,,,,,,,,,,,,,,,,,,,,,,,,,,,,,,,,,,,,,,,49_50Exp,001,2021_May_17_1521,ComputerHuman,2020.1.3,60.00804608981156,
Human.xlsx,h,Sychronize.jpg,Number7.jpg,7,Human,,,,,0,0,0,6,0,9,9,3,,,,,,,,,,,,,,,,,,,,,,,,,,,,,479.1883071474854,None,479.1883071474854,None,479.6547583609736,None,479.6547583609736,None,v,5.872475990068779,479.6547583609736,None,t,6.310958600912272,479.6547583609736,None,5.872475990068779,6.310958600912272,6.728069510744115,False,False,False,486.0358156961115,None,486.0358156961115,None,486.0358156961115,None,486.0358156961115,None,486.0358156961115,None,486.0358156961115,None,486.0358156961115,None,486.0358156961115,None,487.0219290704613,None,487.0219290704613,None,488.0186873287871,None,488.0186873287871,None,h,,,,,,,,,,,,,,,,,,,,,,,,,,,,,,,,,,,,,,,,,,,,,,,49_50Exp,001,2021_May_17_1521,ComputerHuman,2020.1.3,60.00804608981156,
Human.xlsx,h,,,,,,,,,0,0,0,6,,,,,,,,,,,,,,,,,,,,,,,,,,,,,,,,,,,,,,,,,,,,,,,,,,,,,,,,,,,,,,,,,,,,,,,,,,,,,,,h,489.0364328652172,None,489.0364328652172,None,q,0,8.777397945763369,489.0364328652172,None,o,1,14.8602310855631,489.0364328652172,None,h,h,503.9812626304747,None,503.9812626304747,None,505.9807343157572,None,None,None,None,None,None,None,None,,,,,,,,,,,,,,,,,,49_50Exp,001,2021_May_17_1521,ComputerHuman,2020.1.3,60.00804608981156,
Computer.xlsx,c,Sychronize.jpg,Number6.jpg,6,Computer,,,,,0,1,1,5,0,0,0,0,,,,,,,,,,,,,,,,,,,,,,,,,510.9824713067692,None,510.9824713067692,None,514.0621185195641,None,514.0621185195641,None,514.4790752728181,None,514.4790752728181,None,v,5.2128463556869065,514.4790752728181,None,t,5.196036837681731,514.4790752728181,None,5.2128463556869065,5.196036837681731,5.738423847430262,False,False,False,519.7609816966378,None,519.7609816966378,None,519.7609816966378,None,519.7609816966378,None,519.7609816966378,None,519.7609816966378,None,519.7609816966378,None,519.7609816966378,None,520.776843327581,None,520.776843327581,None,521.7766967338794,None,521.7766967338794,None,c,,,,,,,,,,,,,,,,,,,,,,,,,,,,,,,,,,,,,,,,,,,,,,,49_50Exp,001,2021_May_17_1521,ComputerHuman,2020.1.3,60.00804608981156,
Computer.xlsx,c,Sychronize.jpg,Number7.jpg,7,Computer,,,,,0,1,1,5,0,1,1,3,,,,,,,,,,,,,,,,,,,,,,,,,,,,,522.8261767592849,None,522.8261767592849,None,523.2766922430442,None,523.2766922430442,None,v,6.030359972541646,523.2766922430442,None,t,6.485996612626877,523.2766922430442,None,6.030359972541646,6.485996612626877,7.30462541564318,False,False,False,529.8580700313719,None,529.8580700313719,None,529.8580700313719,None,529.8580700313719,None,529.8580700313719,None,529.8580700313719,None,529.8580700313719,None,529.8580700313719,None,530.857736747224,None,530.857736747224,None,531.8241189943096,None,531.8241189943096,None,c,,,,,,,,,,,,,,,,,,,,,,,,,,,,,,,,,,,,,,,,,,,,,,,49_50Exp,001,2021_May_17_1521,ComputerHuman,2020.1.3,60.00804608981156,
Computer.xlsx,c,Sychronize.jpg,Number10.jpg,10,Computer,,,,,0,1,1,5,0,2,2,8,,,,,,,,,,,,,,,,,,,,,,,,,,,,,532.8909538534576,None,532.8909538534576,None,533.3241366368775,None,533.3241366368775,None,v,9.481758867796088,533.3241366368775,None,t,10.704600860957271,533.3241366368775,None,9.481758867796088,10.704600860957271,10.100616513411515,False,False,False,544.1061152348389,None,544.1061152348389,None,544.1061152348389,None,544.1061152348389,None,544.1061152348389,None,544.1061152348389,None,544.1061152348389,None,544.1061152348389,None,545.1207197526192,None,545.1207197526192,None,546.1038088700416,None,546.1038088700416,None,c,,,,,,,,,,,,,,,,,,,,,,,,,,,,,,,,,,,,,,,,,,,,,,,49_50Exp,001,2021_May_17_1521,ComputerHuman,2020.1.3,60.00804608981156,
Computer.xlsx,c,Sychronize.jpg,Number10.jpg,10,Computer,,,,,0,1,1,5,0,3,3,9,,,,,,,,,,,,,,,,,,,,,,,,,,,,,547.136994861201,None,547.136994861201,None,547.5871302278138,None,547.5871302278138,None,v,10.013552699954289,547.5871302278138,None,t,9.824668159334578,547.5871302278138,None,10.013552699954289,9.824668159334578,10.682972334747518,False,False,False,557.6841585778166,None,557.6841585778166,None,557.6841585778166,None,557.6841585778166,None,557.6841585778166,None,557.6841585778166,None,557.6841585778166,None,557.6841585778166,None,558.6838673150578,None,558.6838673150578,None,559.6669846605892,None,559.6669846605892,None,c,,,,,,,,,,,,,,,,,,,,,,,,,,,,,,,,,,,,,,,,,,,,,,,49_50Exp,001,2021_May_17_1521,ComputerHuman,2020.1.3,60.00804608981156,
Computer.xlsx,c,Sychronize.jpg,Number8.jpg,8,Computer,,,,,0,1,1,5,0,4,4,4,,,,,,,,,,,,,,,,,,,,,,,,,,,,,560.7179771352321,None,560.7179771352321,None,561.1669461677134,None,561.1669461677134,None,v,8.032632335298786,561.1669461677134,None,t,9.055804725641792,561.1669461677134,None,8.032632335298786,9.055804725641792,8.456364284468775,False,False,False,570.2975544193027,None,570.2975544193027,None,570.2975544193027,None,570.2975544193027,None,570.2975544193027,None,570.2975544193027,None,570.2975544193027,None,570.2975544193027,None,571.2973484824183,None,571.2973484824183,None,572.2971403001161,None,572.2971403001161,None,c,,,,,,,,,,,,,,,,,,,,,,,,,,,,,,,,,,,,,,,,,,,,,,,49_50Exp,001,2021_May_17_1521,ComputerHuman,2020.1.3,60.00804608981156,
Computer.xlsx,c,Sychronize.jpg,Number7.jpg,7,Computer,,,,,0,1,1,5,0,5,5,2,,,,,,,,,,,,,,,,,,,,,,,,,,,,,573.3475675710356,None,573.3475675710356,None,573.7969022858351,None,573.7969022858351,None,v,7.221923296529894,573.7969022858351,None,t,6.98494222860927,573.7969022858351,None,7.221923296529894,6.98494222860927,7.109485626643247,False,True,True,581.1114984634928,None,581.1114984634928,None,581.1114984634928,None,581.1114984634928,None,581.1114984634928,None,581.1114984634928,None,581.1114984634928,None,581.1114984634928,None,582.0944326470908,None,582.0944326470908,None,583.0776962655495,None,583.0776962655495,None,c,,,,,,,,,,,,,,,,,,,,,,,,,,,,,,,,,,,,,,,,,,,,,,,49_50Exp,001,2021_May_17_1521,ComputerHuman,2020.1.3,60.00804608981156,
Computer.xlsx,c,Sychronize.jpg,Number9.jpg,9,Computer,,,,,0,1,1,5,0,6,6,6,,,,,,,,,,,,,,,,,,,,,,,,,,,,,584.144798650183,None,584.144798650183,None,584.5777219274664,None,584.5777219274664,None,v,9.251686950273779,584.5777219274664,None,t,7.562895434103211,584.5777219274664,None,9.251686950273779,7.562895434103211,9.355956995805974,False,True,False,593.9248673599664,None,593.9248673599664,None,593.9248673599664,None,593.9248673599664,None,593.9248673599664,None,593.9248673599664,None,593.9248673599664,None,593.9248673599664,None,594.9246514790889,None,594.9246514790889,None,595.907762409141,None,595.907762409141,None,c,,,,,,,,,,,,,,,,,,,,,,,,,,,,,,,,,,,,,,,,,,,,,,,49_50Exp,001,2021_May_17_1521,ComputerHuman,2020.1.3,60.00804608981156,
Computer.xlsx,c,Sychronize.jpg,Number9.jpg,9,Computer,,,,,0,1,1,5,0,7,7,7,,,,,,,,,,,,,,,,,,,,,,,,,,,,,596.9407004420264,None,596.9407004420264,None,597.3908589043644,None,597.3908589043644,None,v,8.149532953108974,597.3908589043644,None,t,9.492719393352218,597.3908589043644,None,8.149532953108974,9.492719393352218,8.80284770013591,False,False,False,606.9715691620745,None,606.9715691620745,None,606.9715691620745,None,606.9715691620745,None,606.9715691620745,None,606.9715691620745,None,606.9715691620745,None,606.9715691620745,None,607.9713019573628,None,607.9713019573628,None,608.9544173782501,None,608.9544173782501,None,c,,,,,,,,,,,,,,,,,,,,,,,,,,,,,,,,,,,,,,,,,,,,,,,49_50Exp,001,2021_May_17_1521,ComputerHuman,2020.1.3,60.00804608981156,
Computer.xlsx,c,Sychronize.jpg,Number6.jpg,6,Computer,,,,,0,1,1,5,0,8,8,1,,,,,,,,,,,,,,,,,,,,,,,,,,,,,610.0044898731662,None,610.0044898731662,None,610.4544398324279,None,610.4544398324279,None,v,5.449089964265568,610.4544398324279,None,t,5.3360254822837305,610.4544398324279,None,5.449089964265568,5.3360254822837305,6.071271190770116,False,False,False,615.9870734508222,None,615.9870734508222,None,615.9870734508222,None,615.9870734508222,None,615.9870734508222,None,615.9870734508222,None,615.9870734508222,None,615.9870734508222,None,616.9855513783659,None,616.9855513783659,None,617.9686574968082,None,617.9686574968082,None,c,,,,,,,,,,,,,,,,,,,,,,,,,,,,,,,,,,,,,,,,,,,,,,,49_50Exp,001,2021_May_17_1521,ComputerHuman,2020.1.3,60.00804608981156,
Computer.xlsx,c,Sychronize.jpg,Number8.jpg,8,Computer,,,,,0,1,1,5,0,9,9,5,,,,,,,,,,,,,,,,,,,,,,,,,,,,,619.0187704092436,None,619.0187704092436,None,619.4686488359112,None,619.4686488359112,None,v,7.441936063333742,619.4686488359112,None,t,7.900889185426422,619.4686488359112,None,7.441936063333742,7.900889185426422,8.172238393735192,False,False,True,627.466220897782,None,627.466220897782,None,627.466220897782,None,627.466220897782,None,627.466220897782,None,627.466220897782,None,627.466220897782,None,627.466220897782,None,628.4658446299231,None,628.4658446299231,None,629.4491300610111,None,629.4491300610111,None,c,,,,,,,,,,,,,,,,,,,,,,,,,,,,,,,,,,,,,,,,,,,,,,,49_50Exp,001,2021_May_17_1521,ComputerHuman,2020.1.3,60.00804608981156,
Computer.xlsx,c,,,,,,,,,0,1,1,5,,,,,,,,,,,,,,,,,,,,,,,,,,,,,,,,,,,,,,,,,,,,,,,,,,,,,,,,,,,,,,,,,,,,,,,,,,,,,,,c,630.449849557011,None,630.449849557011,None,q,0,4.376000333605134,630.449849557011,None,o,0,4.503141018649785,630.449849557011,None,h,h,635.0485889153351,None,635.0485889153351,None,637.0304866782571,None,None,None,None,None,None,None,None,,,,,,,,,,,,,,,,,,49_50Exp,001,2021_May_17_1521,ComputerHuman,2020.1.3,60.00804608981156,
Human.xlsx,h,Sychronize.jpg,Number6.jpg,6,Human,,,,,0,2,2,0,0,0,0,0,,,,,,,,,,,,,,,,,,,,,,,,,642.0487643786928,None,642.0487643786928,None,645.1117579696293,None,645.1117579696293,None,645.5622833973812,None,645.5622833973812,None,v,5.56217337191174,645.5622833973812,None,t,5.5610692679297244,645.5622833973812,None,5.56217337191174,5.5610692679297244,5.881765321145908,True,False,False,651.2101941965575,None,651.2101941965575,None,651.2101941965575,None,651.2101941965575,None,651.2101941965575,None,651.2101941965575,None,651.2101941965575,None,651.2101941965575,None,652.1951996176376,None,652.1951996176376,None,653.1930744901297,None,653.1930744901297,None,h,,,,,,,,,,,,,,,,,,,,,,,,,,,,,,,,,,,,,,,,,,,,,,,49_50Exp,001,2021_May_17_1521,ComputerHuman,2020.1.3,60.00804608981156,
Human.xlsx,h,Sychronize.jpg,Number10.jpg,10,Human,,,,,0,2,2,0,0,1,1,9,,,,,,,,,,,,,,,,,,,,,,,,,,,,,654.2596437484362,None,654.2596437484362,None,654.709671976545,None,654.709671976545,None,v,10.025592309123567,654.709671976545,None,t,9.624542095167271,654.709671976545,None,10.025592309123567,9.624542095167271,9.435979922521867,False,False,False,664.8086923328606,None,664.8086923328606,None,664.8086923328606,None,664.8086923328606,None,664.8086923328606,None,664.8086923328606,None,664.8086923328606,None,664.8086923328606,None,665.7920573158917,None,665.7920573158917,None,666.7895610529085,None,666.7895610529085,None,h,,,,,,,,,,,,,,,,,,,,,,,,,,,,,,,,,,,,,,,,,,,,,,,49_50Exp,001,2021_May_17_1521,ComputerHuman,2020.1.3,60.00804608981156,
Human.xlsx,h,Sychronize.jpg,Number9.jpg,9,Human,,,,,0,2,2,0,0,2,2,7,,,,,,,,,,,,,,,,,,,,,,,,,,,,,667.8562772256901,None,667.8562772256901,None,668.2894988227595,None,668.2894988227595,None,v,8.392699184592402,668.2894988227595,None,t,8.107838432570134,668.2894988227595,None,8.392699184592402,8.107838432570134,9.124603065829376,True,False,False,676.7704474155244,None,676.7704474155244,None,676.7704474155244,None,676.7704474155244,None,676.7704474155244,None,676.7704474155244,None,676.7704474155244,None,676.7704474155244,None,677.7559131472417,None,677.7559131472417,None,678.7532186459489,None,678.7532186459489,None,h,,,,,,,,,,,,,,,,,,,,,,,,,,,,,,,,,,,,,,,,,,,,,,,49_50Exp,001,2021_May_17_1521,ComputerHuman,2020.1.3,60.00804608981156,
Human.xlsx,h,Sychronize.jpg,Number10.jpg,10,Human,,,,,0,2,2,0,0,3,3,8,,,,,,,,,,,,,,,,,,,,,,,,,,,,,679.8036908252229,None,679.8036908252229,None,680.2534018078823,None,680.2534018078823,None,v,8.28373996779419,680.2534018078823,None,t,9.22276629050566,680.2534018078823,None,8.28373996779419,9.22276629050566,10.283228570068818,False,False,False,689.567073514977,None,689.567073514977,None,689.567073514977,None,689.567073514977,None,689.567073514977,None,689.567073514977,None,689.567073514977,None,689.567073514977,None,690.553141660198,None,690.553141660198,None,691.5499156364476,None,691.5499156364476,None,h,,,,,,,,,,,,,,,,,,,,,,,,,,,,,,,,,,,,,,,,,,,,,,,49_50Exp,001,2021_May_17_1521,ComputerHuman,2020.1.3,60.00804608981156,
Human.xlsx,h,Sychronize.jpg,Number8.jpg,8,Human,,,,,0,2,2,0,0,4,4,4,,,,,,,,,,,,,,,,,,,,,,,,,,,,,692.6000436252589,None,692.6000436252589,None,693.0501305550033,None,693.0501305550033,None,v,7.817935755390408,693.0501305550033,None,t,6.684896999480316,693.0501305550033,None,7.817935755390408,6.684896999480316,8.179362535847703,False,False,False,700.9483983756008,None,700.9483983756008,None,700.9483983756008,None,700.9483983756008,None,700.9483983756008,None,700.9483983756008,None,700.9483983756008,None,700.9483983756008,None,701.9325614442528,None,701.9325614442528,None,702.9303529155145,None,702.9303529155145,None,h,,,,,,,,,,,,,,,,,,,,,,,,,,,,,,,,,,,,,,,,,,,,,,,49_50Exp,001,2021_May_17_1521,ComputerHuman,2020.1.3,60.00804608981156,
Human.xlsx,h,Sychronize.jpg,Number9.jpg,9,Human,,,,,0,2,2,0,0,5,5,6,,,,,,,,,,,,,,,,,,,,,,,,,,,,,703.980146016308,None,703.980146016308,None,704.4300975794399,None,704.4300975794399,None,v,7.5770037145621245,704.4300975794399,None,t,8.415749360055997,704.4300975794399,None,7.5770037145621245,8.415749360055997,9.471460264573182,False,False,False,712.9444515727546,None,712.9444515727546,None,712.9444515727546,None,712.9444515727546,None,712.9444515727546,None,712.9444515727546,None,712.9444515727546,None,712.9444515727546,None,713.9300587657904,None,713.9300587657904,None,714.910514328973,None,714.910514328973,None,h,,,,,,,,,,,,,,,,,,,,,,,,,,,,,,,,,,,,,,,,,,,,,,,49_50Exp,001,2021_May_17_1521,ComputerHuman,2020.1.3,60.00804608981156,
Human.xlsx,h,Sychronize.jpg,Number7.jpg,7,Human,,,,,0,2,2,0,0,6,6,3,,,,,,,,,,,,,,,,,,,,,,,,,,,,,715.9777142288917,None,715.9777142288917,None,716.4106304491479,None,716.4106304491479,None,v,6.607494562881129,716.4106304491479,None,t,6.01498912576244,716.4106304491479,None,6.607494562881129,6.01498912576244,6.562584978907473,False,False,False,723.0934873262208,None,723.0934873262208,None,723.0934873262208,None,723.0934873262208,None,723.0934873262208,None,723.0934873262208,None,723.0934873262208,None,723.0934873262208,None,724.0937894952945,None,724.0937894952945,None,725.0913259512554,None,725.0913259512554,None,h,,,,,,,,,,,,,,,,,,,,,,,,,,,,,,,,,,,,,,,,,,,,,,,49_50Exp,001,2021_May_17_1521,ComputerHuman,2020.1.3,60.00804608981156,
Human.xlsx,h,Sychronize.jpg,Number8.jpg,8,Human,,,,,0,2,2,0,0,7,7,5,,,,,,,,,,,,,,,,,,,,,,,,,,,,,726.1414148056433,None,726.1414148056433,None,726.5910658035709,None,726.5910658035709,None,v,6.922355058284666,726.5910658035709,None,t,7.253836135828806,726.5910658035709,None,6.922355058284666,7.253836135828806,8.066316882714894,False,False,False,733.9389413176114,None,733.9389413176114,None,733.9389413176114,None,733.9389413176114,None,733.9389413176114,None,733.9389413176114,None,733.9389413176114,None,733.9389413176114,None,734.9076770832667,None,734.9076770832667,None,735.9052420881103,None,735.9052420881103,None,h,,,,,,,,,,,,,,,,,,,,,,,,,,,,,,,,,,,,,,,,,,,,,,,49_50Exp,001,2021_May_17_1521,ComputerHuman,2020.1.3,60.00804608981156,
Human.xlsx,h,Sychronize.jpg,Number6.jpg,6,Human,,,,,0,2,2,0,0,8,8,1,,,,,,,,,,,,,,,,,,,,,,,,,,,,,736.9891892758851,None,736.9891892758851,None,737.4053729638872,None,737.4053729638872,None,v,5.866993000711773,737.4053729638872,None,t,5.302066425871999,737.4053729638872,None,5.866993000711773,5.302066425871999,6.405627792965587,False,False,False,743.3546233151346,None,743.3546233151346,None,743.3546233151346,None,743.3546233151346,None,743.3546233151346,None,743.3546233151346,None,743.3546233151346,None,743.3546233151346,None,744.3551064007238,None,744.3551064007238,None,745.3527997151527,None,745.3527997151527,None,h,,,,,,,,,,,,,,,,,,,,,,,,,,,,,,,,,,,,,,,,,,,,,,,49_50Exp,001,2021_May_17_1521,ComputerHuman,2020.1.3,60.00804608981156,
Human.xlsx,h,Sychronize.jpg,Number7.jpg,7,Human,,,,,0,2,2,0,0,9,9,2,,,,,,,,,,,,,,,,,,,,,,,,,,,,,746.4026181570894,None,746.4026181570894,None,746.8526993129021,None,746.8526993129021,None,v,5.982826403546369,746.8526993129021,None,t,7.0659508061048655,746.8526993129021,None,5.982826403546369,7.0659508061048655,7.348667597508676,False,False,False,753.9844023660289,None,753.9844023660289,None,753.9844023660289,None,753.9844023660289,None,753.9844023660289,None,753.9844023660289,None,753.9844023660289,None,753.9844023660289,None,755.0020497456262,None,755.0020497456262,None,756.0000519653822,None,756.0000519653822,None,h,,,,,,,,,,,,,,,,,,,,,,,,,,,,,,,,,,,,,,,,,,,,,,,49_50Exp,001,2021_May_17_1521,ComputerHuman,2020.1.3,60.00804608981156,
Human.xlsx,h,,,,,,,,,0,2,2,0,,,,,,,,,,,,,,,,,,,,,,,,,,,,,,,,,,,,,,,,,,,,,,,,,,,,,,,,,,,,,,,,,,,,,,,,,,,,,,,h,757.0007958402034,None,757.0007958402034,None,q,1,7.957688951903037,757.0007958402034,None,l,0,3.093277219274569,757.0007958402034,None,h,c,765.0312379308798,None,765.0312379308798,None,767.0306044023018,None,None,None,None,None,None,None,None,,,,,,,,,,,,,,,,,,49_50Exp,001,2021_May_17_1521,ComputerHuman,2020.1.3,60.00804608981156,
Computer.xlsx,c,Sychronize.jpg,Number8.jpg,8,Computer,,,,,0,3,3,1,0,0,0,5,,,,,,,,,,,,,,,,,,,,,,,,,772.0494691190906,None,772.0494691190906,None,775.1121162741465,None,775.1121162741465,None,775.5621563708919,None,775.5621563708919,None,v,7.166746325534405,775.5621563708919,None,t,7.194040982081788,775.5621563708919,None,7.166746325534405,7.194040982081788,7.803477143765481,False,False,False,782.8281953898368,None,782.8281953898368,None,782.8281953898368,None,782.8281953898368,None,782.8281953898368,None,782.8281953898368,None,782.8281953898368,None,782.8281953898368,None,783.8594653981127,None,783.8594653981127,None,784.8260221462347,None,784.8260221462347,None,c,,,,,,,,,,,,,,,,,,,,,,,,,,,,,,,,,,,,,,,,,,,,,,,49_50Exp,001,2021_May_17_1521,ComputerHuman,2020.1.3,60.00804608981156,
Computer.xlsx,c,Sychronize.jpg,Number6.jpg,6,Computer,,,,,0,3,3,1,0,1,1,0,,,,,,,,,,,,,,,,,,,,,,,,,,,,,785.8761199822934,None,785.8761199822934,None,786.3260917541847,None,786.3260917541847,None,v,5.3100989266904435,786.3260917541847,None,t,5.961035907437235,786.3260917541847,None,5.3100989266904435,5.961035907437235,6.121074295738756,False,False,True,792.3740471409419,None,792.3740471409419,None,792.3740471409419,None,792.3740471409419,None,792.3740471409419,None,792.3740471409419,None,792.3740471409419,None,792.3740471409419,None,793.373772237655,None,793.373772237655,None,794.3569351330893,None,794.3569351330893,None,c,,,,,,,,,,,,,,,,,,,,,,,,,,,,,,,,,,,,,,,,,,,,,,,49_50Exp,001,2021_May_17_1521,ComputerHuman,2020.1.3,60.00804608981156,
Computer.xlsx,c,Sychronize.jpg,Number6.jpg,6,Computer,,,,,0,3,3,1,0,2,2,1,,,,,,,,,,,,,,,,,,,,,,,,,,,,,795.406612113708,None,795.406612113708,None,795.8569136412334,None,795.8569136412334,None,v,5.570404752587365,795.8569136412334,None,t,5.150025661917425,795.8569136412334,None,5.570404752587365,5.150025661917425,5.755573564962852,False,True,False,801.506487974184,None,801.506487974184,None,801.506487974184,None,801.506487974184,None,801.506487974184,None,801.506487974184,None,801.506487974184,None,801.506487974184,None,802.5047946084314,None,802.5047946084314,None,803.4879424274891,None,803.4879424274891,None,c,,,,,,,,,,,,,,,,,,,,,,,,,,,,,,,,,,,,,,,,,,,,,,,49_50Exp,001,2021_May_17_1521,ComputerHuman,2020.1.3,60.00804608981156,
Computer.xlsx,c,Sychronize.jpg,Number10.jpg,10,Computer,,,,,0,3,3,1,0,3,3,8,,,,,,,,,,,,,,,,,,,,,,,,,,,,,804.5544982132892,None,804.5544982132892,None,805.0042826531858,None,805.0042826531858,None,v,9.314003387373305,805.0042826531858,None,t,8.348763416371185,805.0042826531858,None,9.314003387373305,8.348763416371185,9.331624103325552,False,True,False,814.4017049136155,None,814.4017049136155,None,814.4017049136155,None,814.4017049136155,None,814.4017049136155,None,814.4017049136155,None,814.4017049136155,None,814.4017049136155,None,815.3844815971979,None,815.3844815971979,None,816.3678940547752,None,816.3678940547752,None,c,,,,,,,,,,,,,,,,,,,,,,,,,,,,,,,,,,,,,,,,,,,,,,,49_50Exp,001,2021_May_17_1521,ComputerHuman,2020.1.3,60.00804608981156,
Computer.xlsx,c,Sychronize.jpg,Number7.jpg,7,Computer,,,,,0,3,3,1,0,4,4,3,,,,,,,,,,,,,,,,,,,,,,,,,,,,,817.418554207592,None,817.418554207592,None,817.8681853175344,None,817.8681853175344,None,v,6.641076068337952,817.8681853175344,None,t,7.6598660447925795,817.8681853175344,None,6.641076068337952,7.6598660447925795,7.1473406256939995,False,False,False,825.6156117480259,None,825.6156117480259,None,825.6156117480259,None,825.6156117480259,None,825.6156117480259,None,825.6156117480259,None,825.6156117480259,None,825.6156117480259,None,826.6152742938161,None,826.6152742938161,None,827.5984400762159,None,827.5984400762159,None,c,,,,,,,,,,,,,,,,,,,,,,,,,,,,,,,,,,,,,,,,,,,,,,,49_50Exp,001,2021_May_17_1521,ComputerHuman,2020.1.3,60.00804608981156,
Computer.xlsx,c,Sychronize.jpg,Number9.jpg,9,Computer,,,,,0,3,3,1,0,5,5,7,,,,,,,,,,,,,,,,,,,,,,,,,,,,,828.6488955752438,None,828.6488955752438,None,829.0984897961803,None,829.0984897961803,None,v,7.885687065752336,829.0984897961803,None,t,8.021072603979064,829.0984897961803,None,7.885687065752336,8.021072603979064,9.247397388378939,False,False,False,837.1795452066749,None,837.1795452066749,None,837.1795452066749,None,837.1795452066749,None,837.1795452066749,None,837.1795452066749,None,837.1795452066749,None,837.1795452066749,None,838.2122779442238,None,838.2122779442238,None,839.195456557582,None,839.195456557582,None,c,,,,,,,,,,,,,,,,,,,,,,,,,,,,,,,,,,,,,,,,,,,,,,,49_50Exp,001,2021_May_17_1521,ComputerHuman,2020.1.3,60.00804608981156,
Computer.xlsx,c,Sychronize.jpg,Number8.jpg,8,Computer,,,,,0,3,3,1,0,6,6,4,,,,,,,,,,,,,,,,,,,,,,,,,,,,,840.24529937834,None,840.24529937834,None,840.6954283294735,None,840.6954283294735,None,v,7.595798502627076,840.6954283294735,None,t,7.5267929660685695,840.6954283294735,None,7.595798502627076,7.5267929660685695,8.1212032331426,False,False,False,848.3610699094775,None,848.3610699094775,None,848.3610699094775,None,848.3610699094775,None,848.3610699094775,None,848.3610699094775,None,848.3610699094775,None,848.3610699094775,None,849.3594483970924,None,849.3594483970924,None,850.3425080033103,None,850.3425080033103,None,c,,,,,,,,,,,,,,,,,,,,,,,,,,,,,,,,,,,,,,,,,,,,,,,49_50Exp,001,2021_May_17_1521,ComputerHuman,2020.1.3,60.00804608981156,
Computer.xlsx,c,Sychronize.jpg,Number10.jpg,10,Computer,,,,,0,3,3,1,0,7,7,9,,,,,,,,,,,,,,,,,,,,,,,,,,,,,851.3922966132686,None,851.3922966132686,None,851.8424877945508,None,851.8424877945508,None,v,9.835594362077245,851.8424877945508,None,t,8.182777966677804,851.8424877945508,None,9.835594362077245,8.182777966677804,9.27003643191261,False,False,False,861.7565761870242,None,861.7565761870242,None,861.7565761870242,None,861.7565761870242,None,861.7565761870242,None,861.7565761870242,None,861.7565761870242,None,861.7565761870242,None,862.7728182558881,None,862.7728182558881,None,863.739117743291,None,863.739117743291,None,c,,,,,,,,,,,,,,,,,,,,,,,,,,,,,,,,,,,,,,,,,,,,,,,49_50Exp,001,2021_May_17_1521,ComputerHuman,2020.1.3,60.00804608981156,
Computer.xlsx,c,Sychronize.jpg,Number9.jpg,9,Computer,,,,,0,3,3,1,0,8,8,6,,,,,,,,,,,,,,,,,,,,,,,,,,,,,864.8060036054994,None,864.8060036054994,None,865.2389429214809,None,865.2389429214809,None,v,8.390052799394653,865.2389429214809,None,t,7.853835494280702,865.2389429214809,None,8.390052799394653,7.853835494280702,8.6546814813676,False,True,False,873.7045148935354,None,873.7045148935354,None,873.7045148935354,None,873.7045148935354,None,873.7045148935354,None,873.7045148935354,None,873.7045148935354,None,873.7045148935354,None,874.7196047423222,None,874.7196047423222,None,875.7027541652501,None,875.7027541652501,None,c,,,,,,,,,,,,,,,,,,,,,,,,,,,,,,,,,,,,,,,,,,,,,,,49_50Exp,001,2021_May_17_1521,ComputerHuman,2020.1.3,60.00804608981156,
Computer.xlsx,c,Sychronize.jpg,Number7.jpg,7,Computer,,,,,0,3,3,1,0,9,9,2,,,,,,,,,,,,,,,,,,,,,,,,,,,,,876.7530367671116,None,876.7530367671116,None,877.2028404534462,None,877.2028404534462,None,v,6.949207367536474,877.2028404534462,None,t,6.508947348161655,877.2028404534462,None,6.949207367536474,6.508947348161655,6.882179297231866,False,True,False,884.2506559827552,None,884.2506559827552,None,884.2506559827552,None,884.2506559827552,None,884.2506559827552,None,884.2506559827552,None,884.2506559827552,None,884.2506559827552,None,885.233584392422,None,885.233584392422,None,886.2167383061851,None,886.2167383061851,None,c,,,,,,,,,,,,,,,,,,,,,,,,,,,,,,,,,,,,,,,,,,,,,,,49_50Exp,001,2021_May_17_1521,ComputerHuman,2020.1.3,60.00804608981156,
Computer.xlsx,c,,,,,,,,,0,3,3,1,,,,,,,,,,,,,,,,,,,,,,,,,,,,,,,,,,,,,,,,,,,,,,,,,,,,,,,,,,,,,,,,,,,,,,,,,,,,,,,c,887.2174340649117,None,887.2174340649117,None,q,0,3.4940567000057854,887.2174340649117,None,l,1,9.832695206995595,887.2174340649117,None,h,c,897.147387616842,None,897.147387616842,None,899.1301450539863,None,None,None,None,None,None,None,None,,,,,,,,,,,,,,,,,,49_50Exp,001,2021_May_17_1521,ComputerHuman,2020.1.3,60.00804608981156,
Human.xlsx,h,Sychronize.jpg,Number7.jpg,7,Human,,,,,0,4,4,8,0,0,0,2,,,,,,,,,,,,,,,,,,,,,,,,,904.1319895042761,None,904.1319895042761,None,907.2122747364842,None,907.2122747364842,None,907.6614811416989,None,907.6614811416989,None,v,5.999978187370289,907.6614811416989,None,t,5.079082650619512,907.6614811416989,None,5.999978187370289,5.079082650619512,6.978604014417503,False,False,False,913.7436262213469,None,913.7436262213469,None,913.7436262213469,None,913.7436262213469,None,913.7436262213469,None,913.7436262213469,None,913.7436262213469,None,913.7436262213469,None,914.7615177099306,None,914.7615177099306,None,915.7424823413935,None,915.7424823413935,None,h,,,,,,,,,,,,,,,,,,,,,,,,,,,,,,,,,,,,,,,,,,,,,,,49_50Exp,001,2021_May_17_1521,ComputerHuman,2020.1.3,60.00804608981156,
Human.xlsx,h,Sychronize.jpg,Number9.jpg,9,Human,,,,,0,4,4,8,0,1,1,6,,,,,,,,,,,,,,,,,,,,,,,,,,,,,916.7926472192107,None,916.7926472192107,None,917.2426282935467,None,917.2426282935467,None,v,7.393929031968582,917.2426282935467,None,t,8.116850256298221,917.2426282935467,None,7.393929031968582,8.116850256298221,9.418485631668876,False,False,False,925.440853130433,None,925.440853130433,None,925.440853130433,None,925.440853130433,None,925.440853130433,None,925.440853130433,None,925.440853130433,None,925.440853130433,None,926.4424829829413,None,926.4424829829413,None,927.4394571221442,None,927.4394571221442,None,h,,,,,,,,,,,,,,,,,,,,,,,,,,,,,,,,,,,,,,,,,,,,,,,49_50Exp,001,2021_May_17_1521,ComputerHuman,2020.1.3,60.00804608981156,
Human.xlsx,h,Sychronize.jpg,Number8.jpg,8,Human,,,,,0,4,4,8,0,2,2,5,,,,,,,,,,,,,,,,,,,,,,,,,,,,,928.4894096475978,None,928.4894096475978,None,928.9396874378499,None,928.9396874378499,None,v,7.0838089341964405,928.9396874378499,None,t,7.122936942254,928.9396874378499,None,7.0838089341964405,7.122936942254,7.670797801436218,True,False,False,936.1218735765656,None,936.1218735765656,None,936.1218735765656,None,936.1218735765656,None,936.1218735765656,None,936.1218735765656,None,936.1218735765656,None,936.1218735765656,None,937.1235207508676,None,937.1235207508676,None,938.1367946982482,None,938.1367946982482,None,h,,,,,,,,,,,,,,,,,,,,,,,,,,,,,,,,,,,,,,,,,,,,,,,49_50Exp,001,2021_May_17_1521,ComputerHuman,2020.1.3,60.00804608981156,
Human.xlsx,h,Sychronize.jpg,Number6.jpg,6,Human,,,,,0,4,4,8,0,3,3,0,,,,,,,,,,,,,,,,,,,,,,,,,,,,,939.1870173153784,None,939.1870173153784,None,939.636512096386,None,939.636512096386,None,v,5.742201343401575,939.636512096386,None,t,5.605236634952689,939.636512096386,None,5.742201343401575,5.605236634952689,5.759623915863669,True,False,False,945.468196544623,None,945.468196544623,None,945.468196544623,None,945.468196544623,None,945.468196544623,None,945.468196544623,None,945.468196544623,None,945.468196544623,None,946.4537665278785,None,946.4537665278785,None,947.4343667601188,None,947.4343667601188,None,h,,,,,,,,,,,,,,,,,,,,,,,,,,,,,,,,,,,,,,,,,,,,,,,49_50Exp,001,2021_May_17_1521,ComputerHuman,2020.1.3,60.00804608981156,
Human.xlsx,h,Sychronize.jpg,Number10.jpg,10,Human,,,,,0,4,4,8,0,4,4,9,,,,,,,,,,,,,,,,,,,,,,,,,,,,,948.5009411508086,None,948.5009411508086,None,948.9344973151219,None,948.9344973151219,None,v,9.035069255098733,948.9344973151219,None,t,8.8468044497763,948.9344973151219,None,9.035069255098733,8.8468044497763,9.671895538590807,True,False,False,958.0495666343754,None,958.0495666343754,None,958.0495666343754,None,958.0495666343754,None,958.0495666343754,None,958.0495666343754,None,958.0495666343754,None,958.0495666343754,None,959.0506813238985,None,959.0506813238985,None,960.0479088745324,None,960.0479088745324,None,h,,,,,,,,,,,,,,,,,,,,,,,,,,,,,,,,,,,,,,,,,,,,,,,49_50Exp,001,2021_May_17_1521,ComputerHuman,2020.1.3,60.00804608981156,
Human.xlsx,h,Sychronize.jpg,Number6.jpg,6,Human,,,,,0,4,4,8,0,5,5,1,,,,,,,,,,,,,,,,,,,,,,,,,,,,,961.0978283602676,None,961.0978283602676,None,961.5479428765725,None,961.5479428765725,None,v,5.984871016789384,961.5479428765725,None,t,5.720077563144059,961.5479428765725,None,5.984871016789384,5.720077563144059,5.629646235127679,True,False,False,967.6292295650946,None,967.6292295650946,None,967.6292295650946,None,967.6292295650946,None,967.6292295650946,None,967.6292295650946,None,967.6292295650946,None,967.6292295650946,None,968.5978238694324,None,968.5978238694324,None,969.5953288895448,None,969.5953288895448,None,h,,,,,,,,,,,,,,,,,,,,,,,,,,,,,,,,,,,,,,,,,,,,,,,49_50Exp,001,2021_May_17_1521,ComputerHuman,2020.1.3,60.00804608981156,
Human.xlsx,h,Sychronize.jpg,Number7.jpg,7,Human,,,,,0,4,4,8,0,6,6,3,,,,,,,,,,,,,,,,,,,,,,,,,,,,,970.6621313505225,None,970.6621313505225,None,971.0955912826466,None,971.0955912826466,None,v,6.308377653602747,971.0955912826466,None,t,6.839861297338302,971.0955912826466,None,6.308377653602747,6.839861297338302,6.90859986075974,False,False,False,978.0101053421695,None,978.0101053421695,None,978.0101053421695,None,978.0101053421695,None,978.0101053421695,None,978.0101053421695,None,978.0101053421695,None,978.0101053421695,None,979.011935357631,None,979.011935357631,None,980.0093419001369,None,980.0093419001369,None,h,,,,,,,,,,,,,,,,,,,,,,,,,,,,,,,,,,,,,,,,,,,,,,,49_50Exp,001,2021_May_17_1521,ComputerHuman,2020.1.3,60.00804608981156,
Human.xlsx,h,Sychronize.jpg,Number9.jpg,9,Human,,,,,0,4,4,8,0,7,7,7,,,,,,,,,,,,,,,,,,,,,,,,,,,,,981.0600155254597,None,981.0600155254597,None,981.4929574076332,None,981.4929574076332,None,v,7.090013344196905,981.4929574076332,None,t,7.90874076972932,981.4929574076332,None,7.090013344196905,7.90874076972932,9.126106138386444,False,False,False,989.4751271868768,None,989.4751271868768,None,989.4751271868768,None,989.4751271868768,None,989.4751271868768,None,989.4751271868768,None,989.4751271868768,None,989.4751271868768,None,990.4759252724975,None,990.4759252724975,None,991.4731553893234,None,991.4731553893234,None,h,,,,,,,,,,,,,,,,,,,,,,,,,,,,,,,,,,,,,,,,,,,,,,,49_50Exp,001,2021_May_17_1521,ComputerHuman,2020.1.3,60.00804608981156,
Human.xlsx,h,Sychronize.jpg,Number10.jpg,10,Human,,,,,0,4,4,8,0,8,8,8,,,,,,,,,,,,,,,,,,,,,,,,,,,,,992.5234501805958,None,992.5234501805958,None,992.9730136072317,None,992.9730136072317,None,v,8.868788051811407,992.9730136072317,None,t,8.535810884502098,992.9730136072317,None,8.868788051811407,8.535810884502098,10.330152772485324,False,False,False,1001.9050759271972,None,1001.9050759271972,None,1001.9050759271972,None,1001.9050759271972,None,1001.9050759271972,None,1001.9050759271972,None,1001.9050759271972,None,1001.9050759271972,None,1002.9053399241693,None,1002.9053399241693,None,1003.9032359677431,None,1003.9032359677431,None,h,,,,,,,,,,,,,,,,,,,,,,,,,,,,,,,,,,,,,,,,,,,,,,,49_50Exp,001,2021_May_17_1521,ComputerHuman,2020.1.3,60.00804608981156,
Human.xlsx,h,Sychronize.jpg,Number8.jpg,8,Human,,,,,0,4,4,8,0,9,9,4,,,,,,,,,,,,,,,,,,,,,,,,,,,,,1004.9700355417554,None,1004.9700355417554,None,1005.4197131639221,None,1005.4197131639221,None,v,6.8851417500141,1005.4197131639221,None,t,7.267935113842668,1005.4197131639221,None,6.8851417500141,7.267935113842668,7.9077448239772625,False,False,False,1012.767827333791,None,1012.767827333791,None,1012.767827333791,None,1012.767827333791,None,1012.767827333791,None,1012.767827333791,None,1012.767827333791,None,1012.767827333791,None,1013.7699402718881,None,1013.7699402718881,None,1014.7504821232669,None,1014.7504821232669,None,h,,,,,,,,,,,,,,,,,,,,,,,,,,,,,,,,,,,,,,,,,,,,,,,49_50Exp,001,2021_May_17_1521,ComputerHuman,2020.1.3,60.00804608981156,
Human.xlsx,h,,,,,,,,,0,4,4,8,,,,,,,,,,,,,,,,,,,,,,,,,,,,,,,,,,,,,,,,,,,,,,,,,,,,,,,,,,,,,,,,,,,,,,,,,,,,,,,h,1015.7511810897336,None,1015.7511810897336,None,q,0,2.0532414209005765,1015.7511810897336,None,o,1,2.796247586175923,1015.7511810897336,None,h,h,1018.6164585912893,None,1018.6164585912893,None,None,None,1020.615606936416,None,1020.615606936416,None,"['space', 'space']",1021.5987015069963,None,"[3.565000352851257, 8.848560045678369]",,,,,,,,,,,,,,,,,49_50Exp,001,2021_May_17_1521,ComputerHuman,2020.1.3,60.00804608981156,
Human.xlsx,h,Sychronize.jpg,Number9.jpg,9,Human,,,,,0,5,5,4,0,0,0,6,,,,,,,,,,,,,,,,,,,,,,,,,1030.4998402545662,None,1030.4998402545662,None,1033.5624489167462,None,1033.5624489167462,None,1033.9958116543598,None,1033.9958116543598,None,v,7.802482790476915,1033.9958116543598,None,t,6.573938077794082,1033.9958116543598,None,7.802482790476915,6.573938077794082,9.498210564682616,False,False,False,1041.8785469581007,None,1041.8785469581007,None,1041.8785469581007,None,1041.8785469581007,None,1041.8785469581007,None,1041.8785469581007,None,1041.8785469581007,None,1041.8785469581007,None,1042.8962495108199,None,1042.8962495108199,None,1043.8930408088636,None,1043.8930408088636,None,h,,,,,,,,,,,,,,,,,,,,,,,,,,,,,,,,,,,,,,,,,,,,,,,49_50Exp,001,2021_May_17_1521,ComputerHuman,2020.1.3,60.00804608981156,
Human.xlsx,h,Sychronize.jpg,Number10.jpg,10,Human,,,,,0,5,5,4,0,1,1,8,,,,,,,,,,,,,,,,,,,,,,,,,,,,,1044.9431655899352,None,1044.9431655899352,None,1045.3931646276137,None,1045.3931646276137,None,v,8.672095231374442,1045.3931646276137,None,t,9.075649406888715,1045.3931646276137,None,8.672095231374442,9.075649406888715,10.058490562619683,False,False,False,1054.556937378507,None,1054.556937378507,None,1054.556937378507,None,1054.556937378507,None,1054.556937378507,None,1054.556937378507,None,1054.556937378507,None,1054.556937378507,None,1055.5419010989717,None,1055.5419010989717,None,1056.5397525549647,None,1056.5397525549647,None,h,,,,,,,,,,,,,,,,,,,,,,,,,,,,,,,,,,,,,,,,,,,,,,,49_50Exp,001,2021_May_17_1521,ComputerHuman,2020.1.3,60.00804608981156,
Human.xlsx,h,Sychronize.jpg,Number9.jpg,9,Human,,,,,0,5,5,4,0,2,2,7,,,,,,,,,,,,,,,,,,,,,,,,,,,,,1057.5900277790251,None,1057.5900277790251,None,1058.0395138991357,None,1058.0395138991357,None,v,8.116604543442463,1058.0395138991357,None,t,8.343826705073752,1058.0395138991357,None,8.116604543442463,8.343826705073752,9.353129681489833,True,False,False,1066.4554085697973,None,1066.4554085697973,None,1066.4554085697973,None,1066.4554085697973,None,1066.4554085697973,None,1066.4554085697973,None,1066.4554085697973,None,1066.4554085697973,None,1067.4389563939876,None,1067.4389563939876,None,1068.4367805841935,None,1068.4367805841935,None,h,,,,,,,,,,,,,,,,,,,,,,,,,,,,,,,,,,,,,,,,,,,,,,,49_50Exp,001,2021_May_17_1521,ComputerHuman,2020.1.3,60.00804608981156,
Human.xlsx,h,Sychronize.jpg,Number7.jpg,7,Human,,,,,0,5,5,4,0,3,3,2,,,,,,,,,,,,,,,,,,,,,,,,,,,,,1069.5033803160268,None,1069.5033803160268,None,1069.9369945404273,None,1069.9369945404273,None,v,6.1703264837397,1069.9369945404273,None,t,5.946042932387172,1069.9369945404273,None,6.1703264837397,5.946042932387172,6.983663928611332,True,False,False,1076.1854666940394,None,1076.1854666940394,None,1076.1854666940394,None,1076.1854666940394,None,1076.1854666940394,None,1076.1854666940394,None,1076.1854666940394,None,1076.1854666940394,None,1077.1873226921916,None,1077.1873226921916,None,1078.1842615462588,None,1078.1842615462588,None,h,,,,,,,,,,,,,,,,,,,,,,,,,,,,,,,,,,,,,,,,,,,,,,,49_50Exp,001,2021_May_17_1521,ComputerHuman,2020.1.3,60.00804608981156,
Human.xlsx,h,Sychronize.jpg,Number8.jpg,8,Human,,,,,0,5,5,4,0,4,4,4,,,,,,,,,,,,,,,,,,,,,,,,,,,,,1079.2344296318156,None,1079.2344296318156,None,1079.684446312062,None,1079.684446312062,None,v,6.897933253353585,1079.684446312062,None,t,6.724950119648838,1079.684446312062,None,6.897933253353585,6.724950119648838,8.140744710978034,True,False,False,1086.6491945365779,None,1086.6491945365779,None,1086.6491945365779,None,1086.6491945365779,None,1086.6491945365779,None,1086.6491945365779,None,1086.6491945365779,None,1086.6491945365779,None,1087.6340690818806,None,1087.6340690818806,None,1088.6482585181525,None,1088.6482585181525,None,h,,,,,,,,,,,,,,,,,,,,,,,,,,,,,,,,,,,,,,,,,,,,,,,49_50Exp,001,2021_May_17_1521,ComputerHuman,2020.1.3,60.00804608981156,
Human.xlsx,h,Sychronize.jpg,Number7.jpg,7,Human,,,,,0,5,5,4,0,5,5,3,,,,,,,,,,,,,,,,,,,,,,,,,,,,,1089.6984371892504,None,1089.6984371892504,None,1090.1484715120646,None,1090.1484715120646,None,v,5.757110275673313,1090.1484715120646,None,t,5.984011021793322,1090.1484715120646,None,5.757110275673313,5.984011021793322,7.2343127441820645,True,False,False,1096.2295910773514,None,1096.2295910773514,None,1096.2295910773514,None,1096.2295910773514,None,1096.2295910773514,None,1096.2295910773514,None,1096.2295910773514,None,1096.2295910773514,None,1097.215066432288,None,1097.215066432288,None,1098.1957689914225,None,1098.1957689914225,None,h,,,,,,,,,,,,,,,,,,,,,,,,,,,,,,,,,,,,,,,,,,,,,,,49_50Exp,001,2021_May_17_1521,ComputerHuman,2020.1.3,60.00804608981156,
Human.xlsx,h,Sychronize.jpg,Number10.jpg,10,Human,,,,,0,5,5,4,0,6,6,9,,,,,,,,,,,,,,,,,,,,,,,,,,,,,1099.2627985603667,None,1099.2627985603667,None,1099.695634907906,None,1099.695634907906,None,v,8.656888941638499,1099.695634907906,None,t,8.419802018309838,1099.695634907906,None,8.656888941638499,8.419802018309838,10.170650974297727,True,False,False,1108.443054602144,None,1108.443054602144,None,1108.443054602144,None,1108.443054602144,None,1108.443054602144,None,1108.443054602144,None,1108.443054602144,None,1108.443054602144,None,1109.4284516882335,None,1109.4284516882335,None,1110.4256885413124,None,1110.4256885413124,None,h,,,,,,,,,,,,,,,,,,,,,,,,,,,,,,,,,,,,,,,,,,,,,,,49_50Exp,001,2021_May_17_1521,ComputerHuman,2020.1.3,60.00804608981156,
Human.xlsx,h,Sychronize.jpg,Number6.jpg,6,Human,,,,,0,5,5,4,0,7,7,1,,,,,,,,,,,,,,,,,,,,,,,,,,,,,1111.4763304100134,None,1111.4763304100134,None,1111.925834493466,None,1111.925834493466,None,v,5.413817980022031,1111.925834493466,None,t,4.917089553674941,1111.925834493466,None,5.413817980022031,4.917089553674941,5.669889411449755,False,False,False,1117.4089441404221,None,1117.4089441404221,None,1117.4089441404221,None,1117.4089441404221,None,1117.4089441404221,None,1117.4089441404221,None,1117.4089441404221,None,1117.4089441404221,None,1118.3924740012703,None,1118.3924740012703,None,1119.390162183316,None,1119.390162183316,None,h,,,,,,,,,,,,,,,,,,,,,,,,,,,,,,,,,,,,,,,,,,,,,,,49_50Exp,001,2021_May_17_1521,ComputerHuman,2020.1.3,60.00804608981156,
Human.xlsx,h,Sychronize.jpg,Number6.jpg,6,Human,,,,,0,5,5,4,0,8,8,0,,,,,,,,,,,,,,,,,,,,,,,,,,,,,1120.4407617098536,None,1120.4407617098536,None,1120.8903886497342,None,1120.8903886497342,None,v,5.072467970720027,1120.8903886497342,None,t,5.20399331507042,1120.8903886497342,None,5.072467970720027,5.20399331507042,6.131894956183728,True,False,False,1126.1553206777312,None,1126.1553206777312,None,1126.1553206777312,None,1126.1553206777312,None,1126.1553206777312,None,1126.1553206777312,None,1126.1553206777312,None,1126.1553206777312,None,1127.1733866673512,None,1127.1733866673512,None,1128.171440210941,None,1128.171440210941,None,h,,,,,,,,,,,,,,,,,,,,,,,,,,,,,,,,,,,,,,,,,,,,,,,49_50Exp,001,2021_May_17_1521,ComputerHuman,2020.1.3,60.00804608981156,
Human.xlsx,h,Sychronize.jpg,Number8.jpg,8,Human,,,,,0,5,5,4,0,9,9,5,,,,,,,,,,,,,,,,,,,,,,,,,,,,,1129.2218030062936,None,1129.2218030062936,None,1129.6715027618638,None,1129.6715027618638,None,v,7.00658131940736,1129.6715027618638,None,t,6.957963534416194,1129.6715027618638,None,7.00658131940736,6.957963534416194,7.857743250935122,True,False,False,1136.7366936544495,None,1136.7366936544495,None,1136.7366936544495,None,1136.7366936544495,None,1136.7366936544495,None,1136.7366936544495,None,1136.7366936544495,None,1136.7366936544495,None,1137.7377592655562,None,1137.7377592655562,None,1138.752141807754,None,1138.752141807754,None,h,,,,,,,,,,,,,,,,,,,,,,,,,,,,,,,,,,,,,,,,,,,,,,,49_50Exp,001,2021_May_17_1521,ComputerHuman,2020.1.3,60.00804608981156,
Human.xlsx,h,,,,,,,,,0,5,5,4,,,,,,,,,,,,,,,,,,,,,,,,,,,,,,,,,,,,,,,,,,,,,,,,,,,,,,,,,,,,,,,,,,,,,,,,,,,,,,,h,1139.7533549748837,None,1139.7533549748837,None,q,0,1.8842153548080205,1139.7533549748837,None,l,0,5.906998967107938,1139.7533549748837,None,h,c,1145.7503656823183,None,1145.7503656823183,None,1147.7331237610106,None,None,None,None,None,None,None,None,,,,,,,,,,,,,,,,,,49_50Exp,001,2021_May_17_1521,ComputerHuman,2020.1.3,60.00804608981156,
Computer.xlsx,c,Sychronize.jpg,Number6.jpg,6,Computer,,,,,0,6,6,3,0,0,0,1,,,,,,,,,,,,,,,,,,,,,,,,,1152.7354015769247,None,1152.7354015769247,None,1155.8315724981235,None,1155.8315724981235,None,1156.2647440544547,None,1156.2647440544547,None,v,5.2710992282181905,1156.2647440544547,None,t,5.250077306525782,1156.2647440544547,None,5.2710992282181905,5.250077306525782,5.678620097771417,False,False,False,1161.6134144463763,None,1161.6134144463763,None,1161.6134144463763,None,1161.6134144463763,None,1161.6134144463763,None,1161.6134144463763,None,1161.6134144463763,None,1161.6134144463763,None,1162.6459171889933,None,1162.6459171889933,None,1163.629048648579,None,1163.629048648579,None,c,,,,,,,,,,,,,,,,,,,,,,,,,,,,,,,,,,,,,,,,,,,,,,,49_50Exp,001,2021_May_17_1521,ComputerHuman,2020.1.3,60.00804608981156,
Computer.xlsx,c,Sychronize.jpg,Number9.jpg,9,Computer,,,,,0,6,6,3,0,1,1,6,,,,,,,,,,,,,,,,,,,,,,,,,,,,,1164.6794893920055,None,1164.6794893920055,None,1165.112247791471,None,1165.112247791471,None,v,7.938896088482579,1165.112247791471,None,t,8.081812437048029,1165.112247791471,None,7.938896088482579,8.081812437048029,9.507204471415093,False,False,False,1173.2764603234687,None,1173.2764603234687,None,1173.2764603234687,None,1173.2764603234687,None,1173.2764603234687,None,1173.2764603234687,None,1173.2764603234687,None,1173.2764603234687,None,1174.2761170953277,None,1174.2761170953277,None,1175.2593518441295,None,1175.2593518441295,None,c,,,,,,,,,,,,,,,,,,,,,,,,,,,,,,,,,,,,,,,,,,,,,,,49_50Exp,001,2021_May_17_1521,ComputerHuman,2020.1.3,60.00804608981156,
Computer.xlsx,c,Sychronize.jpg,Number7.jpg,7,Computer,,,,,0,6,6,3,0,2,2,2,,,,,,,,,,,,,,,,,,,,,,,,,,,,,1176.309234120085,None,1176.309234120085,None,1176.7590294662964,None,1176.7590294662964,None,v,6.56291179357595,1176.7590294662964,None,t,6.7658725372575645,1176.7590294662964,None,6.56291179357595,6.7658725372575645,7.333582439659189,False,False,False,1183.6084719611476,None,1183.6084719611476,None,1183.6084719611476,None,1183.6084719611476,None,1183.6084719611476,None,1183.6084719611476,None,1183.6084719611476,None,1183.6084719611476,None,1184.6069524548834,None,1184.6069524548834,None,1185.5900845560168,None,1185.5900845560168,None,c,,,,,,,,,,,,,,,,,,,,,,,,,,,,,,,,,,,,,,,,,,,,,,,49_50Exp,001,2021_May_17_1521,ComputerHuman,2020.1.3,60.00804608981156,
Computer.xlsx,c,Sychronize.jpg,Number9.jpg,9,Computer,,,,,0,6,6,3,0,3,3,7,,,,,,,,,,,,,,,,,,,,,,,,,,,,,1186.6401115010299,None,1186.6401115010299,None,1187.090007249492,None,1187.090007249492,None,v,7.906921660583066,1187.090007249492,None,t,7.74581357900297,1187.090007249492,None,7.906921660583066,7.74581357900297,8.571896013059572,False,False,False,1195.0876238989435,None,1195.0876238989435,None,1195.0876238989435,None,1195.0876238989435,None,1195.0876238989435,None,1195.0876238989435,None,1195.0876238989435,None,1195.0876238989435,None,1196.0873435424996,None,1196.0873435424996,None,1197.0537838496725,None,1197.0537838496725,None,c,,,,,,,,,,,,,,,,,,,,,,,,,,,,,,,,,,,,,,,,,,,,,,,49_50Exp,001,2021_May_17_1521,ComputerHuman,2020.1.3,60.00804608981156,
Computer.xlsx,c,Sychronize.jpg,Number10.jpg,10,Computer,,,,,0,6,6,3,0,4,4,8,,,,,,,,,,,,,,,,,,,,,,,,,,,,,1198.1200660152813,None,1198.1200660152813,None,1198.554031807946,None,1198.554031807946,None,v,9.301920473718383,1198.554031807946,None,t,9.236942254270616,1198.554031807946,None,9.301920473718383,9.236942254270616,9.262890696031944,False,True,True,1207.9353120809888,None,1207.9353120809888,None,1207.9353120809888,None,1207.9353120809888,None,1207.9353120809888,None,1207.9353120809888,None,1207.9353120809888,None,1207.9353120809888,None,1208.9506117159485,None,1208.9506117159485,None,1209.9338211236068,None,1209.9338211236068,None,c,,,,,,,,,,,,,,,,,,,,,,,,,,,,,,,,,,,,,,,,,,,,,,,49_50Exp,001,2021_May_17_1521,ComputerHuman,2020.1.3,60.00804608981156,
Computer.xlsx,c,Sychronize.jpg,Number6.jpg,6,Computer,,,,,0,6,6,3,0,5,5,0,,,,,,,,,,,,,,,,,,,,,,,,,,,,,1210.9837970655594,None,1210.9837970655594,None,1211.4339170350218,None,1211.4339170350218,None,v,5.669067766707485,1211.4339170350218,None,t,5.392050900412869,1211.4339170350218,None,5.669067766707485,5.392050900412869,5.929320671789291,False,True,False,1217.1985645365135,None,1217.1985645365135,None,1217.1985645365135,None,1217.1985645365135,None,1217.1985645365135,None,1217.1985645365135,None,1217.1985645365135,None,1217.1985645365135,None,1218.181806342343,None,1218.181806342343,None,1219.1647812642345,None,1219.1647812642345,None,c,,,,,,,,,,,,,,,,,,,,,,,,,,,,,,,,,,,,,,,,,,,,,,,49_50Exp,001,2021_May_17_1521,ComputerHuman,2020.1.3,60.00804608981156,
Computer.xlsx,c,Sychronize.jpg,Number8.jpg,8,Computer,,,,,0,6,6,3,0,6,6,4,,,,,,,,,,,,,,,,,,,,,,,,,,,,,1220.2310647129393,None,1220.2310647129393,None,1220.6650356379873,None,1220.6650356379873,None,v,7.153016558351737,1220.6650356379873,None,t,7.099962148671693,1220.6650356379873,None,7.153016558351737,7.099962148671693,7.919251745000834,False,False,False,1227.8972830445296,None,1227.8972830445296,None,1227.8972830445296,None,1227.8972830445296,None,1227.8972830445296,None,1227.8972830445296,None,1227.8972830445296,None,1227.8972830445296,None,1228.9122805104157,None,1228.9122805104157,None,1229.8953442866946,None,1229.8953442866946,None,c,,,,,,,,,,,,,,,,,,,,,,,,,,,,,,,,,,,,,,,,,,,,,,,49_50Exp,001,2021_May_17_1521,ComputerHuman,2020.1.3,60.00804608981156,
Computer.xlsx,c,Sychronize.jpg,Number10.jpg,10,Computer,,,,,0,6,6,3,0,7,7,9,,,,,,,,,,,,,,,,,,,,,,,,,,,,,1230.9451582377965,None,1230.9451582377965,None,1231.3789482463285,None,1231.3789482463285,None,v,8.770030088597196,1231.3789482463285,None,t,9.789734270848385,1231.3789482463285,None,8.770030088597196,9.789734270848385,10.317654450316448,False,False,False,1241.2592119866817,None,1241.2592119866817,None,1241.2592119866817,None,1241.2592119866817,None,1241.2592119866817,None,1241.2592119866817,None,1241.2592119866817,None,1241.2592119866817,None,1242.258901156711,None,1242.258901156711,None,1243.2419832171067,None,1243.2419832171067,None,c,,,,,,,,,,,,,,,,,,,,,,,,,,,,,,,,,,,,,,,,,,,,,,,49_50Exp,001,2021_May_17_1521,ComputerHuman,2020.1.3,60.00804608981156,
Computer.xlsx,c,Sychronize.jpg,Number7.jpg,7,Computer,,,,,0,6,6,3,0,8,8,3,,,,,,,,,,,,,,,,,,,,,,,,,,,,,1244.2925522701175,None,1244.2925522701175,None,1244.7421513026634,None,1244.7421513026634,None,v,6.557865698357091,1244.7421513026634,None,t,11.252548549139647,1244.7421513026634,None,6.557865698357091,11.252548549139647,7.418869147005267,False,False,False,1256.072901657118,None,1256.072901657118,None,1256.072901657118,None,1256.072901657118,None,1256.072901657118,None,1256.072901657118,None,1256.072901657118,None,1256.072901657118,None,1257.0884120405713,None,1257.0884120405713,None,1258.0715062903778,None,1258.0715062903778,None,c,,,,,,,,,,,,,,,,,,,,,,,,,,,,,,,,,,,,,,,,,,,,,,,49_50Exp,001,2021_May_17_1521,ComputerHuman,2020.1.3,60.00804608981156,
Computer.xlsx,c,Sychronize.jpg,Number8.jpg,8,Computer,,,,,0,6,6,3,0,9,9,5,,,,,,,,,,,,,,,,,,,,,,,,,,,,,1259.1218344421418,None,1259.1218344421418,None,1259.571711906488,None,1259.571711906488,None,v,7.674860302939123,1259.571711906488,None,t,7.473902151110451,1259.571711906488,None,7.674860302939123,7.473902151110451,8.397517483819065,False,False,False,1267.3199954450097,None,1267.3199954450097,None,1267.3199954450097,None,1267.3199954450097,None,1267.3199954450097,None,1267.3199954450097,None,1267.3199954450097,None,1267.3199954450097,None,1268.3187553328676,None,1268.3187553328676,None,1269.3018688291108,None,1269.3018688291108,None,c,,,,,,,,,,,,,,,,,,,,,,,,,,,,,,,,,,,,,,,,,,,,,,,49_50Exp,001,2021_May_17_1521,ComputerHuman,2020.1.3,60.00804608981156,
Computer.xlsx,c,,,,,,,,,0,6,6,3,,,,,,,,,,,,,,,,,,,,,,,,,,,,,,,,,,,,,,,,,,,,,,,,,,,,,,,,,,,,,,,,,,,,,,,,,,,,,,,c,1270.3025594554542,None,1270.3025594554542,None,q,0,2.875528154330823,1270.3025594554542,None,l,1,4.055361736798659,1270.3025594554542,None,h,c,1274.4509440377747,None,1274.4509440377747,None,1276.4500987983806,None,None,None,None,None,None,None,None,,,,,,,,,,,,,,,,,,49_50Exp,001,2021_May_17_1521,ComputerHuman,2020.1.3,60.00804608981156,
Computer.xlsx,c,Sychronize.jpg,Number10.jpg,10,Computer,,,,,0,7,7,9,0,0,0,9,,,,,,,,,,,,,,,,,,,,,,,,,1281.4520709167077,None,1281.4520709167077,None,1284.5148143039528,None,1284.5148143039528,None,1284.9484464916954,None,1284.9484464916954,None,v,9.695745895696746,1284.9484464916954,None,t,8.68280619478628,1284.9484464916954,None,9.695745895696746,8.68280619478628,10.253062538039057,False,False,False,1294.7287079866305,None,1294.7287079866305,None,1294.7287079866305,None,1294.7287079866305,None,1294.7287079866305,None,1294.7287079866305,None,1294.7287079866305,None,1294.7287079866305,None,1295.745172031077,None,1295.745172031077,None,1296.728287772738,None,1296.728287772738,None,c,,,,,,,,,,,,,,,,,,,,,,,,,,,,,,,,,,,,,,,,,,,,,,,49_50Exp,001,2021_May_17_1521,ComputerHuman,2020.1.3,60.00804608981156,
Computer.xlsx,c,Sychronize.jpg,Number9.jpg,9,Computer,,,,,0,7,7,9,0,1,1,6,,,,,,,,,,,,,,,,,,,,,,,,,,,,,1297.778413195358,None,1297.778413195358,None,1298.211381380996,None,1298.211381380996,None,v,8.731654295484077,1298.211381380996,None,t,8.966776478287102,1298.211381380996,None,8.731654295484077,8.966776478287102,9.1680853388334,False,False,True,1307.2600235448085,None,1307.2600235448085,None,1307.2600235448085,None,1307.2600235448085,None,1307.2600235448085,None,1307.2600235448085,None,1307.2600235448085,None,1307.2600235448085,None,1308.2751878131553,None,1308.2751878131553,None,1309.2584058817115,None,1309.2584058817115,None,c,,,,,,,,,,,,,,,,,,,,,,,,,,,,,,,,,,,,,,,,,,,,,,,49_50Exp,001,2021_May_17_1521,ComputerHuman,2020.1.3,60.00804608981156,
Computer.xlsx,c,Sychronize.jpg,Number8.jpg,8,Computer,,,,,0,7,7,9,0,2,2,4,,,,,,,,,,,,,,,,,,,,,,,,,,,,,1310.3082762890303,None,1310.3082762890303,None,1310.758384389856,None,1310.758384389856,None,v,7.927711021151481,1310.758384389856,None,t,8.174843622692606,1310.758384389856,None,7.927711021151481,8.174843622692606,8.25911963968433,False,False,True,1319.0062939059367,None,1319.0062939059367,None,1319.0062939059367,None,1319.0062939059367,None,1319.0062939059367,None,1319.0062939059367,None,1319.0062939059367,None,1319.0062939059367,None,1320.0054175514683,None,1320.0054175514683,None,1320.9886776414137,None,1320.9886776414137,None,c,,,,,,,,,,,,,,,,,,,,,,,,,,,,,,,,,,,,,,,,,,,,,,,49_50Exp,001,2021_May_17_1521,ComputerHuman,2020.1.3,60.00804608981156,
Computer.xlsx,c,Sychronize.jpg,Number9.jpg,9,Computer,,,,,0,7,7,9,0,3,3,7,,,,,,,,,,,,,,,,,,,,,,,,,,,,,1322.0552318233435,None,1322.0552318233435,None,1322.5054031166396,None,1322.5054031166396,None,v,8.367624604646153,1322.5054031166396,None,t,9.990633079493819,1322.5054031166396,None,8.367624604646153,9.990633079493819,9.333534174550445,False,False,False,1332.585677121759,None,1332.585677121759,None,1332.585677121759,None,1332.585677121759,None,1332.585677121759,None,1332.585677121759,None,1332.585677121759,None,1332.585677121759,None,1333.5688217330776,None,1333.5688217330776,None,1334.5518790938781,None,1334.5518790938781,None,c,,,,,,,,,,,,,,,,,,,,,,,,,,,,,,,,,,,,,,,,,,,,,,,49_50Exp,001,2021_May_17_1521,ComputerHuman,2020.1.3,60.00804608981156,
Computer.xlsx,c,Sychronize.jpg,Number6.jpg,6,Computer,,,,,0,7,7,9,0,4,4,1,,,,,,,,,,,,,,,,,,,,,,,,,,,,,1335.6189365701562,None,1335.6189365701562,None,1336.051762011381,None,1336.051762011381,None,v,5.9202937647960425,1336.051762011381,None,t,6.51992198777225,1336.051762011381,None,5.9202937647960425,6.51992198777225,6.355929112854282,False,False,True,1342.6502235794528,None,1342.6502235794528,None,1342.6502235794528,None,1342.6502235794528,None,1342.6502235794528,None,1342.6502235794528,None,1342.6502235794528,None,1342.6502235794528,None,1343.666057623835,None,1343.666057623835,None,1344.6494248522836,None,1344.6494248522836,None,c,,,,,,,,,,,,,,,,,,,,,,,,,,,,,,,,,,,,,,,,,,,,,,,49_50Exp,001,2021_May_17_1521,ComputerHuman,2020.1.3,60.00804608981156,
Computer.xlsx,c,Sychronize.jpg,Number7.jpg,7,Computer,,,,,0,7,7,9,0,5,5,2,,,,,,,,,,,,,,,,,,,,,,,,,,,,,1345.699057245322,None,1345.699057245322,None,1346.1492529174388,None,1346.1492529174388,None,v,6.797830926459028,1346.1492529174388,None,t,6.7648977051831025,1346.1492529174388,None,6.797830926459028,6.7648977051831025,6.788930477265491,False,True,True,1352.997506944756,None,1352.997506944756,None,1352.997506944756,None,1352.997506944756,None,1352.997506944756,None,1352.997506944756,None,1352.997506944756,None,1352.997506944756,None,1354.0135854188989,None,1354.0135854188989,None,1355.0133650471857,None,1355.0133650471857,None,c,,,,,,,,,,,,,,,,,,,,,,,,,,,,,,,,,,,,,,,,,,,,,,,49_50Exp,001,2021_May_17_1521,ComputerHuman,2020.1.3,60.00804608981156,
Computer.xlsx,c,Sychronize.jpg,Number10.jpg,10,Computer,,,,,0,7,7,9,0,6,6,8,,,,,,,,,,,,,,,,,,,,,,,,,,,,,1356.0640457295362,None,1356.0640457295362,None,1356.5133583109323,None,1356.5133583109323,None,v,9.02072071494058,1356.5133583109323,None,t,9.97971393377884,1356.5133583109323,None,9.02072071494058,9.97971393377884,10.195364610072541,False,False,True,1366.5612469767052,None,1366.5612469767052,None,1366.5612469767052,None,1366.5612469767052,None,1366.5612469767052,None,1366.5612469767052,None,1366.5612469767052,None,1366.5612469767052,None,1367.5601056629434,None,1367.5601056629434,None,1368.5431829117292,None,1368.5431829117292,None,c,,,,,,,,,,,,,,,,,,,,,,,,,,,,,,,,,,,,,,,,,,,,,,,49_50Exp,001,2021_May_17_1521,ComputerHuman,2020.1.3,60.00804608981156,
Computer.xlsx,c,Sychronize.jpg,Number6.jpg,6,Computer,,,,,0,7,7,9,0,7,7,0,,,,,,,,,,,,,,,,,,,,,,,,,,,,,1369.5930302233232,None,1369.5930302233232,None,1370.0430821887053,None,1370.0430821887053,None,v,5.794001847657455,1370.0430821887053,None,t,5.605137836571885,1370.0430821887053,None,5.794001847657455,5.605137836571885,6.045331905176328,False,True,False,1375.9082034733406,None,1375.9082034733406,None,1375.9082034733406,None,1375.9082034733406,None,1375.9082034733406,None,1375.9082034733406,None,1375.9082034733406,None,1375.9082034733406,None,1376.9244121817123,None,1376.9244121817123,None,1377.9073899905693,None,1377.9073899905693,None,c,,,,,,,,,,,,,,,,,,,,,,,,,,,,,,,,,,,,,,,,,,,,,,,49_50Exp,001,2021_May_17_1521,ComputerHuman,2020.1.3,60.00804608981156,
Computer.xlsx,c,Sychronize.jpg,Number7.jpg,7,Computer,,,,,0,7,7,9,0,8,8,3,,,,,,,,,,,,,,,,,,,,,,,,,,,,,1378.9415565877348,None,1378.9415565877348,None,1379.4073874243772,None,1379.4073874243772,None,v,6.392855080738627,1379.4073874243772,None,t,7.419916213840224,1379.4073874243772,None,6.392855080738627,7.419916213840224,7.368523367986679,False,False,True,1386.890325778037,None,1386.890325778037,None,1386.890325778037,None,1386.890325778037,None,1386.890325778037,None,1386.890325778037,None,1386.890325778037,None,1386.890325778037,None,1387.9048023070068,None,1387.9048023070068,None,1388.9046714312294,None,1388.9046714312294,None,c,,,,,,,,,,,,,,,,,,,,,,,,,,,,,,,,,,,,,,,,,,,,,,,49_50Exp,001,2021_May_17_1521,ComputerHuman,2020.1.3,60.00804608981156,
Computer.xlsx,c,Sychronize.jpg,Number8.jpg,8,Computer,,,,,0,7,7,9,0,9,9,5,,,,,,,,,,,,,,,,,,,,,,,,,,,,,1389.9543047865895,None,1389.9543047865895,None,1390.404449455647,None,1390.404449455647,None,v,7.762671533876528,1390.404449455647,None,t,7.617871279824612,1390.404449455647,None,7.762671533876528,7.617871279824612,8.012295822772163,False,True,False,1398.2364816228596,None,1398.2364816228596,None,1398.2364816228596,None,1398.2364816228596,None,1398.2364816228596,None,1398.2364816228596,None,1398.2364816228596,None,1398.2364816228596,None,1399.2352501716146,None,1399.2352501716146,None,1400.2183947829321,None,1400.2183947829321,None,c,,,,,,,,,,,,,,,,,,,,,,,,,,,,,,,,,,,,,,,,,,,,,,,49_50Exp,001,2021_May_17_1521,ComputerHuman,2020.1.3,60.00804608981156,
Computer.xlsx,c,,,,,,,,,0,7,7,9,,,,,,,,,,,,,,,,,,,,,,,,,,,,,,,,,,,,,,,,,,,,,,,,,,,,,,,,,,,,,,,,,,,,,,,,,,,,,,,c,1401.2195024154285,None,1401.2195024154285,None,q,0,2.5751618304639123,1401.2195024154285,None,o,0,2.8343045299698133,1401.2195024154285,None,h,h,1404.1339138272829,None,1404.1339138272829,None,1406.1502524491093,None,None,None,None,None,None,None,None,,,,,,,,,,,,,,,,,,49_50Exp,001,2021_May_17_1521,ComputerHuman,2020.1.3,60.00804608981156,
Human.xlsx,h,Sychronize.jpg,Number6.jpg,6,Human,,,,,0,8,8,2,0,0,0,1,,,,,,,,,,,,,,,,,,,,,,,,,1411.1528750970342,None,1411.1528750970342,None,1414.2151934587778,None,1414.2151934587778,None,1414.6484285283536,None,1414.6484285283536,None,v,5.940779352421487,1414.6484285283536,None,t,6.3278566525305,1414.6484285283536,None,5.940779352421487,6.3278566525305,5.851781835436233,False,False,False,1421.0299897993877,None,1421.0299897993877,None,1421.0299897993877,None,1421.0299897993877,None,1421.0299897993877,None,1421.0299897993877,None,1421.0299897993877,None,1421.0299897993877,None,1422.0647854342956,None,1422.0647854342956,None,1423.0625695277563,None,1423.0625695277563,None,h,,,,,,,,,,,,,,,,,,,,,,,,,,,,,,,,,,,,,,,,,,,,,,,49_50Exp,001,2021_May_17_1521,ComputerHuman,2020.1.3,60.00804608981156,
Human.xlsx,h,Sychronize.jpg,Number9.jpg,9,Human,,,,,0,8,8,2,0,1,1,6,,,,,,,,,,,,,,,,,,,,,,,,,,,,,1424.112340174373,None,1424.112340174373,None,1424.5624296703086,None,1424.5624296703086,None,v,8.085732294881382,1424.5624296703086,None,t,7.752908457526246,1424.5624296703086,None,8.085732294881382,7.752908457526246,9.158230351664574,False,False,False,1432.727141326593,None,1432.727141326593,None,1432.727141326593,None,1432.727141326593,None,1432.727141326593,None,1432.727141326593,None,1432.727141326593,None,1432.727141326593,None,1433.7118702405164,None,1433.7118702405164,None,1434.709590179184,None,1434.709590179184,None,h,,,,,,,,,,,,,,,,,,,,,,,,,,,,,,,,,,,,,,,,,,,,,,,49_50Exp,001,2021_May_17_1521,ComputerHuman,2020.1.3,60.00804608981156,
Human.xlsx,h,Sychronize.jpg,Number10.jpg,10,Human,,,,,0,8,8,2,0,2,2,8,,,,,,,,,,,,,,,,,,,,,,,,,,,,,1435.7762903132675,None,1435.7762903132675,None,1436.209587612993,None,1436.209587612993,None,v,9.37737773700428,1436.209587612993,None,t,9.66862702328217,1436.209587612993,None,9.37737773700428,9.66862702328217,9.63791183850369,True,False,False,1445.957165448795,None,1445.957165448795,None,1445.957165448795,None,1445.957165448795,None,1445.957165448795,None,1445.957165448795,None,1445.957165448795,None,1445.957165448795,None,1446.9589380457169,None,1446.9589380457169,None,1447.9395729215453,None,1447.9395729215453,None,h,,,,,,,,,,,,,,,,,,,,,,,,,,,,,,,,,,,,,,,,,,,,,,,49_50Exp,001,2021_May_17_1521,ComputerHuman,2020.1.3,60.00804608981156,
Human.xlsx,h,Sychronize.jpg,Number9.jpg,9,Human,,,,,0,8,8,2,0,3,3,7,,,,,,,,,,,,,,,,,,,,,,,,,,,,,1449.0061777857613,None,1449.0061777857613,None,1449.4395604113602,None,1449.4395604113602,None,v,8.28637512590376,1449.4395604113602,None,t,7.621902125448287,1449.4395604113602,None,8.28637512590376,7.621902125448287,8.856401580106171,False,False,False,1457.8043339770197,None,1457.8043339770197,None,1457.8043339770197,None,1457.8043339770197,None,1457.8043339770197,None,1457.8043339770197,None,1457.8043339770197,None,1457.8043339770197,None,1458.8059561309524,None,1458.8059561309524,None,1459.8031740583679,None,1459.8031740583679,None,h,,,,,,,,,,,,,,,,,,,,,,,,,,,,,,,,,,,,,,,,,,,,,,,49_50Exp,001,2021_May_17_1521,ComputerHuman,2020.1.3,60.00804608981156,
Human.xlsx,h,Sychronize.jpg,Number8.jpg,8,Human,,,,,0,8,8,2,0,4,4,5,,,,,,,,,,,,,,,,,,,,,,,,,,,,,1460.8528882487667,None,1460.8528882487667,None,1461.3030447864608,None,1461.3030447864608,None,v,7.381899046017679,1461.3030447864608,None,t,7.032939636756055,1461.3030447864608,None,7.381899046017679,7.032939636756055,8.028844426376986,False,False,False,1468.7675710353947,None,1468.7675710353947,None,1468.7675710353947,None,1468.7675710353947,None,1468.7675710353947,None,1468.7675710353947,None,1468.7675710353947,None,1468.7675710353947,None,1469.7358310932618,None,1469.7358310932618,None,1470.733735156185,None,1470.733735156185,None,h,,,,,,,,,,,,,,,,,,,,,,,,,,,,,,,,,,,,,,,,,,,,,,,49_50Exp,001,2021_May_17_1521,ComputerHuman,2020.1.3,60.00804608981156,
Human.xlsx,h,Sychronize.jpg,Number8.jpg,8,Human,,,,,0,8,8,2,0,5,5,4,,,,,,,,,,,,,,,,,,,,,,,,,,,,,1471.800828238374,None,1471.800828238374,None,1472.2493488288542,None,1472.2493488288542,None,v,7.246690895793108,1472.2493488288542,None,t,7.3780718918606,1472.2493488288542,None,7.246690895793108,7.3780718918606,8.221812233507011,True,False,False,1479.7147700371456,None,1479.7147700371456,None,1479.7147700371456,None,1479.7147700371456,None,1479.7147700371456,None,1479.7147700371456,None,1479.7147700371456,None,1479.7147700371456,None,1480.6997382484456,None,1480.6997382484456,None,1481.6809787455172,None,1481.6809787455172,None,h,,,,,,,,,,,,,,,,,,,,,,,,,,,,,,,,,,,,,,,,,,,,,,,49_50Exp,001,2021_May_17_1521,ComputerHuman,2020.1.3,60.00804608981156,
Human.xlsx,h,Sychronize.jpg,Number7.jpg,7,Human,,,,,0,8,8,2,0,6,6,3,,,,,,,,,,,,,,,,,,,,,,,,,,,,,1482.7314143565595,None,1482.7314143565595,None,1483.1811234145748,None,1483.1811234145748,None,v,6.441994444195188,1483.1811234145748,None,t,6.281003445112219,1483.1811234145748,None,6.441994444195188,6.281003445112219,6.86573665176928,True,False,False,1489.7121412945157,None,1489.7121412945157,None,1489.7121412945157,None,1489.7121412945157,None,1489.7121412945157,None,1489.7121412945157,None,1489.7121412945157,None,1489.7121412945157,None,1490.6981096790337,None,1490.6981096790337,None,1491.6950084363557,None,1491.6950084363557,None,h,,,,,,,,,,,,,,,,,,,,,,,,,,,,,,,,,,,,,,,,,,,,,,,49_50Exp,001,2021_May_17_1521,ComputerHuman,2020.1.3,60.00804608981156,
Human.xlsx,h,Sychronize.jpg,Number6.jpg,6,Human,,,,,0,8,8,2,0,7,7,0,,,,,,,,,,,,,,,,,,,,,,,,,,,,,1492.745322153292,None,1492.745322153292,None,1493.1951915982886,None,1493.1951915982886,None,v,5.447147998690525,1493.1951915982886,None,t,5.1060937429838305,1493.1951915982886,None,5.447147998690525,5.1060937429838305,6.323265785198117,False,False,False,1498.7116784176865,None,1498.7116784176865,None,1498.7116784176865,None,1498.7116784176865,None,1498.7116784176865,None,1498.7116784176865,None,1498.7116784176865,None,1498.7116784176865,None,1499.6950158141567,None,1499.6950158141567,None,1500.6926722395797,None,1500.6926722395797,None,h,,,,,,,,,,,,,,,,,,,,,,,,,,,,,,,,,,,,,,,,,,,,,,,49_50Exp,001,2021_May_17_1521,ComputerHuman,2020.1.3,60.00804608981156,
Human.xlsx,h,Sychronize.jpg,Number10.jpg,10,Human,,,,,0,8,8,2,0,8,8,9,,,,,,,,,,,,,,,,,,,,,,,,,,,,,1501.7425166642074,None,1501.7425166642074,None,1502.1925400807072,None,1502.1925400807072,None,v,9.564656483163162,1502.1925400807072,None,t,9.043719245796638,1502.1925400807072,None,9.564656483163162,9.043719245796638,9.443663014465496,False,False,False,1511.8397615366353,None,1511.8397615366353,None,1511.8397615366353,None,1511.8397615366353,None,1511.8397615366353,None,1511.8397615366353,None,1511.8397615366353,None,1511.8397615366353,None,1512.8249161176086,None,1512.8249161176086,None,1513.8060315128346,None,1513.8060315128346,None,h,,,,,,,,,,,,,,,,,,,,,,,,,,,,,,,,,,,,,,,,,,,,,,,49_50Exp,001,2021_May_17_1521,ComputerHuman,2020.1.3,60.00804608981156,
Human.xlsx,h,Sychronize.jpg,Number7.jpg,7,Human,,,,,0,8,8,2,0,9,9,2,,,,,,,,,,,,,,,,,,,,,,,,,,,,,1514.873037986053,None,1514.873037986053,None,1515.3062698478893,None,1515.3062698478893,None,v,6.210079038704862,1515.3062698478893,None,t,5.889067381778659,1515.3062698478893,None,6.210079038704862,5.889067381778659,7.284451909220156,False,False,False,1521.5878648001903,None,1521.5878648001903,None,1521.5878648001903,None,1521.5878648001903,None,1521.5878648001903,None,1521.5878648001903,None,1521.5878648001903,None,1521.5878648001903,None,1522.589381098715,None,1522.589381098715,None,1523.586816190104,None,1523.586816190104,None,h,,,,,,,,,,,,,,,,,,,,,,,,,,,,,,,,,,,,,,,,,,,,,,,49_50Exp,001,2021_May_17_1521,ComputerHuman,2020.1.3,60.00804608981156,
Human.xlsx,h,,,,,,,,,0,8,8,2,,,,,,,,,,,,,,,,,,,,,,,,,,,,,,,,,,,,,,,,,,,,,,,,,,,,,,,,,,,,,,,,,,,,,,,,,,,,,,,h,1524.5877085832694,None,1524.5877085832694,None,q,0,1.5962129425879539,1524.5877085832694,None,l,0,2.75129047365499,1524.5877085832694,None,h,c,1527.437049392775,None,1527.437049392775,None,1529.4353560270224,None,None,None,None,None,None,None,None,,,,,,,,,,,,,,,,,,49_50Exp,001,2021_May_17_1521,ComputerHuman,2020.1.3,60.00804608981156,
Computer.xlsx,c,Sychronize.jpg,Number6.jpg,6,Computer,,,,,0,9,9,7,0,0,0,0,,,,,,,,,,,,,,,,,,,,,,,,,1534.4199441211754,None,1534.4199441211754,None,1537.5175642991412,None,1537.5175642991412,None,1537.9335102936361,None,1537.9335102936361,None,v,5.365036921082719,1537.9335102936361,None,t,5.847932611805845,1537.9335102936361,None,5.365036921082719,5.847932611805845,5.556738517747172,False,True,True,1543.8492064052148,None,1543.8492064052148,None,1543.8492064052148,None,1543.8492064052148,None,1543.8492064052148,None,1543.8492064052148,None,1543.8492064052148,None,1543.8492064052148,None,1544.8813842038066,None,1544.8813842038066,None,1545.8644505462785,None,1545.8644505462785,None,c,,,,,,,,,,,,,,,,,,,,,,,,,,,,,,,,,,,,,,,,,,,,,,,49_50Exp,001,2021_May_17_1521,ComputerHuman,2020.1.3,60.00804608981156,
Computer.xlsx,c,Sychronize.jpg,Number9.jpg,9,Computer,,,,,0,9,9,7,0,1,1,6,,,,,,,,,,,,,,,,,,,,,,,,,,,,,1546.8814692089077,None,1546.8814692089077,None,1547.347734052723,None,1547.347734052723,None,v,7.917690684083027,1547.347734052723,None,t,8.140860508234255,1547.347734052723,None,7.917690684083027,8.140860508234255,9.264137216522744,False,False,False,1555.5624742578898,None,1555.5624742578898,None,1555.5624742578898,None,1555.5624742578898,None,1555.5624742578898,None,1555.5624742578898,None,1555.5624742578898,None,1555.5624742578898,None,1556.5783349265107,None,1556.5783349265107,None,1557.561450988946,None,1557.561450988946,None,c,,,,,,,,,,,,,,,,,,,,,,,,,,,,,,,,,,,,,,,,,,,,,,,49_50Exp,001,2021_May_17_1521,ComputerHuman,2020.1.3,60.00804608981156,
Computer.xlsx,c,Sychronize.jpg,Number9.jpg,9,Computer,,,,,0,9,9,7,0,2,2,7,,,,,,,,,,,,,,,,,,,,,,,,,,,,,1558.612303285367,None,1558.612303285367,None,1559.061523483862,None,1559.061523483862,None,v,8.502812546111272,1559.061523483862,None,t,7.413873473918102,1559.061523483862,None,8.502812546111272,7.413873473918102,8.500781834053585,False,True,False,1567.643623655155,None,1567.643623655155,None,1567.643623655155,None,1567.643623655155,None,1567.643623655155,None,1567.643623655155,None,1567.643623655155,None,1567.643623655155,None,1568.6416881050595,None,1568.6416881050595,None,1569.6250485972555,None,1569.6250485972555,None,c,,,,,,,,,,,,,,,,,,,,,,,,,,,,,,,,,,,,,,,,,,,,,,,49_50Exp,001,2021_May_17_1521,ComputerHuman,2020.1.3,60.00804608981156,
Computer.xlsx,c,Sychronize.jpg,Number10.jpg,10,Computer,,,,,0,9,9,7,0,3,3,8,,,,,,,,,,,,,,,,,,,,,,,,,,,,,1570.691818980837,None,1570.691818980837,None,1571.125206738819,None,1571.125206738819,None,v,9.681942992050608,1571.125206738819,None,t,9.461667190597836,1571.125206738819,None,9.681942992050608,9.461667190597836,10.300807597768427,False,False,False,1580.8891401974684,None,1580.8891401974684,None,1580.8891401974684,None,1580.8891401974684,None,1580.8891401974684,None,1580.8891401974684,None,1580.8891401974684,None,1580.8891401974684,None,1581.88853329313,None,1581.88853329313,None,1582.871663790393,None,1582.871663790393,None,c,,,,,,,,,,,,,,,,,,,,,,,,,,,,,,,,,,,,,,,,,,,,,,,49_50Exp,001,2021_May_17_1521,ComputerHuman,2020.1.3,60.00804608981156,
Computer.xlsx,c,Sychronize.jpg,Number8.jpg,8,Computer,,,,,0,9,9,7,0,4,4,5,,,,,,,,,,,,,,,,,,,,,,,,,,,,,1583.9383876617508,None,1583.9383876617508,None,1584.3715909747038,None,1584.3715909747038,None,v,7.854602464826712,1584.3715909747038,None,t,8.077753684088748,1584.3715909747038,None,7.854602464826712,8.077753684088748,7.838041085213527,False,True,True,1592.5197022576072,None,1592.5197022576072,None,1592.5197022576072,None,1592.5197022576072,None,1592.5197022576072,None,1592.5197022576072,None,1592.5197022576072,None,1592.5197022576072,None,1593.5355478498518,None,1593.5355478498518,None,1594.5186190039326,None,1594.5186190039326,None,c,,,,,,,,,,,,,,,,,,,,,,,,,,,,,,,,,,,,,,,,,,,,,,,49_50Exp,001,2021_May_17_1521,ComputerHuman,2020.1.3,60.00804608981156,
Computer.xlsx,c,Sychronize.jpg,Number7.jpg,7,Computer,,,,,0,9,9,7,0,5,5,2,,,,,,,,,,,,,,,,,,,,,,,,,,,,,1595.55261815709,None,1595.55261815709,None,1596.0184406536086,None,1596.0184406536086,None,v,6.6390471730192075,1596.0184406536086,None,t,5.870026239310391,1596.0184406536086,None,6.6390471730192075,5.870026239310391,7.183234388883126,False,False,False,1602.718217394931,None,1602.718217394931,None,1602.718217394931,None,1602.718217394931,None,1602.718217394931,None,1602.718217394931,None,1602.718217394931,None,1602.718217394931,None,1603.732987111302,None,1603.732987111302,None,1604.7326871876462,None,1604.7326871876462,None,c,,,,,,,,,,,,,,,,,,,,,,,,,,,,,,,,,,,,,,,,,,,,,,,49_50Exp,001,2021_May_17_1521,ComputerHuman,2020.1.3,60.00804608981156,
Computer.xlsx,c,Sychronize.jpg,Number6.jpg,6,Computer,,,,,0,9,9,7,0,6,6,1,,,,,,,,,,,,,,,,,,,,,,,,,,,,,1605.7825765206294,None,1605.7825765206294,None,1606.2325992955807,None,1606.2325992955807,None,v,5.283868277379952,1606.2325992955807,None,t,5.283033302753211,1606.2325992955807,None,5.283868277379952,5.283033302753211,5.64089916651997,False,False,False,1611.598220025277,None,1611.598220025277,None,1611.598220025277,None,1611.598220025277,None,1611.598220025277,None,1611.598220025277,None,1611.598220025277,None,1611.598220025277,None,1612.6306573300058,None,1612.6306573300058,None,1613.5970925047955,None,1613.5970925047955,None,c,,,,,,,,,,,,,,,,,,,,,,,,,,,,,,,,,,,,,,,,,,,,,,,49_50Exp,001,2021_May_17_1521,ComputerHuman,2020.1.3,60.00804608981156,
Computer.xlsx,c,Sychronize.jpg,Number7.jpg,7,Computer,,,,,0,9,9,7,0,7,7,3,,,,,,,,,,,,,,,,,,,,,,,,,,,,,1614.6637015390738,None,1614.6637015390738,None,1615.0973045363858,None,1615.0973045363858,None,v,6.034315757058721,1615.0973045363858,None,t,6.477955130138071,1615.0973045363858,None,6.034315757058721,6.477955130138071,7.361051916049204,False,False,False,1621.661723646815,None,1621.661723646815,None,1621.661723646815,None,1621.661723646815,None,1621.661723646815,None,1621.661723646815,None,1621.661723646815,None,1621.661723646815,None,1622.6615282954713,None,1622.6615282954713,None,1623.6446097143184,None,1623.6446097143184,None,c,,,,,,,,,,,,,,,,,,,,,,,,,,,,,,,,,,,,,,,,,,,,,,,49_50Exp,001,2021_May_17_1521,ComputerHuman,2020.1.3,60.00804608981156,
Computer.xlsx,c,Sychronize.jpg,Number10.jpg,10,Computer,,,,,0,9,9,7,0,8,8,9,,,,,,,,,,,,,,,,,,,,,,,,,,,,,1624.6947126827613,None,1624.6947126827613,None,1625.1447386654522,None,1625.1447386654522,None,v,9.725707787750252,1625.1447386654522,None,t,9.692663257908862,1625.1447386654522,None,9.725707787750252,9.692663257908862,9.409860991408943,False,False,True,1634.9582005863745,None,1634.9582005863745,None,1634.9582005863745,None,1634.9582005863745,None,1634.9582005863745,None,1634.9582005863745,None,1634.9582005863745,None,1634.9582005863745,None,1635.9414019746841,None,1635.9414019746841,None,1636.9244734495392,None,1636.9244734495392,None,c,,,,,,,,,,,,,,,,,,,,,,,,,,,,,,,,,,,,,,,,,,,,,,,49_50Exp,001,2021_May_17_1521,ComputerHuman,2020.1.3,60.00804608981156,
Computer.xlsx,c,Sychronize.jpg,Number8.jpg,8,Computer,,,,,0,9,9,7,0,9,9,4,,,,,,,,,,,,,,,,,,,,,,,,,,,,,1637.9916560276638,None,1637.9916560276638,None,1638.4411350907471,None,1638.4411350907471,None,v,6.856408422241657,1638.4411350907471,None,t,7.06394917657326,1638.4411350907471,None,6.856408422241657,7.06394917657326,7.871180853885915,False,False,False,1645.5737834647439,None,1645.5737834647439,None,1645.5737834647439,None,1645.5737834647439,None,1645.5737834647439,None,1645.5737834647439,None,1645.5737834647439,None,1645.5737834647439,None,1646.5886426770517,None,1646.5886426770517,None,1647.5551538752702,None,1647.5551538752702,None,c,,,,,,,,,,,,,,,,,,,,,,,,,,,,,,,,,,,,,,,,,,,,,,,49_50Exp,001,2021_May_17_1521,ComputerHuman,2020.1.3,60.00804608981156,
Computer.xlsx,c,,,,,,,,,0,9,9,7,,,,,,,,,,,,,,,,,,,,,,,,,,,,,,,,,,,,,,,,,,,,,,,,,,,,,,,,,,,,,,,,,,,,,,,,,,,,,,,c,1648.5559221289127,None,1648.5559221289127,None,q,0,1.5092110243595016,1648.5559221289127,None,l,1,6.288358471319043,1648.5559221289127,None,h,c,1654.9368655892936,None,1654.9368655892936,None,None,None,1656.9359834608945,None,1656.9359834608945,None,"['space', 'space']",1657.919081239214,None,"[346.31928493068153, 349.2628575827757]",,,,,,,,,,,,,,,,,49_50Exp,001,2021_May_17_1521,ComputerHuman,2020.1.3,60.00804608981156,
Computer.xlsx,c,Sychronize.jpg,Number7.jpg,7,Computer,,,,,1,0,10,3,0,0,0,2,,,,,,,,,,,,,,,,,,,,,,,,,2007.2498264612855,None,2007.2498264612855,None,2010.3121480307686,None,2010.3121480307686,None,2010.76236262855,None,2010.76236262855,None,v,5.986680181943484,2010.76236262855,None,t,6.59799163421485,2010.76236262855,None,5.986680181943484,6.59799163421485,7.325374206362843,False,False,False,2017.4436560533254,None,2017.4436560533254,None,2017.4436560533254,None,2017.4436560533254,None,2017.4436560533254,None,2017.4436560533254,None,2017.4436560533254,None,2017.4436560533254,None,2018.443362865923,None,2018.443362865923,None,2019.4263733937246,None,2019.4263733937246,None,c,,,,,,,,,,,,,,,,,,,,,,,,,,,,,,,,,,,,,,,,,,,,,,,49_50Exp,001,2021_May_17_1521,ComputerHuman,2020.1.3,60.00804608981156,
Computer.xlsx,c,Sychronize.jpg,Number10.jpg,10,Computer,,,,,1,0,10,3,0,1,1,8,,,,,,,,,,,,,,,,,,,,,,,,,,,,,2020.493162061422,None,2020.493162061422,None,2020.9268083632192,None,2020.9268083632192,None,v,8.489177728022696,2020.9268083632192,None,t,8.952777260975381,2020.9268083632192,None,8.489177728022696,8.952777260975381,9.322881123712135,False,False,False,2029.9587183155522,None,2029.9587183155522,None,2029.9587183155522,None,2029.9587183155522,None,2029.9587183155522,None,2029.9587183155522,None,2029.9587183155522,None,2029.9587183155522,None,2030.973534223374,None,2030.973534223374,None,2031.940030345217,None,2031.940030345217,None,c,,,,,,,,,,,,,,,,,,,,,,,,,,,,,,,,,,,,,,,,,,,,,,,49_50Exp,001,2021_May_17_1521,ComputerHuman,2020.1.3,60.00804608981156,
Computer.xlsx,c,Sychronize.jpg,Number9.jpg,9,Computer,,,,,1,0,10,3,0,2,2,6,,,,,,,,,,,,,,,,,,,,,,,,,,,,,2033.006865204365,None,2033.006865204365,None,2033.4401191996053,None,2033.4401191996053,None,v,7.298847138375095,2033.4401191996053,None,t,8.421807497129521,2033.4401191996053,None,7.298847138375095,8.421807497129521,8.488460733996412,False,False,True,2041.9390080385951,None,2041.9390080385951,None,2041.9390080385951,None,2041.9390080385951,None,2041.9390080385951,None,2041.9390080385951,None,2041.9390080385951,None,2041.9390080385951,None,2042.9538669301287,None,2042.9538669301287,None,2043.936952198264,None,2043.936952198264,None,c,,,,,,,,,,,,,,,,,,,,,,,,,,,,,,,,,,,,,,,,,,,,,,,49_50Exp,001,2021_May_17_1521,ComputerHuman,2020.1.3,60.00804608981156,
Computer.xlsx,c,Sychronize.jpg,Number7.jpg,7,Computer,,,,,1,0,10,3,0,3,3,3,,,,,,,,,,,,,,,,,,,,,,,,,,,,,2044.9875838021976,None,2044.9875838021976,None,2045.4371433795463,None,2045.4371433795463,None,v,5.748874404162962,2045.4371433795463,None,t,7.29984955701093,2045.4371433795463,None,5.748874404162962,7.29984955701093,6.904721277730445,False,False,False,2052.817980984519,None,2052.817980984519,None,2052.817980984519,None,2052.817980984519,None,2052.817980984519,None,2052.817980984519,None,2052.817980984519,None,2052.817980984519,None,2053.8175841871266,None,2053.8175841871266,None,2054.817443367357,None,2054.817443367357,None,c,,,,,,,,,,,,,,,,,,,,,,,,,,,,,,,,,,,,,,,,,,,,,,,49_50Exp,001,2021_May_17_1521,ComputerHuman,2020.1.3,60.00804608981156,
Computer.xlsx,c,Sychronize.jpg,Number9.jpg,9,Computer,,,,,1,0,10,3,0,4,4,7,,,,,,,,,,,,,,,,,,,,,,,,,,,,,2055.8670722318807,None,2055.8670722318807,None,2056.3174834641027,None,2056.3174834641027,None,v,7.2475617971040265,2056.3174834641027,None,t,8.2388251974362,2056.3174834641027,None,7.2475617971040265,8.2388251974362,9.249446919325736,False,False,False,2064.648346730992,None,2064.648346730992,None,2064.648346730992,None,2064.648346730992,None,2064.648346730992,None,2064.648346730992,None,2064.648346730992,None,2064.648346730992,None,2065.631241780167,None,2065.631241780167,None,2066.614290159296,None,2066.614290159296,None,c,,,,,,,,,,,,,,,,,,,,,,,,,,,,,,,,,,,,,,,,,,,,,,,49_50Exp,001,2021_May_17_1521,ComputerHuman,2020.1.3,60.00804608981156,
Computer.xlsx,c,Sychronize.jpg,Number6.jpg,6,Computer,,,,,1,0,10,3,0,5,5,0,,,,,,,,,,,,,,,,,,,,,,,,,,,,,2067.664757206187,None,2067.664757206187,None,2068.1145782143153,None,2068.1145782143153,None,v,6.533417910735807,2068.1145782143153,None,t,5.737033033303305,2068.1145782143153,None,6.533417910735807,5.737033033303305,5.788431637287058,False,False,True,2074.7291310874875,None,2074.7291310874875,None,2074.7291310874875,None,2074.7291310874875,None,2074.7291310874875,None,2074.7291310874875,None,2074.7291310874875,None,2074.7291310874875,None,2075.7454004221386,None,2075.7454004221386,None,2076.7285046159373,None,2076.7285046159373,None,c,,,,,,,,,,,,,,,,,,,,,,,,,,,,,,,,,,,,,,,,,,,,,,,49_50Exp,001,2021_May_17_1521,ComputerHuman,2020.1.3,60.00804608981156,
Computer.xlsx,c,Sychronize.jpg,Number10.jpg,10,Computer,,,,,1,0,10,3,0,6,6,9,,,,,,,,,,,,,,,,,,,,,,,,,,,,,2077.778634529393,None,2077.778634529393,None,2078.228550807388,None,2078.228550807388,None,v,8.34240311022404,2078.228550807388,None,t,9.229795410366023,2078.228550807388,None,8.34240311022404,9.229795410366023,10.347597992232107,False,False,False,2087.510369980689,None,2087.510369980689,None,2087.510369980689,None,2087.510369980689,None,2087.510369980689,None,2087.510369980689,None,2087.510369980689,None,2087.510369980689,None,2088.5421448871834,None,2088.5421448871834,None,2089.5419091183207,None,2089.5419091183207,None,c,,,,,,,,,,,,,,,,,,,,,,,,,,,,,,,,,,,,,,,,,,,,,,,49_50Exp,001,2021_May_17_1521,ComputerHuman,2020.1.3,60.00804608981156,
Computer.xlsx,c,Sychronize.jpg,Number8.jpg,8,Computer,,,,,1,0,10,3,0,7,7,5,,,,,,,,,,,,,,,,,,,,,,,,,,,,,2090.5753465962675,None,2090.5753465962675,None,2091.0253446716238,None,2091.0253446716238,None,v,6.880624290287415,2091.0253446716238,None,t,6.751900906507217,2091.0253446716238,None,6.880624290287415,6.751900906507217,7.835588366047274,False,False,False,2097.989733308527,None,2097.989733308527,None,2097.989733308527,None,2097.989733308527,None,2097.989733308527,None,2097.989733308527,None,2097.989733308527,None,2097.989733308527,None,2098.97276661128,None,2098.97276661128,None,2099.9559397714806,None,2099.9559397714806,None,c,,,,,,,,,,,,,,,,,,,,,,,,,,,,,,,,,,,,,,,,,,,,,,,49_50Exp,001,2021_May_17_1521,ComputerHuman,2020.1.3,60.00804608981156,
Computer.xlsx,c,Sychronize.jpg,Number8.jpg,8,Computer,,,,,1,0,10,3,0,8,8,4,,,,,,,,,,,,,,,,,,,,,,,,,,,,,2101.00622301489,None,2101.00622301489,None,2101.4560488346283,None,2101.4560488346283,None,v,7.676909727791099,2101.4560488346283,None,t,7.70789168104784,2101.4560488346283,None,7.676909727791099,7.70789168104784,8.00175231863307,False,False,True,2109.2535278720493,None,2109.2535278720493,None,2109.2535278720493,None,2109.2535278720493,None,2109.2535278720493,None,2109.2535278720493,None,2109.2535278720493,None,2109.2535278720493,None,2110.2531628312795,None,2110.2531628312795,None,2111.2362910831257,None,2111.2362910831257,None,c,,,,,,,,,,,,,,,,,,,,,,,,,,,,,,,,,,,,,,,,,,,,,,,49_50Exp,001,2021_May_17_1521,ComputerHuman,2020.1.3,60.00804608981156,
Computer.xlsx,c,Sychronize.jpg,Number6.jpg,6,Computer,,,,,1,0,10,3,0,9,9,1,,,,,,,,,,,,,,,,,,,,,,,,,,,,,2112.286213455826,None,2112.286213455826,None,2112.736171113663,None,2112.736171113663,None,v,5.788032564972127,2112.736171113663,None,t,5.7030406163994485,2112.736171113663,None,5.788032564972127,5.7030406163994485,6.226801631414853,False,False,False,2118.6177275730884,None,2118.6177275730884,None,2118.6177275730884,None,2118.6177275730884,None,2118.6177275730884,None,2118.6177275730884,None,2118.6177275730884,None,2118.6177275730884,None,2119.600744195595,None,2119.600744195595,None,2120.583927941337,None,2120.583927941337,None,c,,,,,,,,,,,,,,,,,,,,,,,,,,,,,,,,,,,,,,,,,,,,,,,49_50Exp,001,2021_May_17_1521,ComputerHuman,2020.1.3,60.00804608981156,
Computer.xlsx,c,,,,,,,,,1,0,10,3,,,,,,,,,,,,,,,,,,,,,,,,,,,,,,,,,,,,,,,,,,,,,,,,,,,,,,,,,,,,,,,,,,,,,,,,,,,,,,,c,2121.601509883046,None,2121.601509883046,None,q,0,1.7982139305713645,2121.601509883046,None,o,0,4.241132845329048,2121.601509883046,None,h,h,2125.933257844527,None,2125.933257844527,None,2127.932074509376,None,None,None,None,None,None,None,None,,,,,,,,,,,,,,,,,,49_50Exp,001,2021_May_17_1521,ComputerHuman,2020.1.3,60.00804608981156,
Human.xlsx,h,Sychronize.jpg,Number6.jpg,6,Human,,,,,1,1,11,6,0,0,0,1,,,,,,,,,,,,,,,,,,,,,,,,,2132.917688759439,None,2132.917688759439,None,2135.9970485587623,None,2135.9970485587623,None,2136.4299853085527,None,2136.4299853085527,None,v,5.404129964779713,2136.4299853085527,None,t,5.710991961404034,2136.4299853085527,None,5.404129964779713,5.710991961404034,5.740813866555126,False,False,False,2142.2134227864995,None,2142.2134227864995,None,2142.2134227864995,None,2142.2134227864995,None,2142.2134227864995,None,2142.2134227864995,None,2142.2134227864995,None,2142.2134227864995,None,2143.229649778987,None,2143.229649778987,None,2144.2278220089433,None,2144.2278220089433,None,h,,,,,,,,,,,,,,,,,,,,,,,,,,,,,,,,,,,,,,,,,,,,,,,49_50Exp,001,2021_May_17_1521,ComputerHuman,2020.1.3,60.00804608981156,
Human.xlsx,h,Sychronize.jpg,Number8.jpg,8,Human,,,,,1,1,11,6,0,1,1,5,,,,,,,,,,,,,,,,,,,,,,,,,,,,,2145.2781456698726,None,2145.2781456698726,None,2145.7280558531625,None,2145.7280558531625,None,v,7.281161265902483,2145.7280558531625,None,t,7.2278858429617685,2145.7280558531625,None,7.281161265902483,7.2278858429617685,7.720539155998069,True,False,False,2153.092328690665,None,2153.092328690665,None,2153.092328690665,None,2153.092328690665,None,2153.092328690665,None,2153.092328690665,None,2153.092328690665,None,2153.092328690665,None,2154.0609005408246,None,2154.0609005408246,None,2155.075231438415,None,2155.075231438415,None,h,,,,,,,,,,,,,,,,,,,,,,,,,,,,,,,,,,,,,,,,,,,,,,,49_50Exp,001,2021_May_17_1521,ComputerHuman,2020.1.3,60.00804608981156,
Human.xlsx,h,Sychronize.jpg,Number8.jpg,8,Human,,,,,1,1,11,6,0,2,2,4,,,,,,,,,,,,,,,,,,,,,,,,,,,,,2156.126020863139,None,2156.126020863139,None,2156.5754181288617,None,2156.5754181288617,None,v,6.300896242453746,2156.5754181288617,None,t,7.3359221930668355,2156.5754181288617,None,6.300896242453746,7.3359221930668355,7.784420174073563,False,False,False,2164.0061851635623,None,2164.0061851635623,None,2164.0061851635623,None,2164.0061851635623,None,2164.0061851635623,None,2164.0061851635623,None,2164.0061851635623,None,2164.0061851635623,None,2164.9735470543324,None,2164.9735470543324,None,2165.972362115312,None,2165.972362115312,None,h,,,,,,,,,,,,,,,,,,,,,,,,,,,,,,,,,,,,,,,,,,,,,,,49_50Exp,001,2021_May_17_1521,ComputerHuman,2020.1.3,60.00804608981156,
Human.xlsx,h,Sychronize.jpg,Number9.jpg,9,Human,,,,,1,1,11,6,0,3,3,7,,,,,,,,,,,,,,,,,,,,,,,,,,,,,2167.0394487820217,None,2167.0394487820217,None,2167.4723290755933,None,2167.4723290755933,None,v,7.750868014344633,2167.4723290755933,None,t,8.209779435822384,2167.4723290755933,None,7.750868014344633,8.209779435822384,9.647502543778442,False,False,False,2175.753384806862,None,2175.753384806862,None,2175.753384806862,None,2175.753384806862,None,2175.753384806862,None,2175.753384806862,None,2175.753384806862,None,2175.753384806862,None,2176.7551112123333,None,2176.7551112123333,None,2177.752628101083,None,2177.752628101083,None,h,,,,,,,,,,,,,,,,,,,,,,,,,,,,,,,,,,,,,,,,,,,,,,,49_50Exp,001,2021_May_17_1521,ComputerHuman,2020.1.3,60.00804608981156,
Human.xlsx,h,Sychronize.jpg,Number7.jpg,7,Human,,,,,1,1,11,6,0,4,4,2,,,,,,,,,,,,,,,,,,,,,,,,,,,,,2178.8024936967918,None,2178.8024936967918,None,2179.252477978868,None,2179.252477978868,None,v,5.937872819538825,2179.252477978868,None,t,6.232953430036105,2179.252477978868,None,5.937872819538825,6.232953430036105,7.046316757395715,True,False,False,2185.5680056841143,None,2185.5680056841143,None,2185.5680056841143,None,2185.5680056841143,None,2185.5680056841143,None,2185.5680056841143,None,2185.5680056841143,None,2185.5680056841143,None,2186.5532619504343,None,2186.5532619504343,None,2187.550152688407,None,2187.550152688407,None,h,,,,,,,,,,,,,,,,,,,,,,,,,,,,,,,,,,,,,,,,,,,,,,,49_50Exp,001,2021_May_17_1521,ComputerHuman,2020.1.3,60.00804608981156,
Human.xlsx,h,Sychronize.jpg,Number10.jpg,10,Human,,,,,1,1,11,6,0,5,5,8,,,,,,,,,,,,,,,,,,,,,,,,,,,,,2188.6164717430215,None,2188.6164717430215,None,2189.066600694155,None,2189.066600694155,None,v,8.886603516965806,2189.066600694155,None,t,8.76974042970869,2189.066600694155,None,8.886603516965806,8.76974042970869,9.675171521253723,True,False,False,2198.032348450341,None,2198.032348450341,None,2198.032348450341,None,2198.032348450341,None,2198.032348450341,None,2198.032348450341,None,2198.032348450341,None,2198.032348450341,None,2199.0333014697867,None,2199.0333014697867,None,2200.0136418751167,None,2200.0136418751167,None,h,,,,,,,,,,,,,,,,,,,,,,,,,,,,,,,,,,,,,,,,,,,,,,,49_50Exp,001,2021_May_17_1521,ComputerHuman,2020.1.3,60.00804608981156,
Human.xlsx,h,Sychronize.jpg,Number6.jpg,6,Human,,,,,1,1,11,6,0,6,6,0,,,,,,,,,,,,,,,,,,,,,,,,,,,,,2201.0637506174903,None,2201.0637506174903,None,2201.5133939168422,None,2201.5133939168422,None,v,5.639093685244006,2201.5133939168422,None,t,6.142011124440614,2201.5133939168422,None,5.639093685244006,6.142011124440614,5.997837058153883,False,False,False,2207.744928563638,None,2207.744928563638,None,2207.744928563638,None,2207.744928563638,None,2207.744928563638,None,2207.744928563638,None,2207.744928563638,None,2207.744928563638,None,2208.7298727168914,None,2208.7298727168914,None,2209.727838689189,None,2209.727838689189,None,h,,,,,,,,,,,,,,,,,,,,,,,,,,,,,,,,,,,,,,,,,,,,,,,49_50Exp,001,2021_May_17_1521,ComputerHuman,2020.1.3,60.00804608981156,
Human.xlsx,h,Sychronize.jpg,Number9.jpg,9,Human,,,,,1,1,11,6,0,7,7,6,,,,,,,,,,,,,,,,,,,,,,,,,,,,,2210.7776327523047,None,2210.7776327523047,None,2211.227700756385,None,2211.227700756385,None,v,7.967667267583238,2211.227700756385,None,t,7.471160175270597,2211.227700756385,None,7.967667267583238,7.471160175270597,8.861143002804894,False,False,False,2219.2597605101587,None,2219.2597605101587,None,2219.2597605101587,None,2219.2597605101587,None,2219.2597605101587,None,2219.2597605101587,None,2219.2597605101587,None,2219.2597605101587,None,2220.2614644614528,None,2220.2614644614528,None,2221.2748141114885,None,2221.2748141114885,None,h,,,,,,,,,,,,,,,,,,,,,,,,,,,,,,,,,,,,,,,,,,,,,,,49_50Exp,001,2021_May_17_1521,ComputerHuman,2020.1.3,60.00804608981156,
Human.xlsx,h,Sychronize.jpg,Number10.jpg,10,Human,,,,,1,1,11,6,0,8,8,9,,,,,,,,,,,,,,,,,,,,,,,,,,,,,2222.3249873294285,None,2222.3249873294285,None,2222.7749651960253,None,2222.7749651960253,None,v,8.211398382016341,2222.7749651960253,None,t,9.286746261379449,2222.7749651960253,None,8.211398382016341,9.286746261379449,10.391400216088654,False,False,False,2232.1401272189537,None,2232.1401272189537,None,2232.1401272189537,None,2232.1401272189537,None,2232.1401272189537,None,2232.1401272189537,None,2232.1401272189537,None,2232.1401272189537,None,2233.123948021787,None,2233.123948021787,None,2234.1215377262256,None,2234.1215377262256,None,h,,,,,,,,,,,,,,,,,,,,,,,,,,,,,,,,,,,,,,,,,,,,,,,49_50Exp,001,2021_May_17_1521,ComputerHuman,2020.1.3,60.00804608981156,
Human.xlsx,h,Sychronize.jpg,Number7.jpg,7,Human,,,,,1,1,11,6,0,9,9,3,,,,,,,,,,,,,,,,,,,,,,,,,,,,,2235.17141262438,None,2235.17141262438,None,2235.621405567353,None,2235.621405567353,None,v,5.807994007942398,2235.621405567353,None,t,6.298984750405907,2235.621405567353,None,5.807994007942398,6.298984750405907,7.1851716878433844,False,False,False,2242.002854888274,None,2242.002854888274,None,2242.002854888274,None,2242.002854888274,None,2242.002854888274,None,2242.002854888274,None,2242.002854888274,None,2242.002854888274,None,2242.9882994489103,None,2242.9882994489103,None,2243.985683537239,None,2243.985683537239,None,h,,,,,,,,,,,,,,,,,,,,,,,,,,,,,,,,,,,,,,,,,,,,,,,49_50Exp,001,2021_May_17_1521,ComputerHuman,2020.1.3,60.00804608981156,
Human.xlsx,h,,,,,,,,,1,1,11,6,,,,,,,,,,,,,,,,,,,,,,,,,,,,,,,,,,,,,,,,,,,,,,,,,,,,,,,,,,,,,,,,,,,,,,,,,,,,,,,h,2244.986674087238,None,2244.986674087238,None,q,0,2.0542550666250463,2244.986674087238,None,o,1,2.9573293642897625,2244.986674087238,None,h,h,2248.0184489937324,None,2248.0184489937324,None,2250.0175216362036,None,None,None,None,None,None,None,None,,,,,,,,,,,,,,,,,,49_50Exp,001,2021_May_17_1521,ComputerHuman,2020.1.3,60.00804608981156,
