Condition,CorrectTuringReply,Sychronize,NumberImage,Number,Partner,trials.thisRepN,trials.thisTrialN,trials.thisN,trials.thisIndex,Block.thisRepN,Block.thisTrialN,Block.thisN,Block.thisIndex,trials_loop.thisRepN,trials_loop.thisTrialN,trials_loop.thisN,trials_loop.thisIndex,key_resp_Istr.keys,key_resp_Istr.rt,key_resp_Istr.started,key_resp_Istr.stopped,key_respPrLeft.keys,key_respPrLeft.rt,key_respPrRight.keys,key_respPrRight.rt,RTPrLeft,RTPrRight,CompPr,SychronizedRTsPr,SychronizedRTsLeftCPr,SychronizedRTsRightCPr,CreditLeftPr.started,CreditLeftPr.stopped,CreditRightPr.started,CreditRightPr.stopped,text_StartExp.started,text_StartExp.stopped,key_startExp.keys,key_startExp.rt,key_startExp.started,key_startExp.stopped,SychroLeft.started,SychroLeft.stopped,SychroRight.started,SychroRight.stopped,NumberLeft.started,NumberLeft.stopped,NumberRight.started,NumberRight.stopped,CrossLeft.started,CrossLeft.stopped,CrossRight.started,CrossRight.stopped,key_respLeft.keys,key_respLeft.rt,key_respLeft.started,key_respLeft.stopped,key_respRight.keys,key_respRight.rt,key_respRight.started,key_respRight.stopped,RTLeft,RTRight,Comp,SychronizedRTs,SychronizedRTsLeftC,SychronizedRTsRightC,FeedbackLeftLeft.started,FeedbackLeftLeft.stopped,FeedbackLeftRight.started,FeedbackLeftRight.stopped,FeedbackRightLeft.started,FeedbackRightLeft.stopped,FeedbackRightRight.started,FeedbackRightRight.stopped,textLeftLeft.started,textLeftLeft.stopped,textLeftRight.started,textLeftRight.stopped,textRightLeft.started,textRightLeft.stopped,textRightRight.started,textRightRight.stopped,CreditLeft.started,CreditLeft.stopped,CreditRight.started,CreditRight.stopped,BlankLeft.started,BlankLeft.stopped,BlankRight.started,BlankRight.stopped,CorrectTuringReply,TuringtextLeft.started,TuringtextLeft.stopped,TuringtextRight.started,TuringtextRight.stopped,keyTuringLeft.keys,keyTuringLeft.corr,keyTuringLeft.rt,keyTuringLeft.started,keyTuringLeft.stopped,keyTuringRight.keys,keyTuringRight.corr,keyTuringRight.rt,keyTuringRight.started,keyTuringRight.stopped,RespTuringLeft,RespTuringRight,ScoreLeft.started,ScoreLeft.stopped,ScoreRight.started,ScoreRight.stopped,BlockText.started,BlockText.stopped,text_Pause.started,text_Pause.stopped,text_LongPause.started,text_LongPause.stopped,key_respPause.keys,key_respPause.started,key_respPause.stopped,key_respPause.rt,QuestImageLeft.started,QuestImageLeft.stopped,QuestImageRight.started,QuestImageRight.stopped,respQuestLeft.keys,respQuestLeft.rt,respQuestLeft.started,respQuestLeft.stopped,respQuestRight.keys,respQuestRight.rt,respQuestRight.started,respQuestRight.stopped,RespInclusionLeft,RespInclusionRight,EndText.started,EndText.stopped,participant,session,date,expName,psychopyVersion,frameRate,
,,,,,,,,,,,,,,,,,,"['t', 'v']","[219.94227896926327, 220.64638995747612]",20.06936506673719,None,,,,,,,,,,,,,,,,,,,,,,,,,,,,,,,,,,,,,,,,,,,,,,,,,,,,,,,,,,,,,,,,,,,,,,,,,,,,,,,,,,,,,,,,,,,,,,,,,,,,,,,,,,,,,,,,,,,,,,51_52Exp,001,2021_May_18_1103,ComputerHuman,2020.1.3,59.949422007016445,
,,,,,,,,,,,,,,,,,,,,,,v,9.378078621783516,t,2.729164367671501,9.378078621783516,2.729164367671501,7,False,False,False,330.30534173118826,None,330.30534173118826,None,331.3219528797961,None,"['space', 'space']","[122.46658170008436, 128.0623651077983]",332.30502126196234,None,,,,,,,,,,,,,,,,,,,,,,,,,,,,,,,,,,,,,,,,,,,,,,,,,,,,,,,,,,,,,,,,,,,,,,,,,,,,,,,,,,,,,,,,,,,,,,,,,,51_52Exp,001,2021_May_18_1103,ComputerHuman,2020.1.3,59.949422007016445,
Human.xlsx,h,Sychronize.jpg,Number10.jpg,10,Human,,,,,0,0,0,6,0,0,0,8,,,,,,,,,,,,,,,,,,,,,,,,,460.4641683967941,None,460.4641683967941,None,463.4954758984045,None,463.4954758984045,None,463.94512983013533,None,463.94512983013533,None,v,11.2177015780303,463.94512983013533,None,t,1.5772080618380642,463.94512983013533,None,11.2177015780303,1.5772080618380642,10.2870720291983,False,False,False,475.24372406412726,None,475.24372406412726,None,475.24372406412726,None,475.24372406412726,None,475.24372406412726,None,475.24372406412726,None,475.24372406412726,None,475.24372406412726,None,476.2624867513723,None,476.2624867513723,None,477.2584297200401,None,477.2584297200401,None,h,,,,,,,,,,,,,,,,,,,,,,,,,,,,,,,,,,,,,,,,,,,,,,,51_52Exp,001,2021_May_18_1103,ComputerHuman,2020.1.3,59.949422007016445,
Human.xlsx,h,Sychronize.jpg,Number9.jpg,9,Human,,,,,0,0,0,6,0,1,1,7,,,,,,,,,,,,,,,,,,,,,,,,,,,,,478.30837768789956,None,478.30837768789956,None,478.7584245874,None,478.7584245874,None,v,9.411935762440862,478.7584245874,None,t,3.559136356287354,478.7584245874,None,9.411935762440862,3.559136356287354,9.129840190928311,False,False,False,488.22396339914235,None,488.22396339914235,None,488.22396339914235,None,488.22396339914235,None,488.22396339914235,None,488.22396339914235,None,488.22396339914235,None,488.22396339914235,None,489.22449751451904,None,489.22449751451904,None,490.2224152665251,None,490.2224152665251,None,h,,,,,,,,,,,,,,,,,,,,,,,,,,,,,,,,,,,,,,,,,,,,,,,51_52Exp,001,2021_May_18_1103,ComputerHuman,2020.1.3,59.949422007016445,
Human.xlsx,h,Sychronize.jpg,Number7.jpg,7,Human,,,,,0,0,0,6,0,2,2,3,,,,,,,,,,,,,,,,,,,,,,,,,,,,,491.2892371100156,None,491.2892371100156,None,491.7390973097265,None,491.7390973097265,None,v,8.5068344312906,491.7390973097265,None,t,3.4861306436587256,491.7390973097265,None,8.5068344312906,3.4861306436587256,6.911454062888724,False,False,False,500.33701974526707,None,500.33701974526707,None,500.33701974526707,None,500.33701974526707,None,500.33701974526707,None,500.33701974526707,None,500.33701974526707,None,500.33701974526707,None,501.3048656788044,None,501.3048656788044,None,502.3033043937967,None,502.3033043937967,None,h,,,,,,,,,,,,,,,,,,,,,,,,,,,,,,,,,,,,,,,,,,,,,,,51_52Exp,001,2021_May_18_1103,ComputerHuman,2020.1.3,59.949422007016445,
Human.xlsx,h,Sychronize.jpg,Number6.jpg,6,Human,,,,,0,0,0,6,0,3,3,1,,,,,,,,,,,,,,,,,,,,,,,,,,,,,503.3535096352489,None,503.3535096352489,None,503.8035613465995,None,503.8035613465995,None,v,5.637972427456589,503.8035613465995,None,t,2.1371691692563672,503.8035613465995,None,5.637972427456589,2.1371691692563672,6.167171617421718,False,False,False,509.52003943150885,None,509.52003943150885,None,509.52003943150885,None,509.52003943150885,None,509.52003943150885,None,509.52003943150885,None,509.52003943150885,None,509.52003943150885,None,510.52057867952567,None,510.52057867952567,None,511.5180328899587,None,511.5180328899587,None,h,,,,,,,,,,,,,,,,,,,,,,,,,,,,,,,,,,,,,,,,,,,,,,,51_52Exp,001,2021_May_18_1103,ComputerHuman,2020.1.3,59.949422007016445,
Human.xlsx,h,Sychronize.jpg,Number6.jpg,6,Human,,,,,0,0,0,6,0,4,4,0,,,,,,,,,,,,,,,,,,,,,,,,,,,,,512.5517941144014,None,512.5517941144014,None,513.0181496575246,None,513.0181496575246,None,v,6.534964828582815,513.0181496575246,None,t,1.4781987897235922,513.0181496575246,None,6.534964828582815,1.4781987897235922,5.757625252628298,False,False,False,519.6347013316636,None,519.6347013316636,None,519.6347013316636,None,519.6347013316636,None,519.6347013316636,None,519.6347013316636,None,519.6347013316636,None,519.6347013316636,None,520.6181543410587,None,520.6181543410587,None,521.6159646284098,None,521.6159646284098,None,h,,,,,,,,,,,,,,,,,,,,,,,,,,,,,,,,,,,,,,,,,,,,,,,51_52Exp,001,2021_May_18_1103,ComputerHuman,2020.1.3,59.949422007016445,
Human.xlsx,h,Sychronize.jpg,Number7.jpg,7,Human,,,,,0,0,0,6,0,5,5,2,,,,,,,,,,,,,,,,,,,,,,,,,,,,,522.6828175885316,None,522.6828175885316,None,523.11576766334,None,523.11576766334,None,v,7.489466539034993,523.11576766334,None,t,3.0441179301087686,523.11576766334,None,7.489466539034993,3.0441179301087686,6.689619656019763,False,False,False,530.6974863535927,None,530.6974863535927,None,530.6974863535927,None,530.6974863535927,None,530.6974863535927,None,530.6974863535927,None,530.6974863535927,None,530.6974863535927,None,531.6831111113963,None,531.6831111113963,None,532.6636410821659,None,532.6636410821659,None,h,,,,,,,,,,,,,,,,,,,,,,,,,,,,,,,,,,,,,,,,,,,,,,,51_52Exp,001,2021_May_18_1103,ComputerHuman,2020.1.3,59.949422007016445,
Human.xlsx,h,Sychronize.jpg,Number9.jpg,9,Human,,,,,0,0,0,6,0,6,6,6,,,,,,,,,,,,,,,,,,,,,,,,,,,,,533.730435016925,None,533.730435016925,None,534.1635887933933,None,534.1635887933933,None,v,10.644634594508716,534.1635887933933,None,t,6.824024220929459,534.1635887933933,None,10.644634594508716,6.824024220929459,8.659717343649804,False,False,False,544.8944655381702,None,544.8944655381702,None,544.8944655381702,None,544.8944655381702,None,544.8944655381702,None,544.8944655381702,None,544.8944655381702,None,544.8944655381702,None,545.8791853473385,None,545.8791853473385,None,546.8774100953901,None,546.8774100953901,None,h,,,,,,,,,,,,,,,,,,,,,,,,,,,,,,,,,,,,,,,,,,,,,,,51_52Exp,001,2021_May_18_1103,ComputerHuman,2020.1.3,59.949422007016445,
Human.xlsx,h,Sychronize.jpg,Number8.jpg,8,Human,,,,,0,0,0,6,0,7,7,4,,,,,,,,,,,,,,,,,,,,,,,,,,,,,547.9276547940144,None,547.9276547940144,None,548.3777722673183,None,548.3777722673183,None,v,9.03385970697741,548.3777722673183,None,t,4.893075234240769,548.3777722673183,None,9.03385970697741,4.893075234240769,8.254653925126624,False,False,False,557.4914900824558,None,557.4914900824558,None,557.4914900824558,None,557.4914900824558,None,557.4914900824558,None,557.4914900824558,None,557.4914900824558,None,557.4914900824558,None,558.4941083705664,None,558.4941083705664,None,559.491432981833,None,559.491432981833,None,h,,,,,,,,,,,,,,,,,,,,,,,,,,,,,,,,,,,,,,,,,,,,,,,51_52Exp,001,2021_May_18_1103,ComputerHuman,2020.1.3,59.949422007016445,
Human.xlsx,h,Sychronize.jpg,Number10.jpg,10,Human,,,,,0,0,0,6,0,8,8,9,,,,,,,,,,,,,,,,,,,,,,,,,,,,,560.5413183956393,None,560.5413183956393,None,560.9914788548053,None,560.9914788548053,None,v,12.355708650808538,560.9914788548053,None,t,4.291132337430099,560.9914788548053,None,12.355708650808538,4.291132337430099,9.352501086783533,False,False,False,573.4236503722448,None,573.4236503722448,None,573.4236503722448,None,573.4236503722448,None,573.4236503722448,None,573.4236503722448,None,573.4236503722448,None,573.4236503722448,None,574.4243012551872,None,574.4243012551872,None,575.4214994751876,None,575.4214994751876,None,h,,,,,,,,,,,,,,,,,,,,,,,,,,,,,,,,,,,,,,,,,,,,,,,51_52Exp,001,2021_May_18_1103,ComputerHuman,2020.1.3,59.949422007016445,
Human.xlsx,h,Sychronize.jpg,Number8.jpg,8,Human,,,,,0,0,0,6,0,9,9,5,,,,,,,,,,,,,,,,,,,,,,,,,,,,,576.4716434457466,None,576.4716434457466,None,576.9216560207153,None,576.9216560207153,None,v,5.973178105183251,576.9216560207153,None,t,4.668085948627322,576.9216560207153,None,5.973178105183251,4.668085948627322,8.247568356005408,False,False,False,582.9865390093491,None,582.9865390093491,None,582.9865390093491,None,582.9865390093491,None,582.9865390093491,None,582.9865390093491,None,582.9865390093491,None,582.9865390093491,None,583.9550416000493,None,583.9550416000493,None,584.9529397838646,None,584.9529397838646,None,h,,,,,,,,,,,,,,,,,,,,,,,,,,,,,,,,,,,,,,,,,,,,,,,51_52Exp,001,2021_May_18_1103,ComputerHuman,2020.1.3,59.949422007016445,
Human.xlsx,h,,,,,,,,,0,0,0,6,,,,,,,,,,,,,,,,,,,,,,,,,,,,,,,,,,,,,,,,,,,,,,,,,,,,,,,,,,,,,,,,,,,,,,,,,,,,,,,h,585.9533783038164,None,585.9533783038164,None,q,0,12.408863877247768,585.9533783038164,None,o,1,20.803408650551773,585.9533783038164,None,h,h,606.848253811627,None,606.848253811627,None,608.8480164270152,None,None,None,None,None,None,None,None,,,,,,,,,,,,,,,,,,51_52Exp,001,2021_May_18_1103,ComputerHuman,2020.1.3,59.949422007016445,
Computer.xlsx,c,Sychronize.jpg,Number10.jpg,10,Computer,,,,,0,1,1,7,0,0,0,9,,,,,,,,,,,,,,,,,,,,,,,,,613.8505189099299,None,613.8505189099299,None,616.913180748493,None,616.913180748493,None,617.3468153891952,None,617.3468153891952,None,v,10.958314941372237,617.3468153891952,None,t,7.00600743462951,617.3468153891952,None,10.958314941372237,7.00600743462951,10.135454833008266,False,False,False,628.3782614720926,None,628.3782614720926,None,628.3782614720926,None,628.3782614720926,None,628.3782614720926,None,628.3782614720926,None,628.3782614720926,None,628.3782614720926,None,629.4103930832539,None,629.4103930832539,None,630.3935891398464,None,630.3935891398464,None,c,,,,,,,,,,,,,,,,,,,,,,,,,,,,,,,,,,,,,,,,,,,,,,,51_52Exp,001,2021_May_18_1103,ComputerHuman,2020.1.3,59.949422007016445,
Computer.xlsx,c,Sychronize.jpg,Number6.jpg,6,Computer,,,,,0,1,1,7,0,1,1,0,,,,,,,,,,,,,,,,,,,,,,,,,,,,,631.4440093106093,None,631.4440093106093,None,631.8938454510692,None,631.8938454510692,None,v,5.386930501484585,631.8938454510692,None,t,5.62205546844325,631.8938454510692,None,5.386930501484585,5.62205546844325,5.80584014606219,False,False,True,637.6085790798716,None,637.6085790798716,None,637.6085790798716,None,637.6085790798716,None,637.6085790798716,None,637.6085790798716,None,637.6085790798716,None,637.6085790798716,None,638.5918107441557,None,638.5918107441557,None,639.5749679851565,None,639.5749679851565,None,c,,,,,,,,,,,,,,,,,,,,,,,,,,,,,,,,,,,,,,,,,,,,,,,51_52Exp,001,2021_May_18_1103,ComputerHuman,2020.1.3,59.949422007016445,
Computer.xlsx,c,Sychronize.jpg,Number6.jpg,6,Computer,,,,,0,1,1,7,0,2,2,1,,,,,,,,,,,,,,,,,,,,,,,,,,,,,640.6416246217887,None,640.6416246217887,None,641.0915306944719,None,641.0915306944719,None,v,5.56087343422405,641.0915306944719,None,t,4.344107600670441,641.0915306944719,None,5.56087343422405,4.344107600670441,6.089720689573418,False,False,False,646.724840118256,None,646.724840118256,None,646.724840118256,None,646.724840118256,None,646.724840118256,None,646.724840118256,None,646.724840118256,None,646.724840118256,None,647.7399384211485,None,647.7399384211485,None,648.7231094561198,None,648.7231094561198,None,c,,,,,,,,,,,,,,,,,,,,,,,,,,,,,,,,,,,,,,,,,,,,,,,51_52Exp,001,2021_May_18_1103,ComputerHuman,2020.1.3,59.949422007016445,
Computer.xlsx,c,Sychronize.jpg,Number9.jpg,9,Computer,,,,,0,1,1,7,0,3,3,6,,,,,,,,,,,,,,,,,,,,,,,,,,,,,649.7735017181512,None,649.7735017181512,None,650.2065862039763,None,650.2065862039763,None,v,9.321810769818967,650.2065862039763,None,t,7.848956020972082,650.2065862039763,None,9.321810769818967,7.848956020972082,9.231951984774666,False,True,False,659.6207713460092,None,659.6207713460092,None,659.6207713460092,None,659.6207713460092,None,659.6207713460092,None,659.6207713460092,None,659.6207713460092,None,659.6207713460092,None,660.6206382181526,None,660.6206382181526,None,661.6038653913768,None,661.6038653913768,None,c,,,,,,,,,,,,,,,,,,,,,,,,,,,,,,,,,,,,,,,,,,,,,,,51_52Exp,001,2021_May_18_1103,ComputerHuman,2020.1.3,59.949422007016445,
Computer.xlsx,c,Sychronize.jpg,Number9.jpg,9,Computer,,,,,0,1,1,7,0,4,4,7,,,,,,,,,,,,,,,,,,,,,,,,,,,,,662.6534053143357,None,662.6534053143357,None,663.1036828618576,None,663.1036828618576,None,v,9.43177373781964,663.1036828618576,None,t,9.058915011176396,663.1036828618576,None,9.43177373781964,9.058915011176396,9.62931593931853,False,True,False,672.585133179183,None,672.585133179183,None,672.585133179183,None,672.585133179183,None,672.585133179183,None,672.585133179183,None,672.585133179183,None,672.585133179183,None,673.6178945011459,None,673.6178945011459,None,674.6011136546194,None,674.6011136546194,None,c,,,,,,,,,,,,,,,,,,,,,,,,,,,,,,,,,,,,,,,,,,,,,,,51_52Exp,001,2021_May_18_1103,ComputerHuman,2020.1.3,59.949422007016445,
Computer.xlsx,c,Sychronize.jpg,Number10.jpg,10,Computer,,,,,0,1,1,7,0,5,5,8,,,,,,,,,,,,,,,,,,,,,,,,,,,,,675.6511103825612,None,675.6511103825612,None,676.101046609506,None,676.101046609506,None,v,10.34982183322495,676.101046609506,None,t,8.39291772634283,676.101046609506,None,10.34982183322495,8.39291772634283,10.64227948508406,False,True,False,686.5486737899159,None,686.5486737899159,None,686.5486737899159,None,686.5486737899159,None,686.5486737899159,None,686.5486737899159,None,686.5486737899159,None,686.5486737899159,None,687.5317229246812,None,687.5317229246812,None,688.5149420781547,None,688.5149420781547,None,c,,,,,,,,,,,,,,,,,,,,,,,,,,,,,,,,,,,,,,,,,,,,,,,51_52Exp,001,2021_May_18_1103,ComputerHuman,2020.1.3,59.949422007016445,
Computer.xlsx,c,Sychronize.jpg,Number8.jpg,8,Computer,,,,,0,1,1,7,0,6,6,4,,,,,,,,,,,,,,,,,,,,,,,,,,,,,689.5819987399368,None,689.5819987399368,None,690.0147534536254,None,690.0147534536254,None,v,8.127749170437028,690.0147534536254,None,t,8.090950706123067,690.0147534536254,None,8.127749170437028,8.090950706123067,8.023732371873205,False,True,True,698.213160153774,None,698.213160153774,None,698.213160153774,None,698.213160153774,None,698.213160153774,None,698.213160153774,None,698.213160153774,None,698.213160153774,None,699.2293597287912,None,699.2293597287912,None,700.1958378137006,None,700.1958378137006,None,c,,,,,,,,,,,,,,,,,,,,,,,,,,,,,,,,,,,,,,,,,,,,,,,51_52Exp,001,2021_May_18_1103,ComputerHuman,2020.1.3,59.949422007016445,
Computer.xlsx,c,Sychronize.jpg,Number7.jpg,7,Computer,,,,,0,1,1,7,0,7,7,3,,,,,,,,,,,,,,,,,,,,,,,,,,,,,701.2628040126981,None,701.2628040126981,None,701.6957778259675,None,701.6957778259675,None,v,6.574385430487382,701.6957778259675,None,None,,701.6957778259675,None,6.574385430487382,13,6.635520782277062,False,True,False,714.7762467183181,None,714.7762467183181,None,714.7762467183181,None,714.7762467183181,None,714.7762467183181,None,714.7762467183181,None,714.7762467183181,None,714.7762467183181,None,715.7758582416088,None,715.7758582416088,None,716.7424816443952,None,716.7424816443952,None,c,,,,,,,,,,,,,,,,,,,,,,,,,,,,,,,,,,,,,,,,,,,,,,,51_52Exp,001,2021_May_18_1103,ComputerHuman,2020.1.3,59.949422007016445,
Computer.xlsx,c,Sychronize.jpg,Number8.jpg,8,Computer,,,,,0,1,1,7,0,8,8,5,,,,,,,,,,,,,,,,,,,,,,,,,,,,,717.8087927901802,None,717.8087927901802,None,718.2425012125861,None,718.2425012125861,None,v,8.294937869389742,718.2425012125861,None,t,7.133961269096744,718.2425012125861,None,8.294937869389742,7.133961269096744,8.508697072706184,False,True,False,726.623737691287,None,726.623737691287,None,726.623737691287,None,726.623737691287,None,726.623737691287,None,726.623737691287,None,726.623737691287,None,726.623737691287,None,727.6234932492948,None,727.6234932492948,None,728.6067287630594,None,728.6067287630594,None,c,,,,,,,,,,,,,,,,,,,,,,,,,,,,,,,,,,,,,,,,,,,,,,,51_52Exp,001,2021_May_18_1103,ComputerHuman,2020.1.3,59.949422007016445,
Computer.xlsx,c,Sychronize.jpg,Number7.jpg,7,Computer,,,,,0,1,1,7,0,9,9,2,,,,,,,,,,,,,,,,,,,,,,,,,,,,,729.6571062687501,None,729.6571062687501,None,730.1067557094207,None,730.1067557094207,None,v,7.4502595832809675,730.1067557094207,None,t,9.857794106702613,730.1067557094207,None,7.4502595832809675,9.857794106702613,7.330850054988176,False,True,False,740.0214178662075,None,740.0214178662075,None,740.0214178662075,None,740.0214178662075,None,740.0214178662075,None,740.0214178662075,None,740.0214178662075,None,740.0214178662075,None,741.0541477507488,None,741.0541477507488,None,742.037221265555,None,742.037221265555,None,c,,,,,,,,,,,,,,,,,,,,,,,,,,,,,,,,,,,,,,,,,,,,,,,51_52Exp,001,2021_May_18_1103,ComputerHuman,2020.1.3,59.949422007016445,
Computer.xlsx,c,,,,,,,,,0,1,1,7,,,,,,,,,,,,,,,,,,,,,,,,,,,,,,,,,,,,,,,,,,,,,,,,,,,,,,,,,,,,,,,,,,,,,,,,,,,,,,,c,743.0373640171122,None,743.0373640171122,None,a,0,6.371219810451748,743.0373640171122,None,o,0,8.36583053818299,743.0373640171122,None,c,h,751.5024604594225,None,751.5024604594225,None,753.484891431827,None,None,None,None,None,None,None,None,,,,,,,,,,,,,,,,,,51_52Exp,001,2021_May_18_1103,ComputerHuman,2020.1.3,59.949422007016445,
Computer.xlsx,c,Sychronize.jpg,Number8.jpg,8,Computer,,,,,0,2,2,1,0,0,0,4,,,,,,,,,,,,,,,,,,,,,,,,,758.5031661974579,None,758.5031661974579,None,761.6005695947524,None,761.6005695947524,None,762.0168902359219,None,762.0168902359219,None,v,7.930959251968943,762.0168902359219,None,t,6.05003426037365,762.0168902359219,None,7.930959251968943,6.05003426037365,7.843150390695741,False,True,False,770.0163208336435,None,770.0163208336435,None,770.0163208336435,None,770.0163208336435,None,770.0163208336435,None,770.0163208336435,None,770.0163208336435,None,770.0163208336435,None,771.0310896851895,None,771.0310896851895,None,772.0143762045666,None,772.0143762045666,None,c,,,,,,,,,,,,,,,,,,,,,,,,,,,,,,,,,,,,,,,,,,,,,,,51_52Exp,001,2021_May_18_1103,ComputerHuman,2020.1.3,59.949422007016445,
Computer.xlsx,c,Sychronize.jpg,Number6.jpg,6,Computer,,,,,0,2,2,1,0,1,1,1,,,,,,,,,,,,,,,,,,,,,,,,,,,,,773.0817899056365,None,773.0817899056365,None,773.5143364266046,None,773.5143364266046,None,v,5.693160821017273,773.5143364266046,None,t,6.391984548186429,773.5143364266046,None,5.693160821017273,6.391984548186429,6.127956808707883,False,False,True,779.98093994041,None,779.98093994041,None,779.98093994041,None,779.98093994041,None,779.98093994041,None,779.98093994041,None,779.98093994041,None,779.98093994041,None,780.9958390327026,None,780.9958390327026,None,781.9790334853451,None,781.9790334853451,None,c,,,,,,,,,,,,,,,,,,,,,,,,,,,,,,,,,,,,,,,,,,,,,,,51_52Exp,001,2021_May_18_1103,ComputerHuman,2020.1.3,59.949422007016445,
Computer.xlsx,c,Sychronize.jpg,Number8.jpg,8,Computer,,,,,0,2,2,1,0,2,2,5,,,,,,,,,,,,,,,,,,,,,,,,,,,,,783.0295405902023,None,783.0295405902023,None,783.4622106153265,None,783.4622106153265,None,v,7.616826270392721,783.4622106153265,None,t,6.871969175929053,783.4622106153265,None,7.616826270392721,6.871969175929053,8.4619625051443,False,False,False,791.1618735291777,None,791.1618735291777,None,791.1618735291777,None,791.1618735291777,None,791.1618735291777,None,791.1618735291777,None,791.1618735291777,None,791.1618735291777,None,792.1768733495353,None,792.1768733495353,None,793.1599872838838,None,793.1599872838838,None,c,,,,,,,,,,,,,,,,,,,,,,,,,,,,,,,,,,,,,,,,,,,,,,,51_52Exp,001,2021_May_18_1103,ComputerHuman,2020.1.3,59.949422007016445,
Computer.xlsx,c,Sychronize.jpg,Number7.jpg,7,Computer,,,,,0,2,2,1,0,3,3,3,,,,,,,,,,,,,,,,,,,,,,,,,,,,,794.2097973120362,None,794.2097973120362,None,794.6602965254592,None,794.6602965254592,None,v,6.5583321357173645,794.6602965254592,None,t,4.9500087254884875,794.6602965254592,None,6.5583321357173645,4.9500087254884875,7.168650385117547,False,False,False,801.2920709690168,None,801.2920709690168,None,801.2920709690168,None,801.2920709690168,None,801.2920709690168,None,801.2920709690168,None,801.2920709690168,None,801.2920709690168,None,802.2913854407527,None,802.2913854407527,None,803.2746353900677,None,803.2746353900677,None,c,,,,,,,,,,,,,,,,,,,,,,,,,,,,,,,,,,,,,,,,,,,,,,,51_52Exp,001,2021_May_18_1103,ComputerHuman,2020.1.3,59.949422007016445,
Computer.xlsx,c,Sychronize.jpg,Number9.jpg,9,Computer,,,,,0,2,2,1,0,4,4,7,,,,,,,,,,,,,,,,,,,,,,,,,,,,,804.3413917923949,None,804.3413917923949,None,804.7747130212517,None,804.7747130212517,None,v,9.275458858038974,804.7747130212517,None,t,8.206881010001098,804.7747130212517,None,9.275458858038974,8.206881010001098,9.29965177576323,False,True,False,814.1237938295399,None,814.1237938295399,None,814.1237938295399,None,814.1237938295399,None,814.1237938295399,None,814.1237938295399,None,814.1237938295399,None,814.1237938295399,None,815.1387644580061,None,815.1387644580061,None,816.1053528946809,None,816.1053528946809,None,c,,,,,,,,,,,,,,,,,,,,,,,,,,,,,,,,,,,,,,,,,,,,,,,51_52Exp,001,2021_May_18_1103,ComputerHuman,2020.1.3,59.949422007016445,
Computer.xlsx,c,Sychronize.jpg,Number7.jpg,7,Computer,,,,,0,2,2,1,0,5,5,2,,,,,,,,,,,,,,,,,,,,,,,,,,,,,817.1719736028313,None,817.1719736028313,None,817.6054462445754,None,817.6054462445754,None,v,7.016292283332177,817.6054462445754,None,t,4.480165874101431,817.6054462445754,None,7.016292283332177,4.480165874101431,6.904892487572648,False,True,False,824.7201880214441,None,824.7201880214441,None,824.7201880214441,None,824.7201880214441,None,824.7201880214441,None,824.7201880214441,None,824.7201880214441,None,824.7201880214441,None,825.7199368428617,None,825.7199368428617,None,826.7031049907227,None,826.7031049907227,None,c,,,,,,,,,,,,,,,,,,,,,,,,,,,,,,,,,,,,,,,,,,,,,,,51_52Exp,001,2021_May_18_1103,ComputerHuman,2020.1.3,59.949422007016445,
Computer.xlsx,c,Sychronize.jpg,Number9.jpg,9,Computer,,,,,0,2,2,1,0,6,6,6,,,,,,,,,,,,,,,,,,,,,,,,,,,,,827.7534565124222,None,827.7534565124222,None,828.2030940838622,None,828.2030940838622,None,v,9.72619064422338,828.2030940838622,None,t,9.909860571827494,828.2030940838622,None,9.72619064422338,9.909860571827494,9.20390513917225,False,False,False,838.167956670251,None,838.167956670251,None,838.167956670251,None,838.167956670251,None,838.167956670251,None,838.167956670251,None,838.167956670251,None,838.167956670251,None,839.1837141966264,None,839.1837141966264,None,840.1836689652341,None,840.1836689652341,None,c,,,,,,,,,,,,,,,,,,,,,,,,,,,,,,,,,,,,,,,,,,,,,,,51_52Exp,001,2021_May_18_1103,ComputerHuman,2020.1.3,59.949422007016445,
Computer.xlsx,c,Sychronize.jpg,Number10.jpg,10,Computer,,,,,0,2,2,1,0,7,7,9,,,,,,,,,,,,,,,,,,,,,,,,,,,,,841.2338482226951,None,841.2338482226951,None,841.6838777995345,None,841.6838777995345,None,v,9.39284971885968,841.6838777995345,None,t,7.768077800561059,841.6838777995345,None,9.39284971885968,7.768077800561059,9.717778290793788,False,False,False,851.1485864067156,None,851.1485864067156,None,851.1485864067156,None,851.1485864067156,None,851.1485864067156,None,851.1485864067156,None,851.1485864067156,None,851.1485864067156,None,852.1477491447738,None,852.1477491447738,None,853.1310760836927,None,853.1310760836927,None,c,,,,,,,,,,,,,,,,,,,,,,,,,,,,,,,,,,,,,,,,,,,,,,,51_52Exp,001,2021_May_18_1103,ComputerHuman,2020.1.3,59.949422007016445,
Computer.xlsx,c,Sychronize.jpg,Number6.jpg,6,Computer,,,,,0,2,2,1,0,8,8,0,,,,,,,,,,,,,,,,,,,,,,,,,,,,,854.1983887359077,None,854.1983887359077,None,854.6310132088497,None,854.6310132088497,None,v,5.773436276987923,854.6310132088497,None,t,4.448998236937996,854.6310132088497,None,5.773436276987923,4.448998236937996,6.245109101708989,False,False,False,860.4798646522765,None,860.4798646522765,None,860.4798646522765,None,860.4798646522765,None,860.4798646522765,None,860.4798646522765,None,860.4798646522765,None,860.4798646522765,None,861.4958364663826,None,861.4958364663826,None,862.479093152288,None,862.479093152288,None,c,,,,,,,,,,,,,,,,,,,,,,,,,,,,,,,,,,,,,,,,,,,,,,,51_52Exp,001,2021_May_18_1103,ComputerHuman,2020.1.3,59.949422007016445,
Computer.xlsx,c,Sychronize.jpg,Number10.jpg,10,Computer,,,,,0,2,2,1,0,9,9,8,,,,,,,,,,,,,,,,,,,,,,,,,,,,,863.5290263638067,None,863.5290263638067,None,863.9791316470898,None,863.9791316470898,None,v,9.636793844937756,863.9791316470898,None,t,9.063887577214246,863.9791316470898,None,9.636793844937756,9.063887577214246,10.240417946968627,False,False,False,873.7100433579785,None,873.7100433579785,None,873.7100433579785,None,873.7100433579785,None,873.7100433579785,None,873.7100433579785,None,873.7100433579785,None,873.7100433579785,None,874.7098755848001,None,874.7098755848001,None,875.6930305802707,None,875.6930305802707,None,c,,,,,,,,,,,,,,,,,,,,,,,,,,,,,,,,,,,,,,,,,,,,,,,51_52Exp,001,2021_May_18_1103,ComputerHuman,2020.1.3,59.949422007016445,
Computer.xlsx,c,,,,,,,,,0,2,2,1,,,,,,,,,,,,,,,,,,,,,,,,,,,,,,,,,,,,,,,,,,,,,,,,,,,,,,,,,,,,,,,,,,,,,,,,,,,,,,,c,876.6937077679943,None,876.6937077679943,None,a,1,7.125847527222277,876.6937077679943,None,o,0,5.425083020455986,876.6937077679943,None,c,h,883.9080278984661,None,883.9080278984661,None,885.8909349232542,None,None,None,None,None,None,None,None,,,,,,,,,,,,,,,,,,51_52Exp,001,2021_May_18_1103,ComputerHuman,2020.1.3,59.949422007016445,
Human.xlsx,h,Sychronize.jpg,Number8.jpg,8,Human,,,,,0,3,3,8,0,0,0,5,,,,,,,,,,,,,,,,,,,,,,,,,890.9093232485507,None,890.9093232485507,None,893.9890026766718,None,893.9890026766718,None,894.4229372560392,None,894.4229372560392,None,v,7.791880740537408,894.4229372560392,None,t,6.051010103602266,894.4229372560392,None,7.791880740537408,6.051010103602266,8.04222802791308,False,False,False,902.2890552220765,None,902.2890552220765,None,902.2890552220765,None,902.2890552220765,None,902.2890552220765,None,902.2890552220765,None,902.2890552220765,None,902.2890552220765,None,903.2901741376522,None,903.2901741376522,None,904.287178600483,None,904.287178600483,None,h,,,,,,,,,,,,,,,,,,,,,,,,,,,,,,,,,,,,,,,,,,,,,,,51_52Exp,001,2021_May_18_1103,ComputerHuman,2020.1.3,59.949422007016445,
Human.xlsx,h,Sychronize.jpg,Number9.jpg,9,Human,,,,,0,3,3,8,0,1,1,6,,,,,,,,,,,,,,,,,,,,,,,,,,,,,905.33728183071,None,905.33728183071,None,905.7872340971558,None,905.7872340971558,None,v,6.443281438063195,905.7872340971558,None,t,9.866874388894985,905.7872340971558,None,6.443281438063195,9.866874388894985,8.498091876308798,False,False,False,915.7514073058001,None,915.7514073058001,None,915.7514073058001,None,915.7514073058001,None,915.7514073058001,None,915.7514073058001,None,915.7514073058001,None,915.7514073058001,None,916.7366439076843,None,916.7366439076843,None,917.7177474510024,None,917.7177474510024,None,h,,,,,,,,,,,,,,,,,,,,,,,,,,,,,,,,,,,,,,,,,,,,,,,51_52Exp,001,2021_May_18_1103,ComputerHuman,2020.1.3,59.949422007016445,
Human.xlsx,h,Sychronize.jpg,Number6.jpg,6,Human,,,,,0,3,3,8,0,2,2,0,,,,,,,,,,,,,,,,,,,,,,,,,,,,,918.7839366965813,None,918.7839366965813,None,919.2176788019392,None,919.2176788019392,None,v,5.184368929048787,919.2176788019392,None,t,5.7159789356444435,919.2176788019392,None,5.184368929048787,5.7159789356444435,6.247719233650834,False,False,False,925.0160282731488,None,925.0160282731488,None,925.0160282731488,None,925.0160282731488,None,925.0160282731488,None,925.0160282731488,None,925.0160282731488,None,925.0160282731488,None,926.0011192363659,None,926.0011192363659,None,926.9991354709068,None,926.9991354709068,None,h,,,,,,,,,,,,,,,,,,,,,,,,,,,,,,,,,,,,,,,,,,,,,,,51_52Exp,001,2021_May_18_1103,ComputerHuman,2020.1.3,59.949422007016445,
Human.xlsx,h,Sychronize.jpg,Number8.jpg,8,Human,,,,,0,3,3,8,0,3,3,4,,,,,,,,,,,,,,,,,,,,,,,,,,,,,928.048777084301,None,928.048777084301,None,928.4993234538563,None,928.4993234538563,None,v,7.610294023297001,928.4993234538563,None,t,7.053992488381027,928.4993234538563,None,7.610294023297001,7.053992488381027,7.732296174063146,False,False,False,936.182143287918,None,936.182143287918,None,936.182143287918,None,936.182143287918,None,936.182143287918,None,936.182143287918,None,936.182143287918,None,936.182143287918,None,937.165649869246,None,937.165649869246,None,938.1634518160565,None,938.1634518160565,None,h,,,,,,,,,,,,,,,,,,,,,,,,,,,,,,,,,,,,,,,,,,,,,,,51_52Exp,001,2021_May_18_1103,ComputerHuman,2020.1.3,59.949422007016445,
Human.xlsx,h,Sychronize.jpg,Number9.jpg,9,Human,,,,,0,3,3,8,0,4,4,7,,,,,,,,,,,,,,,,,,,,,,,,,,,,,939.2306175464439,None,939.2306175464439,None,939.6633542958916,None,939.6633542958916,None,v,8.909798980144387,939.6633542958916,None,t,7.51693739205416,939.6633542958916,None,8.909798980144387,7.51693739205416,9.619435442792527,False,False,False,948.6458407649686,None,948.6458407649686,None,948.6458407649686,None,948.6458407649686,None,948.6458407649686,None,948.6458407649686,None,948.6458407649686,None,948.6458407649686,None,949.6299606968073,None,949.6299606968073,None,950.6275996822897,None,950.6275996822897,None,h,,,,,,,,,,,,,,,,,,,,,,,,,,,,,,,,,,,,,,,,,,,,,,,51_52Exp,001,2021_May_18_1103,ComputerHuman,2020.1.3,59.949422007016445,
Human.xlsx,h,Sychronize.jpg,Number6.jpg,6,Human,,,,,0,3,3,8,0,5,5,1,,,,,,,,,,,,,,,,,,,,,,,,,,,,,951.6938575769318,None,951.6938575769318,None,952.1275082571351,None,952.1275082571351,None,v,5.065338189666363,952.1275082571351,None,t,4.269230399088428,952.1275082571351,None,5.065338189666363,4.269230399088428,5.613820254075764,False,False,False,957.2602152372692,None,957.2602152372692,None,957.2602152372692,None,957.2602152372692,None,957.2602152372692,None,957.2602152372692,None,957.2602152372692,None,957.2602152372692,None,958.2621451100053,None,958.2621451100053,None,959.2591332125453,None,959.2591332125453,None,h,,,,,,,,,,,,,,,,,,,,,,,,,,,,,,,,,,,,,,,,,,,,,,,51_52Exp,001,2021_May_18_1103,ComputerHuman,2020.1.3,59.949422007016445,
Human.xlsx,h,Sychronize.jpg,Number10.jpg,10,Human,,,,,0,3,3,8,0,6,6,9,,,,,,,,,,,,,,,,,,,,,,,,,,,,,960.3092723712541,None,960.3092723712541,None,960.7593850327078,None,960.7593850327078,None,v,9.468975114393743,960.7593850327078,None,t,7.167966614741545,960.7593850327078,None,9.468975114393743,7.167966614741545,9.981146240270657,False,False,False,970.3235000500433,None,970.3235000500433,None,970.3235000500433,None,970.3235000500433,None,970.3235000500433,None,970.3235000500433,None,970.3235000500433,None,970.3235000500433,None,971.2926368426049,None,971.2926368426049,None,972.289830571545,None,972.289830571545,None,h,,,,,,,,,,,,,,,,,,,,,,,,,,,,,,,,,,,,,,,,,,,,,,,51_52Exp,001,2021_May_18_1103,ComputerHuman,2020.1.3,59.949422007016445,
Human.xlsx,h,Sychronize.jpg,Number10.jpg,10,Human,,,,,0,3,3,8,0,7,7,8,,,,,,,,,,,,,,,,,,,,,,,,,,,,,973.3398394895075,None,973.3398394895075,None,973.8067769457198,None,973.8067769457198,None,v,7.877129404126208,973.8067769457198,None,t,8.291941690640442,973.8067769457198,None,7.877129404126208,8.291941690640442,9.842476723382834,False,False,False,982.1726177491832,None,982.1726177491832,None,982.1726177491832,None,982.1726177491832,None,982.1726177491832,None,982.1726177491832,None,982.1726177491832,None,982.1726177491832,None,983.1557945583747,None,983.1557945583747,None,984.154014815366,None,984.154014815366,None,h,,,,,,,,,,,,,,,,,,,,,,,,,,,,,,,,,,,,,,,,,,,,,,,51_52Exp,001,2021_May_18_1103,ComputerHuman,2020.1.3,59.949422007016445,
Human.xlsx,h,Sychronize.jpg,Number7.jpg,7,Human,,,,,0,3,3,8,0,8,8,2,,,,,,,,,,,,,,,,,,,,,,,,,,,,,985.2045729258359,None,985.2045729258359,None,985.654312829291,None,985.654312829291,None,v,5.033275869148611,985.654312829291,None,t,5.751994993109292,985.654312829291,None,5.033275869148611,5.751994993109292,6.733880026817862,False,False,False,991.5025246174259,None,991.5025246174259,None,991.5025246174259,None,991.5025246174259,None,991.5025246174259,None,991.5025246174259,None,991.5025246174259,None,991.5025246174259,None,992.4878882521564,None,992.4878882521564,None,993.4853854484516,None,993.4853854484516,None,h,,,,,,,,,,,,,,,,,,,,,,,,,,,,,,,,,,,,,,,,,,,,,,,51_52Exp,001,2021_May_18_1103,ComputerHuman,2020.1.3,59.949422007016445,
Human.xlsx,h,Sychronize.jpg,Number7.jpg,7,Human,,,,,0,3,3,8,0,9,9,3,,,,,,,,,,,,,,,,,,,,,,,,,,,,,994.5353667784727,None,994.5353667784727,None,994.9852507166449,None,994.9852507166449,None,v,5.697944762525594,994.9852507166449,None,t,4.725120488729999,994.9852507166449,None,5.697944762525594,4.725120488729999,7.088570114653534,False,False,False,1000.750923554456,None,1000.750923554456,None,1000.750923554456,None,1000.750923554456,None,1000.750923554456,None,1000.750923554456,None,1000.750923554456,None,1000.750923554456,None,1001.736436677334,None,1001.736436677334,None,1002.7335370563794,None,1002.7335370563794,None,h,,,,,,,,,,,,,,,,,,,,,,,,,,,,,,,,,,,,,,,,,,,,,,,51_52Exp,001,2021_May_18_1103,ComputerHuman,2020.1.3,59.949422007016445,
Human.xlsx,h,,,,,,,,,0,3,3,8,,,,,,,,,,,,,,,,,,,,,,,,,,,,,,,,,,,,,,,,,,,,,,,,,,,,,,,,,,,,,,,,,,,,,,,,,,,,,,,h,1003.7338703572061,None,1003.7338703572061,None,q,1,4.837096093290938,1003.7338703572061,None,o,0,2.3565715759514205,1003.7338703572061,None,h,h,1008.6831293964271,None,1008.6831293964271,None,1010.6652405411855,None,None,None,None,None,None,None,None,,,,,,,,,,,,,,,,,,51_52Exp,001,2021_May_18_1103,ComputerHuman,2020.1.3,59.949422007016445,
Computer.xlsx,c,Sychronize.jpg,Number10.jpg,10,Computer,,,,,0,4,4,5,0,0,0,8,,,,,,,,,,,,,,,,,,,,,,,,,1015.66733594157,None,1015.66733594157,None,1018.7302265034145,None,1018.7302265034145,None,1019.162843918976,None,1019.162843918976,None,v,8.971349281302082,1019.162843918976,None,t,6.651049753248344,1019.162843918976,None,8.971349281302082,6.651049753248344,10.52893348019296,False,False,False,1028.2282023184137,None,1028.2282023184137,None,1028.2282023184137,None,1028.2282023184137,None,1028.2282023184137,None,1028.2282023184137,None,1028.2282023184137,None,1028.2282023184137,None,1029.2447496298082,None,1029.2447496298082,None,1030.227827314885,None,1030.227827314885,None,c,,,,,,,,,,,,,,,,,,,,,,,,,,,,,,,,,,,,,,,,,,,,,,,51_52Exp,001,2021_May_18_1103,ComputerHuman,2020.1.3,59.949422007016445,
Computer.xlsx,c,Sychronize.jpg,Number7.jpg,7,Computer,,,,,0,4,4,5,0,1,1,2,,,,,,,,,,,,,,,,,,,,,,,,,,,,,1031.278032877127,None,1031.278032877127,None,1031.7278975678985,None,1031.7278975678985,None,v,5.953899587592332,1031.7278975678985,None,t,6.864991993081048,1031.7278975678985,None,5.953899587592332,6.864991993081048,7.030368649541458,False,False,True,1038.6761098692973,None,1038.6761098692973,None,1038.6761098692973,None,1038.6761098692973,None,1038.6761098692973,None,1038.6761098692973,None,1038.6761098692973,None,1038.6761098692973,None,1039.6591121687202,None,1039.6591121687202,None,1040.6589986090544,None,1040.6589986090544,None,c,,,,,,,,,,,,,,,,,,,,,,,,,,,,,,,,,,,,,,,,,,,,,,,51_52Exp,001,2021_May_18_1103,ComputerHuman,2020.1.3,59.949422007016445,
Computer.xlsx,c,Sychronize.jpg,Number9.jpg,9,Computer,,,,,0,4,4,5,0,2,2,6,,,,,,,,,,,,,,,,,,,,,,,,,,,,,1041.7093937581963,None,1041.7093937581963,None,1042.1592119344152,None,1042.1592119344152,None,v,8.050105154967241,1042.1592119344152,None,t,6.289053938916368,1042.1592119344152,None,8.050105154967241,6.289053938916368,9.047484436338355,False,False,False,1050.2918037509335,None,1050.2918037509335,None,1050.2918037509335,None,1050.2918037509335,None,1050.2918037509335,None,1050.2918037509335,None,1050.2918037509335,None,1050.2918037509335,None,1051.290050633496,None,1051.290050633496,None,1052.2732964125412,None,1052.2732964125412,None,c,,,,,,,,,,,,,,,,,,,,,,,,,,,,,,,,,,,,,,,,,,,,,,,51_52Exp,001,2021_May_18_1103,ComputerHuman,2020.1.3,59.949422007016445,
Computer.xlsx,c,Sychronize.jpg,Number8.jpg,8,Computer,,,,,0,4,4,5,0,3,3,4,,,,,,,,,,,,,,,,,,,,,,,,,,,,,1053.322995126558,None,1053.322995126558,None,1053.7731815697155,None,1053.7731815697155,None,v,7.18376039038867,1053.7731815697155,None,t,6.511025232059637,1053.7731815697155,None,7.18376039038867,6.511025232059637,8.439553003725548,False,False,False,1061.039225561575,None,1061.039225561575,None,1061.039225561575,None,1061.039225561575,None,1061.039225561575,None,1061.039225561575,None,1061.039225561575,None,1061.039225561575,None,1062.0546456168536,None,1062.0546456168536,None,1063.0378249923651,None,1063.0378249923651,None,c,,,,,,,,,,,,,,,,,,,,,,,,,,,,,,,,,,,,,,,,,,,,,,,51_52Exp,001,2021_May_18_1103,ComputerHuman,2020.1.3,59.949422007016445,
Computer.xlsx,c,Sychronize.jpg,Number9.jpg,9,Computer,,,,,0,4,4,5,0,4,4,7,,,,,,,,,,,,,,,,,,,,,,,,,,,,,1064.0878149837167,None,1064.0878149837167,None,1064.5376662013073,None,1064.5376662013073,None,v,11.682689593315217,1064.5376662013073,None,t,6.366051562504026,1064.5376662013073,None,11.682689593315217,6.366051562504026,9.325338215548884,False,False,False,1076.3027215183376,None,1076.3027215183376,None,1076.3027215183376,None,1076.3027215183376,None,1076.3027215183376,None,1076.3027215183376,None,1076.3027215183376,None,1076.3027215183376,None,1077.3179744420179,None,1077.3179744420179,None,1078.3012757177355,None,1078.3012757177355,None,c,,,,,,,,,,,,,,,,,,,,,,,,,,,,,,,,,,,,,,,,,,,,,,,51_52Exp,001,2021_May_18_1103,ComputerHuman,2020.1.3,59.949422007016445,
Computer.xlsx,c,Sychronize.jpg,Number6.jpg,6,Computer,,,,,0,4,4,5,0,5,5,0,,,,,,,,,,,,,,,,,,,,,,,,,,,,,1079.3510867082582,None,1079.3510867082582,None,1079.8015124607673,None,1079.8015124607673,None,v,5.418508429078429,1079.8015124607673,None,t,5.0660657414225625,1079.8015124607673,None,5.418508429078429,5.0660657414225625,5.740667289662383,False,False,False,1085.3165081108548,None,1085.3165081108548,None,1085.3165081108548,None,1085.3165081108548,None,1085.3165081108548,None,1085.3165081108548,None,1085.3165081108548,None,1085.3165081108548,None,1086.2995906077815,None,1086.2995906077815,None,1087.2826978055396,None,1087.2826978055396,None,c,,,,,,,,,,,,,,,,,,,,,,,,,,,,,,,,,,,,,,,,,,,,,,,51_52Exp,001,2021_May_18_1103,ComputerHuman,2020.1.3,59.949422007016445,
Computer.xlsx,c,Sychronize.jpg,Number10.jpg,10,Computer,,,,,0,4,4,5,0,6,6,9,,,,,,,,,,,,,,,,,,,,,,,,,,,,,1088.3327291788032,None,1088.3327291788032,None,1088.782644233607,None,1088.782644233607,None,v,9.20536559796551,1088.782644233607,None,t,9.119793257250421,1088.782644233607,None,9.20536559796551,9.119793257250421,10.641183435634979,False,False,False,1098.0650651973629,None,1098.0650651973629,None,1098.0650651973629,None,1098.0650651973629,None,1098.0650651973629,None,1098.0650651973629,None,1098.0650651973629,None,1098.0650651973629,None,1099.0802491511897,None,1099.0802491511897,None,1100.0467907525222,None,1100.0467907525222,None,c,,,,,,,,,,,,,,,,,,,,,,,,,,,,,,,,,,,,,,,,,,,,,,,51_52Exp,001,2021_May_18_1103,ComputerHuman,2020.1.3,59.949422007016445,
Computer.xlsx,c,Sychronize.jpg,Number8.jpg,8,Computer,,,,,0,4,4,5,0,7,7,5,,,,,,,,,,,,,,,,,,,,,,,,,,,,,1101.1132555567247,None,1101.1132555567247,None,1101.5471314315191,None,1101.5471314315191,None,v,7.315915611695118,1101.5471314315191,None,t,9.302915917087375,1101.5471314315191,None,7.315915611695118,9.302915917087375,8.4720836394444,False,False,False,1110.944565560497,None,1110.944565560497,None,1110.944565560497,None,1110.944565560497,None,1110.944565560497,None,1110.944565560497,None,1110.944565560497,None,1110.944565560497,None,1111.944280698963,None,1111.944280698963,None,1112.9274908703162,None,1112.9274908703162,None,c,,,,,,,,,,,,,,,,,,,,,,,,,,,,,,,,,,,,,,,,,,,,,,,51_52Exp,001,2021_May_18_1103,ComputerHuman,2020.1.3,59.949422007016445,
Computer.xlsx,c,Sychronize.jpg,Number6.jpg,6,Computer,,,,,0,4,4,5,0,8,8,1,,,,,,,,,,,,,,,,,,,,,,,,,,,,,1113.978052830266,None,1113.978052830266,None,1114.427727613348,None,1114.427727613348,None,v,5.278985944264605,1114.427727613348,None,t,5.950054277670688,1114.427727613348,None,5.278985944264605,5.950054277670688,5.858115412062832,False,False,True,1120.4606166097371,None,1120.4606166097371,None,1120.4606166097371,None,1120.4606166097371,None,1120.4606166097371,None,1120.4606166097371,None,1120.4606166097371,None,1120.4606166097371,None,1121.4590639860598,None,1121.4590639860598,None,1122.4422042251895,None,1122.4422042251895,None,c,,,,,,,,,,,,,,,,,,,,,,,,,,,,,,,,,,,,,,,,,,,,,,,51_52Exp,001,2021_May_18_1103,ComputerHuman,2020.1.3,59.949422007016445,
Computer.xlsx,c,Sychronize.jpg,Number7.jpg,7,Computer,,,,,0,4,4,5,0,9,9,3,,,,,,,,,,,,,,,,,,,,,,,,,,,,,1123.5092368277203,None,1123.5092368277203,None,1123.9591833199456,None,1123.9591833199456,None,v,6.419135573559743,1123.9591833199456,None,t,5.518050533409678,1123.9591833199456,None,6.419135573559743,5.518050533409678,6.960751970262693,False,False,False,1130.4739053361495,None,1130.4739053361495,None,1130.4739053361495,None,1130.4739053361495,None,1130.4739053361495,None,1130.4739053361495,None,1130.4739053361495,None,1130.4739053361495,None,1131.473573639273,None,1131.473573639273,None,1132.440129034576,None,1132.440129034576,None,c,,,,,,,,,,,,,,,,,,,,,,,,,,,,,,,,,,,,,,,,,,,,,,,51_52Exp,001,2021_May_18_1103,ComputerHuman,2020.1.3,59.949422007016445,
Computer.xlsx,c,,,,,,,,,0,4,4,5,,,,,,,,,,,,,,,,,,,,,,,,,,,,,,,,,,,,,,,,,,,,,,,,,,,,,,,,,,,,,,,,,,,,,,,,,,,,,,,c,1133.440667320223,None,1133.440667320223,None,a,1,4.18141477379163,1133.440667320223,None,o,0,3.0610444153023764,1133.440667320223,None,c,h,1137.6894624329227,None,1137.6894624329227,None,None,None,1139.688702481375,None,1139.688702481375,None,"['space', 'space']",1140.6718423997147,None,"[6.933860156083483, 15.169583075631863]",,,,,,,,,,,,,,,,,51_52Exp,001,2021_May_18_1103,ComputerHuman,2020.1.3,59.949422007016445,
Human.xlsx,h,Sychronize.jpg,Number9.jpg,9,Human,,,,,0,5,5,4,0,0,0,7,,,,,,,,,,,,,,,,,,,,,,,,,1155.90549846919,None,1155.90549846919,None,1158.9854037334826,None,1158.9854037334826,None,1159.418099101018,None,1159.418099101018,None,v,8.470883173408765,1159.418099101018,None,t,7.633981799657704,1159.418099101018,None,8.470883173408765,7.633981799657704,9.657767698609362,False,False,False,1167.9665278073617,None,1167.9665278073617,None,1167.9665278073617,None,1167.9665278073617,None,1167.9665278073617,None,1167.9665278073617,None,1167.9665278073617,None,1167.9665278073617,None,1168.9677644528733,None,1168.9677644528733,None,1169.965752137103,None,1169.965752137103,None,h,,,,,,,,,,,,,,,,,,,,,,,,,,,,,,,,,,,,,,,,,,,,,,,51_52Exp,001,2021_May_18_1103,ComputerHuman,2020.1.3,59.949422007016445,
Human.xlsx,h,Sychronize.jpg,Number8.jpg,8,Human,,,,,0,5,5,4,0,1,1,5,,,,,,,,,,,,,,,,,,,,,,,,,,,,,1171.0325733390134,None,1171.0325733390134,None,1171.4657271154817,None,1171.4657271154817,None,v,7.618813564541597,1171.4657271154817,None,t,6.846032019976292,1171.4657271154817,None,7.618813564541597,6.846032019976292,8.044005451971135,False,False,False,1179.1640975663586,None,1179.1640975663586,None,1179.1640975663586,None,1179.1640975663586,None,1179.1640975663586,None,1179.1640975663586,None,1179.1640975663586,None,1179.1640975663586,None,1180.1655449709108,None,1180.1655449709108,None,1181.1633729017126,None,1181.1633729017126,None,h,,,,,,,,,,,,,,,,,,,,,,,,,,,,,,,,,,,,,,,,,,,,,,,51_52Exp,001,2021_May_18_1103,ComputerHuman,2020.1.3,59.949422007016445,
Human.xlsx,h,Sychronize.jpg,Number7.jpg,7,Human,,,,,0,5,5,4,0,2,2,2,,,,,,,,,,,,,,,,,,,,,,,,,,,,,1182.213262485789,None,1182.213262485789,None,1182.6470883173408,None,1182.6470883173408,None,v,6.113082330116185,1182.6470883173408,None,t,7.9319726276294205,1182.6470883173408,None,6.113082330116185,7.9319726276294205,7.248329818809042,False,False,False,1190.6780628389147,None,1190.6780628389147,None,1190.6780628389147,None,1190.6780628389147,None,1190.6780628389147,None,1190.6780628389147,None,1190.6780628389147,None,1190.6780628389147,None,1191.6632760231278,None,1191.6632760231278,None,1192.6610670630776,None,1192.6610670630776,None,h,,,,,,,,,,,,,,,,,,,,,,,,,,,,,,,,,,,,,,,,,,,,,,,51_52Exp,001,2021_May_18_1103,ComputerHuman,2020.1.3,59.949422007016445,
Human.xlsx,h,Sychronize.jpg,Number9.jpg,9,Human,,,,,0,5,5,4,0,3,3,6,,,,,,,,,,,,,,,,,,,,,,,,,,,,,1193.7109409284433,None,1193.7109409284433,None,1194.161274935008,None,1194.161274935008,None,v,8.614417458162507,1194.161274935008,None,t,7.5339517737122605,1194.161274935008,None,8.614417458162507,7.5339517737122605,9.078892643474978,False,False,False,1202.8589155885984,None,1202.8589155885984,None,1202.8589155885984,None,1202.8589155885984,None,1202.8589155885984,None,1202.8589155885984,None,1202.8589155885984,None,1202.8589155885984,None,1203.8278146757582,None,1203.8278146757582,None,1204.825218201369,None,1204.825218201369,None,h,,,,,,,,,,,,,,,,,,,,,,,,,,,,,,,,,,,,,,,,,,,,,,,51_52Exp,001,2021_May_18_1103,ComputerHuman,2020.1.3,59.949422007016445,
Human.xlsx,h,Sychronize.jpg,Number8.jpg,8,Human,,,,,0,5,5,4,0,4,4,4,,,,,,,,,,,,,,,,,,,,,,,,,,,,,1205.8752357806618,None,1205.8752357806618,None,1206.3254183743388,None,1206.3254183743388,None,v,6.877830651101021,1206.3254183743388,None,t,8.197015754639324,1206.3254183743388,None,6.877830651101021,8.197015754639324,7.937278560490079,False,False,False,1214.5906725811792,None,1214.5906725811792,None,1214.5906725811792,None,1214.5906725811792,None,1214.5906725811792,None,1214.5906725811792,None,1214.5906725811792,None,1214.5906725811792,None,1215.5925322009018,None,1215.5925322009018,None,1216.5727760269772,None,1216.5727760269772,None,h,,,,,,,,,,,,,,,,,,,,,,,,,,,,,,,,,,,,,,,,,,,,,,,51_52Exp,001,2021_May_18_1103,ComputerHuman,2020.1.3,59.949422007016445,
Human.xlsx,h,Sychronize.jpg,Number10.jpg,10,Human,,,,,0,5,5,4,0,5,5,8,,,,,,,,,,,,,,,,,,,,,,,,,,,,,1217.605880915047,None,1217.605880915047,None,1218.0729242319646,None,1218.0729242319646,None,v,9.84573945948182,1218.0729242319646,None,t,8.097009467154976,1218.0729242319646,None,9.84573945948182,8.097009467154976,9.687195405097624,False,False,False,1228.0037019167844,None,1228.0037019167844,None,1228.0037019167844,None,1228.0037019167844,None,1228.0037019167844,None,1228.0037019167844,None,1228.0037019167844,None,1228.0037019167844,None,1228.9886985677367,None,1228.9886985677367,None,1229.9866843272264,None,1229.9866843272264,None,h,,,,,,,,,,,,,,,,,,,,,,,,,,,,,,,,,,,,,,,,,,,,,,,51_52Exp,001,2021_May_18_1103,ComputerHuman,2020.1.3,59.949422007016445,
Human.xlsx,h,Sychronize.jpg,Number6.jpg,6,Human,,,,,0,5,5,4,0,6,6,0,,,,,,,,,,,,,,,,,,,,,,,,,,,,,1231.0366467306364,None,1231.0366467306364,None,1231.486617923693,None,1231.486617923693,None,v,5.1837658438189465,1231.486617923693,None,t,5.099067014317598,1231.486617923693,None,5.1837658438189465,5.099067014317598,5.624055212951384,True,False,False,1236.7357976636222,None,1236.7357976636222,None,1236.7357976636222,None,1236.7357976636222,None,1236.7357976636222,None,1236.7357976636222,None,1236.7357976636222,None,1236.7357976636222,None,1237.7372963945768,None,1237.7372963945768,None,1238.7349289642589,None,1238.7349289642589,None,h,,,,,,,,,,,,,,,,,,,,,,,,,,,,,,,,,,,,,,,,,,,,,,,51_52Exp,001,2021_May_18_1103,ComputerHuman,2020.1.3,59.949422007016445,
Human.xlsx,h,Sychronize.jpg,Number6.jpg,6,Human,,,,,0,5,5,4,0,7,7,1,,,,,,,,,,,,,,,,,,,,,,,,,,,,,1239.7852856185987,None,1239.7852856185987,None,1240.2518082933202,None,1240.2518082933202,None,v,5.598238734496135,1240.2518082933202,None,t,4.789086338707875,1240.2518082933202,None,5.598238734496135,4.789086338707875,5.621388423586341,False,False,False,1245.9182931789778,None,1245.9182931789778,None,1245.9182931789778,None,1245.9182931789778,None,1245.9182931789778,None,1245.9182931789778,None,1245.9182931789778,None,1245.9182931789778,None,1246.9194262093142,None,1246.9194262093142,None,1247.916349512271,None,1247.916349512271,None,h,,,,,,,,,,,,,,,,,,,,,,,,,,,,,,,,,,,,,,,,,,,,,,,51_52Exp,001,2021_May_18_1103,ComputerHuman,2020.1.3,59.949422007016445,
Human.xlsx,h,Sychronize.jpg,Number7.jpg,7,Human,,,,,0,5,5,4,0,8,8,3,,,,,,,,,,,,,,,,,,,,,,,,,,,,,1248.966673766819,None,1248.966673766819,None,1249.3997893692756,None,1249.3997893692756,None,v,6.19384602849118,1249.3997893692756,None,t,6.505035761671024,1249.3997893692756,None,6.19384602849118,6.505035761671024,7.128836687465499,False,False,False,1255.9822474805153,None,1255.9822474805153,None,1255.9822474805153,None,1255.9822474805153,None,1255.9822474805153,None,1255.9822474805153,None,1255.9822474805153,None,1255.9822474805153,None,1256.9840220908836,None,1256.9840220908836,None,1257.98094186515,None,1257.98094186515,None,h,,,,,,,,,,,,,,,,,,,,,,,,,,,,,,,,,,,,,,,,,,,,,,,51_52Exp,001,2021_May_18_1103,ComputerHuman,2020.1.3,59.949422007016445,
Human.xlsx,h,Sychronize.jpg,Number10.jpg,10,Human,,,,,0,5,5,4,0,9,9,9,,,,,,,,,,,,,,,,,,,,,,,,,,,,,1259.0311243305111,None,1259.0311243305111,None,1259.4979180727962,None,1259.4979180727962,None,v,8.923284992416484,1259.4979180727962,None,t,9.010900123953206,1259.4979180727962,None,8.923284992416484,9.010900123953206,9.494033107271036,True,False,False,1268.5954026299648,None,1268.5954026299648,None,1268.5954026299648,None,1268.5954026299648,None,1268.5954026299648,None,1268.5954026299648,None,1268.5954026299648,None,1268.5954026299648,None,1269.564465961613,None,1269.564465961613,None,1270.5616875992846,None,1270.5616875992846,None,h,,,,,,,,,,,,,,,,,,,,,,,,,,,,,,,,,,,,,,,,,,,,,,,51_52Exp,001,2021_May_18_1103,ComputerHuman,2020.1.3,59.949422007016445,
Human.xlsx,h,,,,,,,,,0,5,5,4,,,,,,,,,,,,,,,,,,,,,,,,,,,,,,,,,,,,,,,,,,,,,,,,,,,,,,,,,,,,,,,,,,,,,,,,,,,,,,,h,1271.5629678722382,None,1271.5629678722382,None,a,0,3.301946168869108,1271.5629678722382,None,o,0,2.3171468037764953,1271.5629678722382,None,c,h,1274.9611375727231,None,1274.9611375727231,None,1276.9603708845848,None,None,None,None,None,None,None,None,,,,,,,,,,,,,,,,,,51_52Exp,001,2021_May_18_1103,ComputerHuman,2020.1.3,59.949422007016445,
Computer.xlsx,c,Sychronize.jpg,Number6.jpg,6,Computer,,,,,0,6,6,9,0,0,0,0,,,,,,,,,,,,,,,,,,,,,,,,,1281.96248232447,None,1281.96248232447,None,1285.0256346509677,None,1285.0256346509677,None,1285.4591794704654,None,1285.4591794704654,None,v,5.353135273300268,1285.4591794704654,None,t,4.992020669142448,1285.4591794704654,None,5.353135273300268,4.992020669142448,5.637015442988176,False,True,False,1290.9075117473303,None,1290.9075117473303,None,1290.9075117473303,None,1290.9075117473303,None,1290.9075117473303,None,1290.9075117473303,None,1290.9075117473303,None,1290.9075117473303,None,1291.9238329017637,None,1291.9238329017637,None,1292.907062320518,None,1292.907062320518,None,c,,,,,,,,,,,,,,,,,,,,,,,,,,,,,,,,,,,,,,,,,,,,,,,51_52Exp,001,2021_May_18_1103,ComputerHuman,2020.1.3,59.949422007016445,
Computer.xlsx,c,Sychronize.jpg,Number10.jpg,10,Computer,,,,,0,6,6,9,0,1,1,9,,,,,,,,,,,,,,,,,,,,,,,,,,,,,1293.9569766054258,None,1293.9569766054258,None,1294.4071049855902,None,1294.4071049855902,None,v,9.07677339136626,1294.4071049855902,None,t,7.8478778457283624,1294.4071049855902,None,9.07677339136626,7.8478778457283624,9.849191578551668,False,False,False,1303.5547925386809,None,1303.5547925386809,None,1303.5547925386809,None,1303.5547925386809,None,1303.5547925386809,None,1303.5547925386809,None,1303.5547925386809,None,1303.5547925386809,None,1304.5545006197663,None,1304.5545006197663,None,1305.5379369480809,None,1305.5379369480809,None,c,,,,,,,,,,,,,,,,,,,,,,,,,,,,,,,,,,,,,,,,,,,,,,,51_52Exp,001,2021_May_18_1103,ComputerHuman,2020.1.3,59.949422007016445,
Computer.xlsx,c,Sychronize.jpg,Number7.jpg,7,Computer,,,,,0,6,6,9,0,2,2,2,,,,,,,,,,,,,,,,,,,,,,,,,,,,,1306.6214443634628,None,1306.6214443634628,None,1307.0546061596815,None,1307.0546061596815,None,v,5.576907802383175,1307.0546061596815,None,t,6.8320061181073015,1307.0546061596815,None,5.576907802383175,6.8320061181073015,7.234163573605611,False,False,False,1313.9538790570311,None,1313.9538790570311,None,1313.9538790570311,None,1313.9538790570311,None,1313.9538790570311,None,1313.9538790570311,None,1313.9538790570311,None,1313.9538790570311,None,1314.9691839486943,None,1314.9691839486943,None,1315.9356780731043,None,1315.9356780731043,None,c,,,,,,,,,,,,,,,,,,,,,,,,,,,,,,,,,,,,,,,,,,,,,,,51_52Exp,001,2021_May_18_1103,ComputerHuman,2020.1.3,59.949422007016445,
Computer.xlsx,c,Sychronize.jpg,Number6.jpg,6,Computer,,,,,0,6,6,9,0,3,3,1,,,,,,,,,,,,,,,,,,,,,,,,,,,,,1316.986054295635,None,1316.986054295635,None,1317.4359808988795,None,1317.4359808988795,None,v,5.179184641600841,1317.4359808988795,None,t,5.326036536699576,1317.4359808988795,None,5.179184641600841,5.326036536699576,5.8344904091178655,False,False,False,1322.8341836407355,None,1322.8341836407355,None,1322.8341836407355,None,1322.8341836407355,None,1322.8341836407355,None,1322.8341836407355,None,1322.8341836407355,None,1322.8341836407355,None,1323.8506632654369,None,1323.8506632654369,None,1324.8339080821117,None,1324.8339080821117,None,c,,,,,,,,,,,,,,,,,,,,,,,,,,,,,,,,,,,,,,,,,,,,,,,51_52Exp,001,2021_May_18_1103,ComputerHuman,2020.1.3,59.949422007016445,
Computer.xlsx,c,Sychronize.jpg,Number10.jpg,10,Computer,,,,,0,6,6,9,0,4,4,8,,,,,,,,,,,,,,,,,,,,,,,,,,,,,1325.88382974519,None,1325.88382974519,None,1326.3336116721373,None,1326.3336116721373,None,v,8.069089828903543,1326.3336116721373,None,t,7.655970672093645,1326.3336116721373,None,8.069089828903543,7.655970672093645,9.38581137175003,False,False,False,1334.4832380800847,None,1334.4832380800847,None,1334.4832380800847,None,1334.4832380800847,None,1334.4832380800847,None,1334.4832380800847,None,1334.4832380800847,None,1334.4832380800847,None,1335.4814320322946,None,1335.4814320322946,None,1336.4647685949142,None,1336.4647685949142,None,c,,,,,,,,,,,,,,,,,,,,,,,,,,,,,,,,,,,,,,,,,,,,,,,51_52Exp,001,2021_May_18_1103,ComputerHuman,2020.1.3,59.949422007016445,
Computer.xlsx,c,Sychronize.jpg,Number8.jpg,8,Computer,,,,,0,6,6,9,0,5,5,5,,,,,,,,,,,,,,,,,,,,,,,,,,,,,1337.5150761683815,None,1337.5150761683815,None,1337.9649177622716,None,1337.9649177622716,None,v,7.4892066991224056,1337.9649177622716,None,t,7.860934961749081,1337.9649177622716,None,7.4892066991224056,7.860934961749081,8.376944088864434,False,False,False,1345.9128564297869,None,1345.9128564297869,None,1345.9128564297869,None,1345.9128564297869,None,1345.9128564297869,None,1345.9128564297869,None,1345.9128564297869,None,1345.9128564297869,None,1346.9125885701235,None,1346.9125885701235,None,1347.895787513826,None,1347.895787513826,None,c,,,,,,,,,,,,,,,,,,,,,,,,,,,,,,,,,,,,,,,,,,,,,,,51_52Exp,001,2021_May_18_1103,ComputerHuman,2020.1.3,59.949422007016445,
Computer.xlsx,c,Sychronize.jpg,Number9.jpg,9,Computer,,,,,0,6,6,9,0,6,6,7,,,,,,,,,,,,,,,,,,,,,,,,,,,,,1348.945964846547,None,1348.945964846547,None,1349.3789101095047,None,1349.3789101095047,None,v,6.9709842222637235,1349.3789101095047,None,t,7.565939991736286,1349.3789101095047,None,6.9709842222637235,7.565939991736286,9.325649897530097,False,False,False,1357.0274602669485,None,1357.0274602669485,None,1357.0274602669485,None,1357.0274602669485,None,1357.0274602669485,None,1357.0274602669485,None,1357.0274602669485,None,1357.0274602669485,None,1358.0437089228383,None,1358.0437089228383,None,1359.026725657812,None,1359.026725657812,None,c,,,,,,,,,,,,,,,,,,,,,,,,,,,,,,,,,,,,,,,,,,,,,,,51_52Exp,001,2021_May_18_1103,ComputerHuman,2020.1.3,59.949422007016445,
Computer.xlsx,c,Sychronize.jpg,Number9.jpg,9,Computer,,,,,0,6,6,9,0,7,7,6,,,,,,,,,,,,,,,,,,,,,,,,,,,,,1360.0604095718606,None,1360.0604095718606,None,1360.5270631289088,None,1360.5270631289088,None,v,8.25035254822751,1360.5270631289088,None,t,10.861835740113747,1360.5270631289088,None,8.25035254822751,10.861835740113747,8.982356922242227,False,False,False,1371.4411369568063,None,1371.4411369568063,None,1371.4411369568063,None,1371.4411369568063,None,1371.4411369568063,None,1371.4411369568063,None,1371.4411369568063,None,1371.4411369568063,None,1372.4572540887896,None,1372.4572540887896,None,1373.4571536815145,None,1373.4571536815145,None,c,,,,,,,,,,,,,,,,,,,,,,,,,,,,,,,,,,,,,,,,,,,,,,,51_52Exp,001,2021_May_18_1103,ComputerHuman,2020.1.3,59.949422007016445,
Computer.xlsx,c,Sychronize.jpg,Number7.jpg,7,Computer,,,,,0,6,6,9,0,8,8,3,,,,,,,,,,,,,,,,,,,,,,,,,,,,,1374.5067468556165,None,1374.5067468556165,None,1374.9571260935734,None,1374.9571260935734,None,v,6.407837028406902,1374.9571260935734,None,t,4.826938598224842,1374.9571260935734,None,6.407837028406902,4.826938598224842,7.243873857572692,False,False,False,1381.4555038584624,None,1381.4555038584624,None,1381.4555038584624,None,1381.4555038584624,None,1381.4555038584624,None,1381.4555038584624,None,1381.4555038584624,None,1381.4555038584624,None,1382.4552488303996,None,1382.4552488303996,None,1383.4217872238316,None,1383.4217872238316,None,c,,,,,,,,,,,,,,,,,,,,,,,,,,,,,,,,,,,,,,,,,,,,,,,51_52Exp,001,2021_May_18_1103,ComputerHuman,2020.1.3,59.949422007016445,
Computer.xlsx,c,Sychronize.jpg,Number8.jpg,8,Computer,,,,,0,6,6,9,0,9,9,4,,,,,,,,,,,,,,,,,,,,,,,,,,,,,1384.488703379587,None,1384.488703379587,None,1384.9216685315262,None,1384.9216685315262,None,v,7.926885860345919,1384.9216685315262,None,t,6.713992924655486,1384.9216685315262,None,7.926885860345919,6.713992924655486,7.929031554863219,False,True,False,1392.9364466859827,None,1392.9364466859827,None,1392.9364466859827,None,1392.9364466859827,None,1392.9364466859827,None,1392.9364466859827,None,1392.9364466859827,None,1392.9364466859827,None,1393.9362323982516,None,1393.9362323982516,None,1394.91934087917,None,1394.91934087917,None,c,,,,,,,,,,,,,,,,,,,,,,,,,,,,,,,,,,,,,,,,,,,,,,,51_52Exp,001,2021_May_18_1103,ComputerHuman,2020.1.3,59.949422007016445,
Computer.xlsx,c,,,,,,,,,0,6,6,9,,,,,,,,,,,,,,,,,,,,,,,,,,,,,,,,,,,,,,,,,,,,,,,,,,,,,,,,,,,,,,,,,,,,,,,,,,,,,,,c,1395.9200722804064,None,1395.9200722804064,None,q,0,4.848179067553247,1395.9200722804064,None,o,0,2.403141304152541,1395.9200722804064,None,h,h,1400.835935475013,None,1400.835935475013,None,1402.8344136471771,None,None,None,None,None,None,None,None,,,,,,,,,,,,,,,,,,51_52Exp,001,2021_May_18_1103,ComputerHuman,2020.1.3,59.949422007016445,
Human.xlsx,h,Sychronize.jpg,Number8.jpg,8,Human,,,,,0,7,7,2,0,0,0,4,,,,,,,,,,,,,,,,,,,,,,,,,1407.8530576421165,None,1407.8530576421165,None,1410.932864103084,None,1410.932864103084,None,1411.3666232103126,None,1411.3666232103126,None,v,7.236953149259989,1411.3666232103126,None,t,8.723922017230052,1411.3666232103126,None,7.236953149259989,8.723922017230052,8.419355718573508,False,False,False,1420.1655953349434,None,1420.1655953349434,None,1420.1655953349434,None,1420.1655953349434,None,1420.1655953349434,None,1420.1655953349434,None,1420.1655953349434,None,1420.1655953349434,None,1421.1666815299375,None,1421.1666815299375,None,1422.1638242532651,None,1422.1638242532651,None,h,,,,,,,,,,,,,,,,,,,,,,,,,,,,,,,,,,,,,,,,,,,,,,,51_52Exp,001,2021_May_18_1103,ComputerHuman,2020.1.3,59.949422007016445,
Human.xlsx,h,Sychronize.jpg,Number6.jpg,6,Human,,,,,0,7,7,2,0,1,1,0,,,,,,,,,,,,,,,,,,,,,,,,,,,,,1423.230664060996,None,1423.230664060996,None,1423.680455290854,None,1423.680455290854,None,v,5.39875097199365,1423.680455290854,None,t,4.970014794835606,1423.680455290854,None,5.39875097199365,4.970014794835606,5.681965244942078,False,False,False,1429.1623425241812,None,1429.1623425241812,None,1429.1623425241812,None,1429.1623425241812,None,1429.1623425241812,None,1429.1623425241812,None,1429.1623425241812,None,1429.1623425241812,None,1430.1475217046525,None,1430.1475217046525,None,1431.1453345583234,None,1431.1453345583234,None,h,,,,,,,,,,,,,,,,,,,,,,,,,,,,,,,,,,,,,,,,,,,,,,,51_52Exp,001,2021_May_18_1103,ComputerHuman,2020.1.3,59.949422007016445,
Human.xlsx,h,Sychronize.jpg,Number9.jpg,9,Human,,,,,0,7,7,2,0,2,2,7,,,,,,,,,,,,,,,,,,,,,,,,,,,,,1432.1956386031004,None,1432.1956386031004,None,1432.6288196467206,None,1432.6288196467206,None,v,7.9699240112609,1432.6288196467206,None,t,8.208954596664626,1432.6288196467206,None,7.9699240112609,8.208954596664626,8.990626100778579,True,False,False,1440.9112255333455,None,1440.9112255333455,None,1440.9112255333455,None,1440.9112255333455,None,1440.9112255333455,None,1440.9112255333455,None,1440.9112255333455,None,1440.9112255333455,None,1441.9121731470525,None,1441.9121731470525,None,1442.9094990414794,None,1442.9094990414794,None,h,,,,,,,,,,,,,,,,,,,,,,,,,,,,,,,,,,,,,,,,,,,,,,,51_52Exp,001,2021_May_18_1103,ComputerHuman,2020.1.3,59.949422007016445,
Human.xlsx,h,Sychronize.jpg,Number7.jpg,7,Human,,,,,0,7,7,2,0,3,3,3,,,,,,,,,,,,,,,,,,,,,,,,,,,,,1443.9606364987183,None,1443.9606364987183,None,1444.4092029522947,None,1444.4092029522947,None,v,6.121165917728831,1444.4092029522947,None,t,6.839991543974975,1444.4092029522947,None,6.121165917728831,6.839991543974975,7.368101680197895,False,False,False,1451.3256997071828,None,1451.3256997071828,None,1451.3256997071828,None,1451.3256997071828,None,1451.3256997071828,None,1451.3256997071828,None,1451.3256997071828,None,1451.3256997071828,None,1452.309251519903,None,1452.309251519903,None,1453.3073745775193,None,1453.3073745775193,None,h,,,,,,,,,,,,,,,,,,,,,,,,,,,,,,,,,,,,,,,,,,,,,,,51_52Exp,001,2021_May_18_1103,ComputerHuman,2020.1.3,59.949422007016445,
Human.xlsx,h,Sychronize.jpg,Number10.jpg,10,Human,,,,,0,7,7,2,0,4,4,9,,,,,,,,,,,,,,,,,,,,,,,,,,,,,1454.3739170129058,None,1454.3739170129058,None,1454.8072199567316,None,1454.8072199567316,None,v,8.710693278550934,1454.8072199567316,None,t,7.3459277632209705,1454.8072199567316,None,8.710693278550934,7.3459277632209705,9.72650928816714,False,False,False,1463.6051212842892,None,1463.6051212842892,None,1463.6051212842892,None,1463.6051212842892,None,1463.6051212842892,None,1463.6051212842892,None,1463.6051212842892,None,1463.6051212842892,None,1464.5913279551817,None,1464.5913279551817,None,1465.5881482845432,None,1465.5881482845432,None,h,,,,,,,,,,,,,,,,,,,,,,,,,,,,,,,,,,,,,,,,,,,,,,,51_52Exp,001,2021_May_18_1103,ComputerHuman,2020.1.3,59.949422007016445,
Human.xlsx,h,Sychronize.jpg,Number6.jpg,6,Human,,,,,0,7,7,2,0,5,5,1,,,,,,,,,,,,,,,,,,,,,,,,,,,,,1466.6383169559338,None,1466.6383169559338,None,1467.0716195789694,None,1467.0716195789694,None,v,4.733935477579507,1467.0716195789694,None,t,7.484986385671618,1467.0716195789694,None,4.733935477579507,7.484986385671618,5.7603713209392895,False,False,False,1474.6379663324462,None,1474.6379663324462,None,1474.6379663324462,None,1474.6379663324462,None,1474.6379663324462,None,1474.6379663324462,None,1474.6379663324462,None,1474.6379663324462,None,1475.6388908492725,None,1475.6388908492725,None,1476.6358837636624,None,1476.6358837636624,None,h,,,,,,,,,,,,,,,,,,,,,,,,,,,,,,,,,,,,,,,,,,,,,,,51_52Exp,001,2021_May_18_1103,ComputerHuman,2020.1.3,59.949422007016445,
Human.xlsx,h,Sychronize.jpg,Number9.jpg,9,Human,,,,,0,7,7,2,0,6,6,6,,,,,,,,,,,,,,,,,,,,,,,,,,,,,1477.6861457849475,None,1477.6861457849475,None,1478.1360656516015,None,1478.1360656516015,None,v,7.809046214292721,1478.1360656516015,None,t,7.871981686739673,1478.1360656516015,None,7.809046214292721,7.871981686739673,9.638828008842445,True,False,False,1486.085430551528,None,1486.085430551528,None,1486.085430551528,None,1486.085430551528,None,1486.085430551528,None,1486.085430551528,None,1486.085430551528,None,1486.085430551528,None,1487.0688992796338,None,1487.0688992796338,None,1488.0668827935935,None,1488.0668827935935,None,h,,,,,,,,,,,,,,,,,,,,,,,,,,,,,,,,,,,,,,,,,,,,,,,51_52Exp,001,2021_May_18_1103,ComputerHuman,2020.1.3,59.949422007016445,
Human.xlsx,h,Sychronize.jpg,Number10.jpg,10,Human,,,,,0,7,7,2,0,7,7,8,,,,,,,,,,,,,,,,,,,,,,,,,,,,,1489.1170809776652,None,1489.1170809776652,None,1489.5671612393273,None,1489.5671612393273,None,v,8.789470645147503,1489.5671612393273,None,t,7.716985253924577,1489.5671612393273,None,8.789470645147503,7.716985253924577,9.412361935885412,False,False,False,1498.4331730238694,None,1498.4331730238694,None,1498.4331730238694,None,1498.4331730238694,None,1498.4331730238694,None,1498.4331730238694,None,1498.4331730238694,None,1498.4331730238694,None,1499.4339114824863,None,1499.4339114824863,None,1500.414282341408,None,1500.414282341408,None,h,,,,,,,,,,,,,,,,,,,,,,,,,,,,,,,,,,,,,,,,,,,,,,,51_52Exp,001,2021_May_18_1103,ComputerHuman,2020.1.3,59.949422007016445,
Human.xlsx,h,Sychronize.jpg,Number8.jpg,8,Human,,,,,0,7,7,2,0,8,8,5,,,,,,,,,,,,,,,,,,,,,,,,,,,,,1501.4814724518367,None,1501.4814724518367,None,1501.9143346301805,None,1501.9143346301805,None,v,6.5698638952121655,1501.9143346301805,None,t,7.828947064514523,1501.9143346301805,None,6.5698638952121655,7.828947064514523,7.482048804617182,False,False,False,1509.8290400936191,None,1509.8290400936191,None,1509.8290400936191,None,1509.8290400936191,None,1509.8290400936191,None,1509.8290400936191,None,1509.8290400936191,None,1509.8290400936191,None,1510.8142725252335,None,1510.8142725252335,None,1511.8119856132096,None,1511.8119856132096,None,h,,,,,,,,,,,,,,,,,,,,,,,,,,,,,,,,,,,,,,,,,,,,,,,51_52Exp,001,2021_May_18_1103,ComputerHuman,2020.1.3,59.949422007016445,
Human.xlsx,h,Sychronize.jpg,Number7.jpg,7,Human,,,,,0,7,7,2,0,9,9,2,,,,,,,,,,,,,,,,,,,,,,,,,,,,,1512.8617686950004,None,1512.8617686950004,None,1513.3117963470997,None,1513.3117963470997,None,v,6.036015095095081,1513.3117963470997,None,t,6.463005532986244,1513.3117963470997,None,6.036015095095081,6.463005532986244,6.930889961287494,False,False,False,1519.8603379715294,None,1519.8603379715294,None,1519.8603379715294,None,1519.8603379715294,None,1519.8603379715294,None,1519.8603379715294,None,1519.8603379715294,None,1519.8603379715294,None,1520.829191185717,None,1520.829191185717,None,1521.826586691577,None,1521.826586691577,None,h,,,,,,,,,,,,,,,,,,,,,,,,,,,,,,,,,,,,,,,,,,,,,,,51_52Exp,001,2021_May_18_1103,ComputerHuman,2020.1.3,59.949422007016445,
Human.xlsx,h,,,,,,,,,0,7,7,2,,,,,,,,,,,,,,,,,,,,,,,,,,,,,,,,,,,,,,,,,,,,,,,,,,,,,,,,,,,,,,,,,,,,,,,,,,,,,,,h,1522.8271625096556,None,1522.8271625096556,None,q,1,5.312292930044805,1522.8271625096556,None,o,0,2.160112712780119,1522.8271625096556,None,h,h,1528.2258711373672,None,1528.2258711373672,None,1530.2248481380063,None,None,None,None,None,None,None,None,,,,,,,,,,,,,,,,,,51_52Exp,001,2021_May_18_1103,ComputerHuman,2020.1.3,59.949422007016445,
Computer.xlsx,c,Sychronize.jpg,Number8.jpg,8,Computer,,,,,0,8,8,3,0,0,0,4,,,,,,,,,,,,,,,,,,,,,,,,,1535.2099435922835,None,1535.2099435922835,None,1538.2898321754953,None,1538.2898321754953,None,1538.7236567238872,None,1538.7236567238872,None,v,6.451137906344684,1538.7236567238872,None,t,6.21004207481883,1538.7236567238872,None,6.451137906344684,6.21004207481883,7.436450408420051,False,False,False,1545.25641483795,None,1545.25641483795,None,1545.25641483795,None,1545.25641483795,None,1545.25641483795,None,1545.25641483795,None,1545.25641483795,None,1545.25641483795,None,1546.2715359169335,None,1546.2715359169335,None,1547.2546713442127,None,1547.2546713442127,None,c,,,,,,,,,,,,,,,,,,,,,,,,,,,,,,,,,,,,,,,,,,,,,,,51_52Exp,001,2021_May_18_1103,ComputerHuman,2020.1.3,59.949422007016445,
Computer.xlsx,c,Sychronize.jpg,Number6.jpg,6,Computer,,,,,0,8,8,3,0,1,1,1,,,,,,,,,,,,,,,,,,,,,,,,,,,,,1548.3214729779322,None,1548.3214729779322,None,1548.771168291575,None,1548.771168291575,None,v,4.899362397764435,1548.771168291575,None,t,6.239319617207457,1548.771168291575,None,4.899362397764435,6.239319617207457,5.984414226239423,False,False,True,1555.1030637371266,None,1555.1030637371266,None,1555.1030637371266,None,1555.1030637371266,None,1555.1030637371266,None,1555.1030637371266,None,1555.1030637371266,None,1555.1030637371266,None,1556.0861298737625,None,1556.0861298737625,None,1557.0860082943466,None,1557.0860082943466,None,c,,,,,,,,,,,,,,,,,,,,,,,,,,,,,,,,,,,,,,,,,,,,,,,51_52Exp,001,2021_May_18_1103,ComputerHuman,2020.1.3,59.949422007016445,
Computer.xlsx,c,Sychronize.jpg,Number9.jpg,9,Computer,,,,,0,8,8,3,0,2,2,6,,,,,,,,,,,,,,,,,,,,,,,,,,,,,1558.1529408103927,None,1558.1529408103927,None,1558.5858475785487,None,1558.5858475785487,None,v,7.868166531079169,1558.5858475785487,None,t,7.62395454533771,1558.5858475785487,None,7.868166531079169,7.62395454533771,8.997793317260609,False,False,False,1566.5355034350193,None,1566.5355034350193,None,1566.5355034350193,None,1566.5355034350193,None,1566.5355034350193,None,1566.5355034350193,None,1566.5355034350193,None,1566.5355034350193,None,1567.533749034422,None,1567.533749034422,None,1568.5169059546326,None,1568.5169059546326,None,c,,,,,,,,,,,,,,,,,,,,,,,,,,,,,,,,,,,,,,,,,,,,,,,51_52Exp,001,2021_May_18_1103,ComputerHuman,2020.1.3,59.949422007016445,
Computer.xlsx,c,Sychronize.jpg,Number10.jpg,10,Computer,,,,,0,8,8,3,0,3,3,8,,,,,,,,,,,,,,,,,,,,,,,,,,,,,1569.5668930588738,None,1569.5668930588738,None,1570.0170708407006,None,1570.0170708407006,None,v,9.276486669250062,1570.0170708407006,None,t,9.195921219105003,1570.0170708407006,None,9.276486669250062,9.195921219105003,9.917249690038444,False,False,False,1579.365852031114,None,1579.365852031114,None,1579.365852031114,None,1579.365852031114,None,1579.365852031114,None,1579.365852031114,None,1579.365852031114,None,1579.365852031114,None,1580.3811675088475,None,1580.3811675088475,None,1581.3642872174162,None,1581.3642872174162,None,c,,,,,,,,,,,,,,,,,,,,,,,,,,,,,,,,,,,,,,,,,,,,,,,51_52Exp,001,2021_May_18_1103,ComputerHuman,2020.1.3,59.949422007016445,
Computer.xlsx,c,Sychronize.jpg,Number6.jpg,6,Computer,,,,,0,8,8,3,0,4,4,0,,,,,,,,,,,,,,,,,,,,,,,,,,,,,1582.4142406387057,None,1582.4142406387057,None,1582.8478868278487,None,1582.8478868278487,None,v,4.893377097645953,1582.8478868278487,None,t,5.833008907697149,1582.8478868278487,None,4.893377097645953,5.833008907697149,6.18676014149299,False,False,False,1588.779416123676,None,1588.779416123676,None,1588.779416123676,None,1588.779416123676,None,1588.779416123676,None,1588.779416123676,None,1588.779416123676,None,1588.779416123676,None,1589.7625922912878,None,1589.7625922912878,None,1590.7624886761125,None,1590.7624886761125,None,c,,,,,,,,,,,,,,,,,,,,,,,,,,,,,,,,,,,,,,,,,,,,,,,51_52Exp,001,2021_May_18_1103,ComputerHuman,2020.1.3,59.949422007016445,
Computer.xlsx,c,Sychronize.jpg,Number7.jpg,7,Computer,,,,,0,8,8,3,0,5,5,2,,,,,,,,,,,,,,,,,,,,,,,,,,,,,1591.8118909801544,None,1591.8118909801544,None,1592.2624463318305,None,1592.2624463318305,None,v,6.898420237487244,1592.2624463318305,None,t,5.742040558123335,1592.2624463318305,None,6.898420237487244,5.742040558123335,7.308780142989165,False,False,False,1599.2437994497811,None,1599.2437994497811,None,1599.2437994497811,None,1599.2437994497811,None,1599.2437994497811,None,1599.2437994497811,None,1599.2437994497811,None,1599.2437994497811,None,1600.243723422547,None,1600.243723422547,None,1601.2102406438382,None,1601.2102406438382,None,c,,,,,,,,,,,,,,,,,,,,,,,,,,,,,,,,,,,,,,,,,,,,,,,51_52Exp,001,2021_May_18_1103,ComputerHuman,2020.1.3,59.949422007016445,
Computer.xlsx,c,Sychronize.jpg,Number10.jpg,10,Computer,,,,,0,8,8,3,0,6,6,9,,,,,,,,,,,,,,,,,,,,,,,,,,,,,1602.2764789702899,None,1602.2764789702899,None,1602.7102897247107,None,1602.7102897247107,None,v,8.54608308974639,1602.7102897247107,None,t,8.300934397158471,1602.7102897247107,None,8.54608308974639,8.300934397158471,10.323862177060466,False,False,False,1611.341376715264,None,1611.341376715264,None,1611.341376715264,None,1611.341376715264,None,1611.341376715264,None,1611.341376715264,None,1611.341376715264,None,1611.341376715264,None,1612.341054642088,None,1612.341054642088,None,1613.324379335477,None,1613.324379335477,None,c,,,,,,,,,,,,,,,,,,,,,,,,,,,,,,,,,,,,,,,,,,,,,,,51_52Exp,001,2021_May_18_1103,ComputerHuman,2020.1.3,59.949422007016445,
Computer.xlsx,c,Sychronize.jpg,Number9.jpg,9,Computer,,,,,0,8,8,3,0,7,7,7,,,,,,,,,,,,,,,,,,,,,,,,,,,,,1614.375097520165,None,1614.375097520165,None,1614.8245182375538,None,1614.8245182375538,None,v,8.763405173188403,1614.8245182375538,None,t,8.50294228602661,1614.8245182375538,None,8.763405173188403,8.50294228602661,8.843793864073128,False,True,False,1623.6722530109353,None,1623.6722530109353,None,1623.6722530109353,None,1623.6722530109353,None,1623.6722530109353,None,1623.6722530109353,None,1623.6722530109353,None,1623.6722530109353,None,1624.672050913225,None,1624.672050913225,None,1625.6552161739758,None,1625.6552161739758,None,c,,,,,,,,,,,,,,,,,,,,,,,,,,,,,,,,,,,,,,,,,,,,,,,51_52Exp,001,2021_May_18_1103,ComputerHuman,2020.1.3,59.949422007016445,
Computer.xlsx,c,Sychronize.jpg,Number7.jpg,7,Computer,,,,,0,8,8,3,0,8,8,3,,,,,,,,,,,,,,,,,,,,,,,,,,,,,1626.722390565694,None,1626.722390565694,None,1627.155518358171,None,1627.155518358171,None,v,6.780031719717044,1627.155518358171,None,t,7.750930932626488,1627.155518358171,None,6.780031719717044,7.750930932626488,6.876879828616184,False,True,False,1634.9873053766971,None,1634.9873053766971,None,1634.9873053766971,None,1634.9873053766971,None,1634.9873053766971,None,1634.9873053766971,None,1634.9873053766971,None,1634.9873053766971,None,1635.9861575900202,None,1635.9861575900202,None,1636.9695137208307,None,1636.9695137208307,None,c,,,,,,,,,,,,,,,,,,,,,,,,,,,,,,,,,,,,,,,,,,,,,,,51_52Exp,001,2021_May_18_1103,ComputerHuman,2020.1.3,59.949422007016445,
Computer.xlsx,c,Sychronize.jpg,Number8.jpg,8,Computer,,,,,0,8,8,3,0,9,9,5,,,,,,,,,,,,,,,,,,,,,,,,,,,,,1638.0191797142659,None,1638.0191797142659,None,1638.469439618337,None,1638.469439618337,None,v,7.513641916219967,1638.469439618337,None,t,7.856987640602256,1638.469439618337,None,7.513641916219967,7.856987640602256,8.439806018962532,False,False,False,1646.402529878382,None,1646.402529878382,None,1646.402529878382,None,1646.402529878382,None,1646.402529878382,None,1646.402529878382,None,1646.402529878382,None,1646.402529878382,None,1647.417237459035,None,1647.417237459035,None,1648.4005518871434,None,1648.4005518871434,None,c,,,,,,,,,,,,,,,,,,,,,,,,,,,,,,,,,,,,,,,,,,,,,,,51_52Exp,001,2021_May_18_1103,ComputerHuman,2020.1.3,59.949422007016445,
Computer.xlsx,c,,,,,,,,,0,8,8,3,,,,,,,,,,,,,,,,,,,,,,,,,,,,,,,,,,,,,,,,,,,,,,,,,,,,,,,,,,,,,,,,,,,,,,,,,,,,,,,c,1649.4008630534588,None,1649.4008630534588,None,a,1,7.6817865694206375,1649.4008630534588,None,o,0,2.3011332869687067,1649.4008630534588,None,c,h,1657.1821497037183,None,1657.1821497037183,None,1659.1815953785706,None,None,None,None,None,None,None,None,,,,,,,,,,,,,,,,,,51_52Exp,001,2021_May_18_1103,ComputerHuman,2020.1.3,59.949422007016445,
Human.xlsx,h,Sychronize.jpg,Number8.jpg,8,Human,,,,,0,9,9,0,0,0,0,5,,,,,,,,,,,,,,,,,,,,,,,,,1664.1830549731433,None,1664.1830549731433,None,1667.2471667825787,None,1667.2471667825787,None,1667.680118461337,None,1667.680118461337,None,v,6.877866579582587,1667.680118461337,None,t,7.43698914189963,1667.680118461337,None,6.877866579582587,7.43698914189963,7.528027160788604,False,False,False,1675.1965239835447,None,1675.1965239835447,None,1675.1965239835447,None,1675.1965239835447,None,1675.1965239835447,None,1675.1965239835447,None,1675.1965239835447,None,1675.1965239835447,None,1676.2129943053358,None,1676.2129943053358,None,1677.2112354136777,None,1677.2112354136777,None,h,,,,,,,,,,,,,,,,,,,,,,,,,,,,,,,,,,,,,,,,,,,,,,,51_52Exp,001,2021_May_18_1103,ComputerHuman,2020.1.3,59.949422007016445,
Human.xlsx,h,Sychronize.jpg,Number9.jpg,9,Human,,,,,0,9,9,0,0,1,1,6,,,,,,,,,,,,,,,,,,,,,,,,,,,,,1678.2616648873516,None,1678.2616648873516,None,1678.7115690352946,None,1678.7115690352946,None,v,8.297916404688294,1678.7115690352946,None,t,7.269001355016826,1678.7115690352946,None,8.297916404688294,7.269001355016826,8.673509664848241,False,False,False,1687.092473817119,None,1687.092473817119,None,1687.092473817119,None,1687.092473817119,None,1687.092473817119,None,1687.092473817119,None,1687.092473817119,None,1687.092473817119,None,1688.0616596905531,None,1688.0616596905531,None,1689.0587902238601,None,1689.0587902238601,None,h,,,,,,,,,,,,,,,,,,,,,,,,,,,,,,,,,,,,,,,,,,,,,,,51_52Exp,001,2021_May_18_1103,ComputerHuman,2020.1.3,59.949422007016445,
Human.xlsx,h,Sychronize.jpg,Number9.jpg,9,Human,,,,,0,9,9,0,0,2,2,7,,,,,,,,,,,,,,,,,,,,,,,,,,,,,1690.1251235041561,None,1690.1251235041561,None,1690.575783754167,None,1690.575783754167,None,v,7.569320156135291,1690.575783754167,None,t,9.080907412302622,1690.575783754167,None,7.569320156135291,9.080907412302622,9.020132403518224,False,False,False,1699.7247461267814,None,1699.7247461267814,None,1699.7247461267814,None,1699.7247461267814,None,1699.7247461267814,None,1699.7247461267814,None,1699.7247461267814,None,1699.7247461267814,None,1700.7081744353452,None,1700.7081744353452,None,1701.7061913114665,None,1701.7061913114665,None,h,,,,,,,,,,,,,,,,,,,,,,,,,,,,,,,,,,,,,,,,,,,,,,,51_52Exp,001,2021_May_18_1103,ComputerHuman,2020.1.3,59.949422007016445,
Human.xlsx,h,Sychronize.jpg,Number8.jpg,8,Human,,,,,0,9,9,0,0,3,3,4,,,,,,,,,,,,,,,,,,,,,,,,,,,,,1702.7726439256487,None,1702.7726439256487,None,1703.2062301270587,None,1703.2062301270587,None,v,6.726485450248219,1703.2062301270587,None,t,6.333977372755726,1703.2062301270587,None,6.726485450248219,6.333977372755726,8.472302765497895,False,False,False,1710.0211621965648,None,1710.0211621965648,None,1710.0211621965648,None,1710.0211621965648,None,1710.0211621965648,None,1710.0211621965648,None,1710.0211621965648,None,1710.0211621965648,None,1711.0070532100815,None,1711.0070532100815,None,1712.0035582028574,None,1712.0035582028574,None,h,,,,,,,,,,,,,,,,,,,,,,,,,,,,,,,,,,,,,,,,,,,,,,,51_52Exp,001,2021_May_18_1103,ComputerHuman,2020.1.3,59.949422007016445,
Human.xlsx,h,Sychronize.jpg,Number7.jpg,7,Human,,,,,0,9,9,0,0,4,4,3,,,,,,,,,,,,,,,,,,,,,,,,,,,,,1713.0546651850443,None,1713.0546651850443,None,1713.5043540828872,None,1713.5043540828872,None,v,5.639988913497291,1713.5043540828872,None,t,4.8630977280367915,1713.5043540828872,None,5.639988913497291,4.8630977280367915,6.885407070618031,False,False,False,1719.2208809278789,None,1719.2208809278789,None,1719.2208809278789,None,1719.2208809278789,None,1719.2208809278789,None,1719.2208809278789,None,1719.2208809278789,None,1719.2208809278789,None,1720.2041462751147,None,1720.2041462751147,None,1721.2021519235852,None,1721.2021519235852,None,h,,,,,,,,,,,,,,,,,,,,,,,,,,,,,,,,,,,,,,,,,,,,,,,51_52Exp,001,2021_May_18_1103,ComputerHuman,2020.1.3,59.949422007016445,
Human.xlsx,h,Sychronize.jpg,Number10.jpg,10,Human,,,,,0,9,9,0,0,5,5,8,,,,,,,,,,,,,,,,,,,,,,,,,,,,,1722.2692493256993,None,1722.2692493256993,None,1722.7020733300312,None,1722.7020733300312,None,v,8.841777702784384,1722.7020733300312,None,t,10.492879744805123,1722.7020733300312,None,8.841777702784384,10.492879744805123,10.734063697261533,False,False,False,1733.2673213777032,None,1733.2673213777032,None,1733.2673213777032,None,1733.2673213777032,None,1733.2673213777032,None,1733.2673213777032,None,1733.2673213777032,None,1733.2673213777032,None,1734.2677538026448,None,1734.2677538026448,None,1735.265893220552,None,1735.265893220552,None,h,,,,,,,,,,,,,,,,,,,,,,,,,,,,,,,,,,,,,,,,,,,,,,,51_52Exp,001,2021_May_18_1103,ComputerHuman,2020.1.3,59.949422007016445,
Human.xlsx,h,Sychronize.jpg,Number7.jpg,7,Human,,,,,0,9,9,0,0,6,6,2,,,,,,,,,,,,,,,,,,,,,,,,,,,,,1736.3324055016772,None,1736.3324055016772,None,1736.765992344667,None,1736.765992344667,None,v,5.689484567434192,1736.765992344667,None,t,6.829006731457866,1736.765992344667,None,5.689484567434192,6.829006731457866,7.151510600207658,False,False,False,1743.6659645642515,None,1743.6659645642515,None,1743.6659645642515,None,1743.6659645642515,None,1743.6659645642515,None,1743.6659645642515,None,1743.6659645642515,None,1743.6659645642515,None,1744.6663924981328,None,1744.6663924981328,None,1745.6638037227042,None,1745.6638037227042,None,h,,,,,,,,,,,,,,,,,,,,,,,,,,,,,,,,,,,,,,,,,,,,,,,51_52Exp,001,2021_May_18_1103,ComputerHuman,2020.1.3,59.949422007016445,
Human.xlsx,h,Sychronize.jpg,Number6.jpg,6,Human,,,,,0,9,9,0,0,7,7,0,,,,,,,,,,,,,,,,,,,,,,,,,,,,,1746.7139954909755,None,1746.7139954909755,None,1747.164103019789,None,1747.164103019789,None,v,4.515083225761828,1747.164103019789,None,t,4.954563622925434,1747.164103019789,None,4.515083225761828,4.954563622925434,5.644033222395454,False,False,False,1752.1963234897846,None,1752.1963234897846,None,1752.1963234897846,None,1752.1963234897846,None,1752.1963234897846,None,1752.1963234897846,None,1752.1963234897846,None,1752.1963234897846,None,1753.1814519854336,None,1753.1814519854336,None,1754.1787188544974,None,1754.1787188544974,None,h,,,,,,,,,,,,,,,,,,,,,,,,,,,,,,,,,,,,,,,,,,,,,,,51_52Exp,001,2021_May_18_1103,ComputerHuman,2020.1.3,59.949422007016445,
Human.xlsx,h,Sychronize.jpg,Number10.jpg,10,Human,,,,,0,9,9,0,0,8,8,9,,,,,,,,,,,,,,,,,,,,,,,,,,,,,1755.2456940356153,None,1755.2456940356153,None,1755.6782232339226,None,1755.6782232339226,None,v,9.536409987604657,1755.6782232339226,None,t,8.979941321090337,1755.6782232339226,None,9.536409987604657,8.979941321090337,9.85188961853016,False,False,False,1765.3096573192731,None,1765.3096573192731,None,1765.3096573192731,None,1765.3096573192731,None,1765.3096573192731,None,1765.3096573192731,None,1765.3096573192731,None,1765.3096573192731,None,1766.2776828952199,None,1766.2776828952199,None,1767.275399832676,None,1767.275399832676,None,h,,,,,,,,,,,,,,,,,,,,,,,,,,,,,,,,,,,,,,,,,,,,,,,51_52Exp,001,2021_May_18_1103,ComputerHuman,2020.1.3,59.949422007016445,
Human.xlsx,h,Sychronize.jpg,Number6.jpg,6,Human,,,,,0,9,9,0,0,9,9,1,,,,,,,,,,,,,,,,,,,,,,,,,,,,,1768.3432523744875,None,1768.3432523744875,None,1768.7763403890028,None,1768.7763403890028,None,v,4.753960794327213,1768.7763403890028,None,t,7.716829349976706,1768.7763403890028,None,4.753960794327213,7.716829349976706,5.832382901406099,False,False,False,1776.5907909526952,None,1776.5907909526952,None,1776.5907909526952,None,1776.5907909526952,None,1776.5907909526952,None,1776.5907909526952,None,1776.5907909526952,None,1776.5907909526952,None,1777.576265580771,None,1777.576265580771,None,1778.5736912408927,None,1778.5736912408927,None,h,,,,,,,,,,,,,,,,,,,,,,,,,,,,,,,,,,,,,,,,,,,,,,,51_52Exp,001,2021_May_18_1103,ComputerHuman,2020.1.3,59.949422007016445,
Human.xlsx,h,,,,,,,,,0,9,9,0,,,,,,,,,,,,,,,,,,,,,,,,,,,,,,,,,,,,,,,,,,,,,,,,,,,,,,,,,,,,,,,,,,,,,,,,,,,,,,,h,1779.573974819267,None,1779.573974819267,None,q,1,4.447967538616467,1779.573974819267,None,o,0,2.071175605587541,1779.573974819267,None,h,h,1784.0894862997,None,1784.0894862997,None,None,None,1786.0887375758027,None,1786.0887375758027,None,"['space', 'space']",1787.0719339531854,None,"[464.42055314464005, 469.27636797694413]",,,,,,,,,,,,,,,,,51_52Exp,001,2021_May_18_1103,ComputerHuman,2020.1.3,59.949422007016445,
Computer.xlsx,c,Sychronize.jpg,Number10.jpg,10,Computer,,,,,1,0,10,9,0,0,0,8,,,,,,,,,,,,,,,,,,,,,,,,,2256.4121375393606,None,2256.4121375393606,None,2259.4749899271937,None,2259.4749899271937,None,2259.925034901954,None,2259.925034901954,None,v,9.118725026497486,2259.925034901954,None,t,7.7459663863387505,2259.925034901954,None,9.118725026497486,7.7459663863387505,9.424305559040258,False,False,False,2269.12439306529,None,2269.12439306529,None,2269.12439306529,None,2269.12439306529,None,2269.12439306529,None,2269.12439306529,None,2269.12439306529,None,2269.12439306529,None,2270.1223611813284,None,2270.1223611813284,None,2271.1222428098126,None,2271.1222428098126,None,c,,,,,,,,,,,,,,,,,,,,,,,,,,,,,,,,,,,,,,,,,,,,,,,51_52Exp,001,2021_May_18_1103,ComputerHuman,2020.1.3,59.949422007016445,
Computer.xlsx,c,Sychronize.jpg,Number6.jpg,6,Computer,,,,,1,0,10,9,0,1,1,0,,,,,,,,,,,,,,,,,,,,,,,,,,,,,2272.1722395377546,None,2272.1722395377546,None,2272.6221533093985,None,2272.6221533093985,None,v,5.3452733515882755,2272.6221533093985,None,t,5.6250420234923695,2272.6221533093985,None,5.3452733515882755,5.6250420234923695,5.871326640731319,False,False,True,2278.3210665369816,None,2278.3210665369816,None,2278.3210665369816,None,2278.3210665369816,None,2278.3210665369816,None,2278.3210665369816,None,2278.3210665369816,None,2278.3210665369816,None,2279.3367608677245,None,2279.3367608677245,None,2280.303078236835,None,2280.303078236835,None,c,,,,,,,,,,,,,,,,,,,,,,,,,,,,,,,,,,,,,,,,,,,,,,,51_52Exp,001,2021_May_18_1103,ComputerHuman,2020.1.3,59.949422007016445,
Computer.xlsx,c,Sychronize.jpg,Number8.jpg,8,Computer,,,,,1,0,10,9,0,2,2,4,,,,,,,,,,,,,,,,,,,,,,,,,,,,,2281.3711129873764,None,2281.3711129873764,None,2281.8202536550816,None,2281.8202536550816,None,v,6.850777466682757,2281.8202536550816,None,t,9.054439669663225,2281.8202536550816,None,6.850777466682757,9.054439669663225,7.491635609969766,False,False,False,2290.9680685618086,None,2290.9680685618086,None,2290.9680685618086,None,2290.9680685618086,None,2290.9680685618086,None,2290.9680685618086,None,2290.9680685618086,None,2290.9680685618086,None,2291.967854594868,None,2291.967854594868,None,2292.9509630757857,None,2292.9509630757857,None,c,,,,,,,,,,,,,,,,,,,,,,,,,,,,,,,,,,,,,,,,,,,,,,,51_52Exp,001,2021_May_18_1103,ComputerHuman,2020.1.3,59.949422007016445,
Computer.xlsx,c,Sychronize.jpg,Number8.jpg,8,Computer,,,,,1,0,10,9,0,3,3,5,,,,,,,,,,,,,,,,,,,,,,,,,,,,,2293.9844233991935,None,2293.9844233991935,None,2294.451144001355,None,2294.451144001355,None,v,7.495407890921342,2294.451144001355,None,t,5.8193746904375985,2294.451144001355,None,7.495407890921342,5.8193746904375985,8.45073645637118,False,False,False,2302.016536725324,None,2302.016536725324,None,2302.016536725324,None,2302.016536725324,None,2302.016536725324,None,2302.016536725324,None,2302.016536725324,None,2302.016536725324,None,2303.0154043365674,None,2303.0154043365674,None,2303.998768166339,None,2303.998768166339,None,c,,,,,,,,,,,,,,,,,,,,,,,,,,,,,,,,,,,,,,,,,,,,,,,51_52Exp,001,2021_May_18_1103,ComputerHuman,2020.1.3,59.949422007016445,
Computer.xlsx,c,Sychronize.jpg,Number9.jpg,9,Computer,,,,,1,0,10,9,0,4,4,6,,,,,,,,,,,,,,,,,,,,,,,,,,,,,2305.066154921047,None,2305.066154921047,None,2305.499014853861,None,2305.499014853861,None,v,8.07509662195298,2305.499014853861,None,t,7.757957837926369,2305.499014853861,None,8.07509662195298,7.757957837926369,9.380169183336148,False,False,False,2313.663405622294,None,2313.663405622294,None,2313.663405622294,None,2313.663405622294,None,2313.663405622294,None,2313.663405622294,None,2313.663405622294,None,2313.663405622294,None,2314.663163425832,None,2314.663163425832,None,2315.646371351655,None,2315.646371351655,None,c,,,,,,,,,,,,,,,,,,,,,,,,,,,,,,,,,,,,,,,,,,,,,,,51_52Exp,001,2021_May_18_1103,ComputerHuman,2020.1.3,59.949422007016445,
Computer.xlsx,c,Sychronize.jpg,Number7.jpg,7,Computer,,,,,1,0,10,9,0,5,5,2,,,,,,,,,,,,,,,,,,,,,,,,,,,,,2316.6966660935223,None,2316.6966660935223,None,2317.1298493826716,None,2317.1298493826716,None,v,6.687904676605285,2317.1298493826716,None,t,5.3910327642088305,2317.1298493826716,None,6.687904676605285,5.3910327642088305,7.362160361875191,False,False,False,2323.89547281882,None,2323.89547281882,None,2323.89547281882,None,2323.89547281882,None,2323.89547281882,None,2323.89547281882,None,2323.89547281882,None,2323.89547281882,None,2324.9111369953007,None,2324.9111369953007,None,2325.894277234431,None,2325.894277234431,None,c,,,,,,,,,,,,,,,,,,,,,,,,,,,,,,,,,,,,,,,,,,,,,,,51_52Exp,001,2021_May_18_1103,ComputerHuman,2020.1.3,59.949422007016445,
Computer.xlsx,c,Sychronize.jpg,Number7.jpg,7,Computer,,,,,1,0,10,9,0,6,6,3,,,,,,,,,,,,,,,,,,,,,,,,,,,,,2326.927333041628,None,2326.927333041628,None,2327.39446297185,None,2327.39446297185,None,v,6.190924914605603,2327.39446297185,None,t,5.282053659187568,2327.39446297185,None,6.190924914605603,5.282053659187568,6.684423817488037,False,False,False,2333.6608665693175,None,2333.6608665693175,None,2333.6608665693175,None,2333.6608665693175,None,2333.6608665693175,None,2333.6608665693175,None,2333.6608665693175,None,2333.6608665693175,None,2334.659024272256,None,2334.659024272256,None,2335.6422357267693,None,2335.6422357267693,None,c,,,,,,,,,,,,,,,,,,,,,,,,,,,,,,,,,,,,,,,,,,,,,,,51_52Exp,001,2021_May_18_1103,ComputerHuman,2020.1.3,59.949422007016445,
Computer.xlsx,c,Sychronize.jpg,Number10.jpg,10,Computer,,,,,1,0,10,9,0,7,7,9,,,,,,,,,,,,,,,,,,,,,,,,,,,,,2336.7089940538362,None,2336.7089940538362,None,2337.142836245679,None,2337.142836245679,None,v,8.72607451823751,2337.142836245679,None,t,7.4010272979471665,2337.142836245679,None,8.72607451823751,7.4010272979471665,9.786716010830755,False,False,False,2345.956803699607,None,2345.956803699607,None,2345.956803699607,None,2345.956803699607,None,2345.956803699607,None,2345.956803699607,None,2345.956803699607,None,2345.956803699607,None,2346.9564736066804,None,2346.9564736066804,None,2347.9397100828155,None,2347.9397100828155,None,c,,,,,,,,,,,,,,,,,,,,,,,,,,,,,,,,,,,,,,,,,,,,,,,51_52Exp,001,2021_May_18_1103,ComputerHuman,2020.1.3,59.949422007016445,
Computer.xlsx,c,Sychronize.jpg,Number6.jpg,6,Computer,,,,,1,0,10,9,0,8,8,1,,,,,,,,,,,,,,,,,,,,,,,,,,,,,2348.9725849644437,None,2348.9725849644437,None,2349.423265424226,None,2349.423265424226,None,v,5.277337404372702,2349.423265424226,None,t,4.957093052201799,2349.423265424226,None,5.277337404372702,4.957093052201799,5.550262489979556,False,True,False,2354.755155737137,None,2354.755155737137,None,2354.755155737137,None,2354.755155737137,None,2354.755155737137,None,2354.755155737137,None,2354.755155737137,None,2354.755155737137,None,2355.771279926501,None,2355.771279926501,None,2356.7712510553993,None,2356.7712510553993,None,c,,,,,,,,,,,,,,,,,,,,,,,,,,,,,,,,,,,,,,,,,,,,,,,51_52Exp,001,2021_May_18_1103,ComputerHuman,2020.1.3,59.949422007016445,
Computer.xlsx,c,Sychronize.jpg,Number9.jpg,9,Computer,,,,,1,0,10,9,0,9,9,7,,,,,,,,,,,,,,,,,,,,,,,,,,,,,2357.82123174384,None,2357.82123174384,None,2358.2711528936543,None,2358.2711528936543,None,v,8.272996473875992,2358.2711528936543,None,t,6.807992739880319,2358.2711528936543,None,8.272996473875992,6.807992739880319,8.41991271250508,False,True,False,2366.620613196531,None,2366.620613196531,None,2366.620613196531,None,2366.620613196531,None,2366.620613196531,None,2366.620613196531,None,2366.620613196531,None,2366.620613196531,None,2367.618820621922,None,2367.618820621922,None,2368.6022123604243,None,2368.6022123604243,None,c,,,,,,,,,,,,,,,,,,,,,,,,,,,,,,,,,,,,,,,,,,,,,,,51_52Exp,001,2021_May_18_1103,ComputerHuman,2020.1.3,59.949422007016445,
Computer.xlsx,c,,,,,,,,,1,0,10,9,,,,,,,,,,,,,,,,,,,,,,,,,,,,,,,,,,,,,,,,,,,,,,,,,,,,,,,,,,,,,,,,,,,,,,,,,,,,,,,c,2369.60293766665,None,2369.60293766665,None,a,1,5.9248671287755315,2369.60293766665,None,o,0,2.532071944218387,2369.60293766665,None,c,h,2375.6177209537473,None,2375.6177209537473,None,2377.616915129227,None,None,None,None,None,None,None,None,,,,,,,,,,,,,,,,,,51_52Exp,001,2021_May_18_1103,ComputerHuman,2020.1.3,59.949422007016445,
Human.xlsx,h,Sychronize.jpg,Number9.jpg,9,Human,,,,,1,1,11,6,0,0,0,7,,,,,,,,,,,,,,,,,,,,,,,,,2382.6184613371042,None,2382.6184613371042,None,2385.6821901232606,None,2385.6821901232606,None,2386.11537726189,None,2386.11537726189,None,v,7.6320423032207145,2386.11537726189,None,t,5.903031273177021,2386.11537726189,None,7.6320423032207145,5.903031273177021,9.022639822822025,False,False,False,2393.8301278925637,None,2393.8301278925637,None,2393.8301278925637,None,2393.8301278925637,None,2393.8301278925637,None,2393.8301278925637,None,2393.8301278925637,None,2393.8301278925637,None,2394.831953187754,None,2394.831953187754,None,2395.8298337281185,None,2395.8298337281185,None,h,,,,,,,,,,,,,,,,,,,,,,,,,,,,,,,,,,,,,,,,,,,,,,,51_52Exp,001,2021_May_18_1103,ComputerHuman,2020.1.3,59.949422007016445,
Human.xlsx,h,Sychronize.jpg,Number6.jpg,6,Human,,,,,1,1,11,6,0,1,1,0,,,,,,,,,,,,,,,,,,,,,,,,,,,,,2396.8800277419205,None,2396.8800277419205,None,2397.3298709397604,None,2397.3298709397604,None,v,4.620925966797131,2397.3298709397604,None,t,4.572515866274443,2397.3298709397604,None,4.620925966797131,4.572515866274443,6.098439644784592,True,False,False,2402.029509794361,None,2402.029509794361,None,2402.029509794361,None,2402.029509794361,None,2402.029509794361,None,2402.029509794361,None,2402.029509794361,None,2402.029509794361,None,2403.014105778583,None,2403.014105778583,None,2404.0114416175,None,2404.0114416175,None,h,,,,,,,,,,,,,,,,,,,,,,,,,,,,,,,,,,,,,,,,,,,,,,,51_52Exp,001,2021_May_18_1103,ComputerHuman,2020.1.3,59.949422007016445,
Human.xlsx,h,Sychronize.jpg,Number10.jpg,10,Human,,,,,1,1,11,6,0,2,2,8,,,,,,,,,,,,,,,,,,,,,,,,,,,,,2405.078867187801,None,2405.078867187801,None,2405.5115461950454,None,2405.5115461950454,None,v,9.474782376053554,2405.5115461950454,None,t,7.349969075842637,2405.5115461950454,None,9.474782376053554,7.349969075842637,9.806879019166631,False,False,False,2415.0608577155135,None,2415.0608577155135,None,2415.0608577155135,None,2415.0608577155135,None,2415.0608577155135,None,2415.0608577155135,None,2415.0608577155135,None,2415.0608577155135,None,2416.061507956875,None,2416.061507956875,None,2417.042159827851,None,2417.042159827851,None,h,,,,,,,,,,,,,,,,,,,,,,,,,,,,,,,,,,,,,,,,,,,,,,,51_52Exp,001,2021_May_18_1103,ComputerHuman,2020.1.3,59.949422007016445,
Human.xlsx,h,Sychronize.jpg,Number6.jpg,6,Human,,,,,1,1,11,6,0,3,3,1,,,,,,,,,,,,,,,,,,,,,,,,,,,,,2418.109055132255,None,2418.109055132255,None,2418.5414880935577,None,2418.5414880935577,None,v,4.796556255020278,2418.5414880935577,None,t,4.9566981596917685,2418.5414880935577,None,4.796556255020278,4.9566981596917685,5.621955653506768,True,False,False,2423.607433217934,None,2423.607433217934,None,2423.607433217934,None,2423.607433217934,None,2423.607433217934,None,2423.607433217934,None,2423.607433217934,None,2423.607433217934,None,2424.5760644454313,None,2424.5760644454313,None,2425.5737136961943,None,2425.5737136961943,None,h,,,,,,,,,,,,,,,,,,,,,,,,,,,,,,,,,,,,,,,,,,,,,,,51_52Exp,001,2021_May_18_1103,ComputerHuman,2020.1.3,59.949422007016445,
Human.xlsx,h,Sychronize.jpg,Number8.jpg,8,Human,,,,,1,1,11,6,0,4,4,5,,,,,,,,,,,,,,,,,,,,,,,,,,,,,2426.623661343263,None,2426.623661343263,None,2427.0736896369426,None,2427.0736896369426,None,v,7.043915511608702,2427.0736896369426,None,t,7.586951096203393,2427.0736896369426,None,7.043915511608702,7.586951096203393,8.523876569521375,False,False,False,2434.7551688895273,None,2434.7551688895273,None,2434.7551688895273,None,2434.7551688895273,None,2434.7551688895273,None,2434.7551688895273,None,2434.7551688895273,None,2434.7551688895273,None,2435.7237590559025,None,2435.7237590559025,None,2436.7214381401363,None,2436.7214381401363,None,h,,,,,,,,,,,,,,,,,,,,,,,,,,,,,,,,,,,,,,,,,,,,,,,51_52Exp,001,2021_May_18_1103,ComputerHuman,2020.1.3,59.949422007016445,
Human.xlsx,h,Sychronize.jpg,Number9.jpg,9,Human,,,,,1,1,11,6,0,5,5,6,,,,,,,,,,,,,,,,,,,,,,,,,,,,,2437.7711737450054,None,2437.7711737450054,None,2438.22131271124,None,2438.22131271124,None,v,8.519817765607968,2438.22131271124,None,t,5.635250844960865,2438.22131271124,None,8.519817765607968,5.635250844960865,8.335656297797728,False,False,False,2446.820477245723,None,2446.820477245723,None,2446.820477245723,None,2446.820477245723,None,2446.820477245723,None,2446.820477245723,None,2446.820477245723,None,2446.820477245723,None,2447.8212381596404,None,2447.8212381596404,None,2448.818945152606,None,2448.818945152606,None,h,,,,,,,,,,,,,,,,,,,,,,,,,,,,,,,,,,,,,,,,,,,,,,,51_52Exp,001,2021_May_18_1103,ComputerHuman,2020.1.3,59.949422007016445,
Human.xlsx,h,Sychronize.jpg,Number7.jpg,7,Human,,,,,1,1,11,6,0,6,6,3,,,,,,,,,,,,,,,,,,,,,,,,,,,,,2449.8686733793047,None,2449.8686733793047,None,2450.3023641582595,None,2450.3023641582595,None,v,5.666446390855526,2450.3023641582595,None,t,6.326028196158859,2450.3023641582595,None,5.666446390855526,6.326028196158859,7.513156511985206,False,False,False,2456.702293712772,None,2456.702293712772,None,2456.702293712772,None,2456.702293712772,None,2456.702293712772,None,2456.702293712772,None,2456.702293712772,None,2456.702293712772,None,2457.703117180743,None,2457.703117180743,None,2458.7002335992893,None,2458.7002335992893,None,h,,,,,,,,,,,,,,,,,,,,,,,,,,,,,,,,,,,,,,,,,,,,,,,51_52Exp,001,2021_May_18_1103,ComputerHuman,2020.1.3,59.949422007016445,
Human.xlsx,h,Sychronize.jpg,Number8.jpg,8,Human,,,,,1,1,11,6,0,7,7,4,,,,,,,,,,,,,,,,,,,,,,,,,,,,,2459.750342924527,None,2459.750342924527,None,2460.2001351167546,None,2460.2001351167546,None,v,7.68868644187387,2460.2001351167546,None,t,5.172561610930188,2460.2001351167546,None,7.68868644187387,5.172561610930188,8.404869147608453,False,False,False,2467.965583401555,None,2467.965583401555,None,2467.965583401555,None,2467.965583401555,None,2467.965583401555,None,2467.965583401555,None,2467.965583401555,None,2467.965583401555,None,2468.950730182234,None,2468.950730182234,None,2469.9479415546257,None,2469.9479415546257,None,h,,,,,,,,,,,,,,,,,,,,,,,,,,,,,,,,,,,,,,,,,,,,,,,51_52Exp,001,2021_May_18_1103,ComputerHuman,2020.1.3,59.949422007016445,
Human.xlsx,h,Sychronize.jpg,Number10.jpg,10,Human,,,,,1,1,11,6,0,8,8,9,,,,,,,,,,,,,,,,,,,,,,,,,,,,,2470.999435730362,None,2470.999435730362,None,2471.447954707016,None,2471.447954707016,None,v,8.003956303267387,2471.447954707016,None,t,8.206973397525417,2471.447954707016,None,8.003956303267387,8.206973397525417,10.21144542599986,True,False,False,2479.729593905503,None,2479.729593905503,None,2479.729593905503,None,2479.729593905503,None,2479.729593905503,None,2479.729593905503,None,2479.729593905503,None,2479.729593905503,None,2480.731235388015,None,2480.731235388015,None,2481.728767871212,None,2481.728767871212,None,h,,,,,,,,,,,,,,,,,,,,,,,,,,,,,,,,,,,,,,,,,,,,,,,51_52Exp,001,2021_May_18_1103,ComputerHuman,2020.1.3,59.949422007016445,
Human.xlsx,h,Sychronize.jpg,Number7.jpg,7,Human,,,,,1,1,11,6,0,9,9,2,,,,,,,,,,,,,,,,,,,,,,,,,,,,,2482.7787466349127,None,2482.7787466349127,None,2483.2121961797757,None,2483.2121961797757,None,v,5.771382579305737,2483.2121961797757,None,t,10.054907060716687,2483.2121961797757,None,5.771382579305737,10.054907060716687,6.89477993343514,False,False,False,2493.3447780518036,None,2493.3447780518036,None,2493.3447780518036,None,2493.3447780518036,None,2493.3447780518036,None,2493.3447780518036,None,2493.3447780518036,None,2493.3447780518036,None,2494.344142887572,None,2494.344142887572,None,2495.342675594039,None,2495.342675594039,None,h,,,,,,,,,,,,,,,,,,,,,,,,,,,,,,,,,,,,,,,,,,,,,,,51_52Exp,001,2021_May_18_1103,ComputerHuman,2020.1.3,59.949422007016445,
Human.xlsx,h,,,,,,,,,1,1,11,6,,,,,,,,,,,,,,,,,,,,,,,,,,,,,,,,,,,,,,,,,,,,,,,,,,,,,,,,,,,,,,,,,,,,,,,,,,,,,,,h,2496.343220937066,None,2496.343220937066,None,q,1,2.911986447263189,2496.343220937066,None,o,0,2.603176334422642,2496.343220937066,None,h,h,2499.342123193632,None,2499.342123193632,None,2501.3248265167595,None,None,None,None,None,None,None,None,,,,,,,,,,,,,,,,,,51_52Exp,001,2021_May_18_1103,ComputerHuman,2020.1.3,59.949422007016445,
