Condition,CorrectTuringReply,Sychronize,NumberImage,Number,Partner,trials.thisRepN,trials.thisTrialN,trials.thisN,trials.thisIndex,Block.thisRepN,Block.thisTrialN,Block.thisN,Block.thisIndex,trials_loop.thisRepN,trials_loop.thisTrialN,trials_loop.thisN,trials_loop.thisIndex,key_resp_Istr.keys,key_resp_Istr.rt,key_resp_Istr.started,key_resp_Istr.stopped,key_respPrLeft.keys,key_respPrLeft.rt,key_respPrRight.keys,key_respPrRight.rt,RTPrLeft,RTPrRight,CompPr,SychronizedRTsPr,SychronizedRTsLeftCPr,SychronizedRTsRightCPr,CreditLeftPr.started,CreditLeftPr.stopped,CreditRightPr.started,CreditRightPr.stopped,text_StartExp.started,text_StartExp.stopped,key_startExp.keys,key_startExp.rt,key_startExp.started,key_startExp.stopped,SychroLeft.started,SychroLeft.stopped,SychroRight.started,SychroRight.stopped,NumberLeft.started,NumberLeft.stopped,NumberRight.started,NumberRight.stopped,CrossLeft.started,CrossLeft.stopped,CrossRight.started,CrossRight.stopped,key_respLeft.keys,key_respLeft.rt,key_respLeft.started,key_respLeft.stopped,key_respRight.keys,key_respRight.rt,key_respRight.started,key_respRight.stopped,RTLeft,RTRight,Comp,SychronizedRTs,SychronizedRTsLeftC,SychronizedRTsRightC,FeedbackLeftLeft.started,FeedbackLeftLeft.stopped,FeedbackLeftRight.started,FeedbackLeftRight.stopped,FeedbackRightLeft.started,FeedbackRightLeft.stopped,FeedbackRightRight.started,FeedbackRightRight.stopped,textLeftLeft.started,textLeftLeft.stopped,textLeftRight.started,textLeftRight.stopped,textRightLeft.started,textRightLeft.stopped,textRightRight.started,textRightRight.stopped,CreditLeft.started,CreditLeft.stopped,CreditRight.started,CreditRight.stopped,BlankLeft.started,BlankLeft.stopped,BlankRight.started,BlankRight.stopped,CorrectTuringReply,TuringtextLeft.started,TuringtextLeft.stopped,TuringtextRight.started,TuringtextRight.stopped,keyTuringLeft.keys,keyTuringLeft.corr,keyTuringLeft.rt,keyTuringLeft.started,keyTuringLeft.stopped,keyTuringRight.keys,keyTuringRight.corr,keyTuringRight.rt,keyTuringRight.started,keyTuringRight.stopped,RespTuringLeft,RespTuringRight,ScoreLeft.started,ScoreLeft.stopped,ScoreRight.started,ScoreRight.stopped,BlockText.started,BlockText.stopped,text_Pause.started,text_Pause.stopped,text_LongPause.started,text_LongPause.stopped,key_respPause.keys,key_respPause.started,key_respPause.stopped,key_respPause.rt,QuestImageLeft.started,QuestImageLeft.stopped,QuestImageRight.started,QuestImageRight.stopped,respQuestLeft.keys,respQuestLeft.rt,respQuestLeft.started,respQuestLeft.stopped,respQuestRight.keys,respQuestRight.rt,respQuestRight.started,respQuestRight.stopped,RespInclusionLeft,RespInclusionRight,EndText.started,EndText.stopped,participant,session,date,expName,psychopyVersion,frameRate,
,,,,,,,,,,,,,,,,,,"['v', 'v', 't']","[89.15134380697839, 301.5999505358932, 301.81174512704774]",15.881825052319073,None,,,,,,,,,,,,,,,,,,,,,,,,,,,,,,,,,,,,,,,,,,,,,,,,,,,,,,,,,,,,,,,,,,,,,,,,,,,,,,,,,,,,,,,,,,,,,,,,,,,,,,,,,,,,,,,,,,,,,,53_54Exp,001,2021_May_19_1037,ComputerHuman,2020.1.3,60.02399101974633,
,,,,,,,,,,,,,,,,,,,,,,v,7.365218649315466,t,6.632568938593977,7.365218649315466,6.632568938593977,6,False,False,False,393.2744087082491,None,393.2744087082491,None,394.2739916956758,None,"['space', 'space']","[46.77534955276997, 48.09526684313778]",395.257277510961,None,,,,,,,,,,,,,,,,,,,,,,,,,,,,,,,,,,,,,,,,,,,,,,,,,,,,,,,,,,,,,,,,,,,,,,,,,,,,,,,,,,,,,,,,,,,,,,,,,,53_54Exp,001,2021_May_19_1037,ComputerHuman,2020.1.3,60.02399101974633,
Computer.xlsx,c,Sychronize.jpg,Number7.jpg,7,Computer,,,,,0,0,0,1,0,0,0,2,,,,,,,,,,,,,,,,,,,,,,,,,443.4486949431131,None,443.4486949431131,None,446.49509304512856,None,446.49509304512856,None,446.9286186747212,None,446.9286186747212,None,v,7.807105060222966,446.9286186747212,None,t,5.822697481115711,446.9286186747212,None,7.807105060222966,5.822697481115711,6.8119452640339775,False,False,False,454.8261837062281,None,454.8261837062281,None,454.8261837062281,None,454.8261837062281,None,454.8261837062281,None,454.8261837062281,None,454.8261837062281,None,454.8261837062281,None,455.8091253257511,None,455.8091253257511,None,456.8090999842178,None,456.8090999842178,None,c,,,,,,,,,,,,,,,,,,,,,,,,,,,,,,,,,,,,,,,,,,,,,,,53_54Exp,001,2021_May_19_1037,ComputerHuman,2020.1.3,60.02399101974633,
Computer.xlsx,c,Sychronize.jpg,Number9.jpg,9,Computer,,,,,0,0,0,1,0,1,1,7,,,,,,,,,,,,,,,,,,,,,,,,,,,,,457.8425706964623,None,457.8425706964623,None,458.30906534009625,None,458.30906534009625,None,v,10.309640817447189,458.30906534009625,None,t,8.325498201713344,458.30906534009625,None,10.309640817447189,8.325498201713344,9.551477391528977,False,False,False,468.6910860675458,None,468.6910860675458,None,468.6910860675458,None,468.6910860675458,None,468.6910860675458,None,468.6910860675458,None,468.6910860675458,None,468.6910860675458,None,469.6893394264217,None,469.6893394264217,None,470.672385299088,None,470.672385299088,None,c,,,,,,,,,,,,,,,,,,,,,,,,,,,,,,,,,,,,,,,,,,,,,,,53_54Exp,001,2021_May_19_1037,ComputerHuman,2020.1.3,60.02399101974633,
Computer.xlsx,c,Sychronize.jpg,Number8.jpg,8,Computer,,,,,0,0,0,1,0,2,2,4,,,,,,,,,,,,,,,,,,,,,,,,,,,,,471.72229913787476,None,471.72229913787476,None,472.17223774079264,None,472.17223774079264,None,v,10.297505751565723,472.17223774079264,None,t,7.321039374968677,472.17223774079264,None,10.297505751565723,7.321039374968677,8.362696286199467,False,False,False,482.5363525899048,None,482.5363525899048,None,482.5363525899048,None,482.5363525899048,None,482.5363525899048,None,482.5363525899048,None,482.5363525899048,None,482.5363525899048,None,483.5526378932269,None,483.5526378932269,None,484.519059078492,None,484.519059078492,None,c,,,,,,,,,,,,,,,,,,,,,,,,,,,,,,,,,,,,,,,,,,,,,,,53_54Exp,001,2021_May_19_1037,ComputerHuman,2020.1.3,60.02399101974633,
Computer.xlsx,c,Sychronize.jpg,Number6.jpg,6,Computer,,,,,0,0,0,1,0,3,3,1,,,,,,,,,,,,,,,,,,,,,,,,,,,,,485.58558798131287,None,485.58558798131287,None,486.01909211871896,None,486.01909211871896,None,v,6.689963341387056,486.01909211871896,None,t,6.557609003878724,486.01909211871896,None,6.689963341387056,6.557609003878724,6.066142668281947,False,False,False,492.80037928897434,None,492.80037928897434,None,492.80037928897434,None,492.80037928897434,None,492.80037928897434,None,492.80037928897434,None,492.80037928897434,None,492.80037928897434,None,493.80015891386836,None,493.80015891386836,None,494.78329588774284,None,494.78329588774284,None,c,,,,,,,,,,,,,,,,,,,,,,,,,,,,,,,,,,,,,,,,,,,,,,,53_54Exp,001,2021_May_19_1037,ComputerHuman,2020.1.3,60.02399101974633,
Computer.xlsx,c,Sychronize.jpg,Number10.jpg,10,Computer,,,,,0,0,0,1,0,4,4,9,,,,,,,,,,,,,,,,,,,,,,,,,,,,,495.83341791203736,None,495.83341791203736,None,496.2835056771452,None,496.2835056771452,None,v,11.34837839849206,496.2835056771452,None,t,9.011421012044593,496.2835056771452,None,11.34837839849206,9.011421012044593,9.642093924357503,False,False,False,507.697885617942,None,507.697885617942,None,507.697885617942,None,507.697885617942,None,507.697885617942,None,507.697885617942,None,507.697885617942,None,507.697885617942,None,508.7132265481754,None,508.7132265481754,None,509.7129978328177,None,509.7129978328177,None,c,,,,,,,,,,,,,,,,,,,,,,,,,,,,,,,,,,,,,,,,,,,,,,,53_54Exp,001,2021_May_19_1037,ComputerHuman,2020.1.3,60.02399101974633,
Computer.xlsx,c,Sychronize.jpg,Number9.jpg,9,Computer,,,,,0,0,0,1,0,5,5,6,,,,,,,,,,,,,,,,,,,,,,,,,,,,,510.76248439410654,None,510.76248439410654,None,511.21303408083384,None,511.21303408083384,None,v,11.789750921597715,511.21303408083384,None,t,8.685491362707126,511.21303408083384,None,11.789750921597715,8.685491362707126,8.723486895932563,False,False,True,523.0612020483658,None,523.0612020483658,None,523.0612020483658,None,523.0612020483658,None,523.0612020483658,None,523.0612020483658,None,523.0612020483658,None,523.0612020483658,None,524.0761962166054,None,524.0761962166054,None,525.0592760918352,None,525.0592760918352,None,c,,,,,,,,,,,,,,,,,,,,,,,,,,,,,,,,,,,,,,,,,,,,,,,53_54Exp,001,2021_May_19_1037,ComputerHuman,2020.1.3,60.02399101974633,
Computer.xlsx,c,Sychronize.jpg,Number8.jpg,8,Computer,,,,,0,0,0,1,0,6,6,5,,,,,,,,,,,,,,,,,,,,,,,,,,,,,526.1262104591887,None,526.1262104591887,None,526.576078490748,None,526.576078490748,None,v,8.773871724366245,526.576078490748,None,t,8.373500839799135,526.576078490748,None,8.773871724366245,8.373500839799135,8.525516631282276,False,True,True,535.4236751510549,None,535.4236751510549,None,535.4236751510549,None,535.4236751510549,None,535.4236751510549,None,535.4236751510549,None,535.4236751510549,None,535.4236751510549,None,536.4397795350759,None,536.4397795350759,None,537.406326144892,None,537.406326144892,None,c,,,,,,,,,,,,,,,,,,,,,,,,,,,,,,,,,,,,,,,,,,,,,,,53_54Exp,001,2021_May_19_1037,ComputerHuman,2020.1.3,60.02399101974633,
Computer.xlsx,c,Sychronize.jpg,Number6.jpg,6,Computer,,,,,0,0,0,1,0,7,7,0,,,,,,,,,,,,,,,,,,,,,,,,,,,,,538.4732470395317,None,538.4732470395317,None,538.9061105814695,None,538.9061105814695,None,v,6.5351063638686355,538.9061105814695,None,t,6.039133422210398,538.9061105814695,None,6.5351063638686355,6.039133422210398,6.379797703099273,False,True,False,545.5227685657206,None,545.5227685657206,None,545.5227685657206,None,545.5227685657206,None,545.5227685657206,None,545.5227685657206,None,545.5227685657206,None,545.5227685657206,None,546.5374554277715,None,546.5374554277715,None,547.5206110068224,None,547.5206110068224,None,c,,,,,,,,,,,,,,,,,,,,,,,,,,,,,,,,,,,,,,,,,,,,,,,53_54Exp,001,2021_May_19_1037,ComputerHuman,2020.1.3,60.02399101974633,
Computer.xlsx,c,Sychronize.jpg,Number7.jpg,7,Computer,,,,,0,0,0,1,0,8,8,3,,,,,,,,,,,,,,,,,,,,,,,,,,,,,548.5708055271488,None,548.5708055271488,None,549.0208201546669,None,549.0208201546669,None,v,7.299543980712087,549.0208201546669,None,t,6.286631667549955,549.0208201546669,None,7.299543980712087,6.286631667549955,7.164469175169261,False,True,False,556.4026622082678,None,556.4026622082678,None,556.4026622082678,None,556.4026622082678,None,556.4026622082678,None,556.4026622082678,None,556.4026622082678,None,556.4026622082678,None,557.4015070834397,None,557.4015070834397,None,558.3846135833186,None,558.3846135833186,None,c,,,,,,,,,,,,,,,,,,,,,,,,,,,,,,,,,,,,,,,,,,,,,,,53_54Exp,001,2021_May_19_1037,ComputerHuman,2020.1.3,60.02399101974633,
Computer.xlsx,c,Sychronize.jpg,Number10.jpg,10,Computer,,,,,0,0,0,1,0,9,9,8,,,,,,,,,,,,,,,,,,,,,,,,,,,,,559.4510398368903,None,559.4510398368903,None,559.9010316891064,None,559.9010316891064,None,v,11.422246401823031,559.9010316891064,None,t,8.953868786031535,559.9010316891064,None,11.422246401823031,8.953868786031535,9.749813335551197,False,False,False,571.3992821609721,None,571.3992821609721,None,571.3992821609721,None,571.3992821609721,None,571.3992821609721,None,571.3992821609721,None,571.3992821609721,None,571.3992821609721,None,572.3978874143039,None,572.3978874143039,None,573.3804588549734,None,573.3804588549734,None,c,,,,,,,,,,,,,,,,,,,,,,,,,,,,,,,,,,,,,,,,,,,,,,,53_54Exp,001,2021_May_19_1037,ComputerHuman,2020.1.3,60.02399101974633,
Computer.xlsx,c,,,,,,,,,0,0,0,1,,,,,,,,,,,,,,,,,,,,,,,,,,,,,,,,,,,,,,,,,,,,,,,,,,,,,,,,,,,,,,,,,,,,,,,,,,,,,,,c,574.3816884005067,None,574.3816884005067,None,a,0,12.384411813388851,574.3816884005067,None,l,1,18.9636932814783,574.3816884005067,None,c,c,593.4591616379229,None,593.4591616379229,None,595.4423627675777,None,None,None,None,None,None,None,None,,,,,,,,,,,,,,,,,,53_54Exp,001,2021_May_19_1037,ComputerHuman,2020.1.3,60.02399101974633,
Human.xlsx,h,Sychronize.jpg,Number10.jpg,10,Human,,,,,0,1,1,6,0,0,0,9,,,,,,,,,,,,,,,,,,,,,,,,,600.4443907317994,None,600.4443907317994,None,603.5076172158189,None,603.5076172158189,None,603.9410106845038,None,603.9410106845038,None,v,10.903568729446079,603.9410106845038,None,t,9.058363796636513,603.9410106845038,None,10.903568729446079,9.058363796636513,9.934163612574077,False,False,False,614.9217062101512,None,614.9217062101512,None,614.9217062101512,None,614.9217062101512,None,614.9217062101512,None,614.9217062101512,None,614.9217062101512,None,614.9217062101512,None,615.9390378942534,None,615.9390378942534,None,616.9372505142086,None,616.9372505142086,None,h,,,,,,,,,,,,,,,,,,,,,,,,,,,,,,,,,,,,,,,,,,,,,,,53_54Exp,001,2021_May_19_1037,ComputerHuman,2020.1.3,60.02399101974633,
Human.xlsx,h,Sychronize.jpg,Number6.jpg,6,Human,,,,,0,1,1,6,0,1,1,0,,,,,,,,,,,,,,,,,,,,,,,,,,,,,617.9883627829751,None,617.9883627829751,None,618.420460625673,None,618.420460625673,None,v,6.678983400333209,618.420460625673,None,t,5.794731976395724,618.420460625673,None,6.678983400333209,5.794731976395724,6.325793372044549,False,False,False,625.1521646801899,None,625.1521646801899,None,625.1521646801899,None,625.1521646801899,None,625.1521646801899,None,625.1521646801899,None,625.1521646801899,None,625.1521646801899,None,626.1705299139159,None,626.1705299139159,None,627.168124713705,None,627.168124713705,None,h,,,,,,,,,,,,,,,,,,,,,,,,,,,,,,,,,,,,,,,,,,,,,,,53_54Exp,001,2021_May_19_1037,ComputerHuman,2020.1.3,60.02399101974633,
Human.xlsx,h,Sychronize.jpg,Number9.jpg,9,Human,,,,,0,1,1,6,0,2,2,7,,,,,,,,,,,,,,,,,,,,,,,,,,,,,628.2184231663958,None,628.2184231663958,None,628.668170585088,None,628.668170585088,None,v,9.770693447000212,628.668170585088,None,t,8.06148978704141,628.668170585088,None,9.770693447000212,8.06148978704141,9.18810311338365,False,False,False,638.5319720332121,None,638.5319720332121,None,638.5319720332121,None,638.5319720332121,None,638.5319720332121,None,638.5319720332121,None,638.5319720332121,None,638.5319720332121,None,639.5006380292372,None,639.5006380292372,None,640.4981824667385,None,640.4981824667385,None,h,,,,,,,,,,,,,,,,,,,,,,,,,,,,,,,,,,,,,,,,,,,,,,,53_54Exp,001,2021_May_19_1037,ComputerHuman,2020.1.3,60.02399101974633,
Human.xlsx,h,Sychronize.jpg,Number10.jpg,10,Human,,,,,0,1,1,6,0,3,3,8,,,,,,,,,,,,,,,,,,,,,,,,,,,,,641.5319543903726,None,641.5319543903726,None,641.9979293721843,None,641.9979293721843,None,v,11.043485108801633,641.9979293721843,None,t,9.710362954912625,641.9979293721843,None,11.043485108801633,9.710362954912625,9.584275446529519,False,False,False,653.1123335638664,None,653.1123335638664,None,653.1123335638664,None,653.1123335638664,None,653.1123335638664,None,653.1123335638664,None,653.1123335638664,None,653.1123335638664,None,654.0978901730026,None,654.0978901730026,None,655.0946525515395,None,655.0946525515395,None,h,,,,,,,,,,,,,,,,,,,,,,,,,,,,,,,,,,,,,,,,,,,,,,,53_54Exp,001,2021_May_19_1037,ComputerHuman,2020.1.3,60.02399101974633,
Human.xlsx,h,Sychronize.jpg,Number7.jpg,7,Human,,,,,0,1,1,6,0,4,4,2,,,,,,,,,,,,,,,,,,,,,,,,,,,,,656.1449022458372,None,656.1449022458372,None,656.59471382031,None,656.59471382031,None,v,7.993860612585195,656.59471382031,None,t,7.1416046387196275,656.59471382031,None,7.993860612585195,7.1416046387196275,7.263337140445721,False,False,False,664.6591704914205,None,664.6591704914205,None,664.6591704914205,None,664.6591704914205,None,664.6591704914205,None,664.6591704914205,None,664.6591704914205,None,664.6591704914205,None,665.6607772729432,None,665.6607772729432,None,666.6585860322601,None,666.6585860322601,None,h,,,,,,,,,,,,,,,,,,,,,,,,,,,,,,,,,,,,,,,,,,,,,,,53_54Exp,001,2021_May_19_1037,ComputerHuman,2020.1.3,60.02399101974633,
Human.xlsx,h,Sychronize.jpg,Number7.jpg,7,Human,,,,,0,1,1,6,0,5,5,3,,,,,,,,,,,,,,,,,,,,,,,,,,,,,667.7084145438588,None,667.7084145438588,None,668.1418801877968,None,668.1418801877968,None,v,7.6779248299551455,668.1418801877968,None,t,8.0534831456348,668.1418801877968,None,7.6779248299551455,8.0534831456348,6.937455613414028,False,False,False,676.2895571711407,None,676.2895571711407,None,676.2895571711407,None,676.2895571711407,None,676.2895571711407,None,676.2895571711407,None,676.2895571711407,None,676.2895571711407,None,677.2747901143642,None,677.2747901143642,None,678.2724590140796,None,678.2724590140796,None,h,,,,,,,,,,,,,,,,,,,,,,,,,,,,,,,,,,,,,,,,,,,,,,,53_54Exp,001,2021_May_19_1037,ComputerHuman,2020.1.3,60.02399101974633,
Human.xlsx,h,Sychronize.jpg,Number8.jpg,8,Human,,,,,0,1,1,6,0,6,6,4,,,,,,,,,,,,,,,,,,,,,,,,,,,,,679.2891314975371,None,679.2891314975371,None,679.7722142597771,None,679.7722142597771,None,v,8.85866128699081,679.7722142597771,None,t,8.417403923511074,679.7722142597771,None,8.85866128699081,8.417403923511074,8.195201745935746,False,False,False,688.6864947591145,None,688.6864947591145,None,688.6864947591145,None,688.6864947591145,None,688.6864947591145,None,688.6864947591145,None,688.6864947591145,None,688.6864947591145,None,689.6877117942705,None,689.6877117942705,None,690.6861813581266,None,690.6861813581266,None,h,,,,,,,,,,,,,,,,,,,,,,,,,,,,,,,,,,,,,,,,,,,,,,,53_54Exp,001,2021_May_19_1037,ComputerHuman,2020.1.3,60.02399101974633,
Human.xlsx,h,Sychronize.jpg,Number6.jpg,6,Human,,,,,0,1,1,6,0,7,7,1,,,,,,,,,,,,,,,,,,,,,,,,,,,,,691.7526470675035,None,691.7526470675035,None,692.2027037170577,None,692.2027037170577,None,v,6.279444295460507,692.2027037170577,None,t,5.842854906569983,692.2027037170577,None,6.279444295460507,5.842854906569983,5.935087029388155,False,False,False,698.5512790737959,None,698.5512790737959,None,698.5512790737959,None,698.5512790737959,None,698.5512790737959,None,698.5512790737959,None,698.5512790737959,None,698.5512790737959,None,699.5521968222359,None,699.5521968222359,None,700.5503789681956,None,700.5503789681956,None,h,,,,,,,,,,,,,,,,,,,,,,,,,,,,,,,,,,,,,,,,,,,,,,,53_54Exp,001,2021_May_19_1037,ComputerHuman,2020.1.3,60.02399101974633,
Human.xlsx,h,Sychronize.jpg,Number8.jpg,8,Human,,,,,0,1,1,6,0,8,8,5,,,,,,,,,,,,,,,,,,,,,,,,,,,,,701.6004904067862,None,701.6004904067862,None,702.0335797770716,None,702.0335797770716,None,v,8.831689234531723,702.0335797770716,None,t,8.263459882748748,702.0335797770716,None,8.831689234531723,8.263459882748748,8.176785946375565,False,False,False,710.9494048268244,None,710.9494048268244,None,710.9494048268244,None,710.9494048268244,None,710.9494048268244,None,710.9494048268244,None,710.9494048268244,None,710.9494048268244,None,711.9493073100381,None,711.9493073100381,None,712.9474599443384,None,712.9474599443384,None,h,,,,,,,,,,,,,,,,,,,,,,,,,,,,,,,,,,,,,,,,,,,,,,,53_54Exp,001,2021_May_19_1037,ComputerHuman,2020.1.3,60.02399101974633,
Human.xlsx,h,Sychronize.jpg,Number9.jpg,9,Human,,,,,0,1,1,6,0,9,9,6,,,,,,,,,,,,,,,,,,,,,,,,,,,,,713.9810211162336,None,713.9810211162336,None,714.4479590763109,None,714.4479590763109,None,v,10.028310983597976,714.4479590763109,None,t,9.395426077785032,714.4479590763109,None,10.028310983597976,9.395426077785032,8.385180346384221,False,False,False,724.5297224107691,None,724.5297224107691,None,724.5297224107691,None,724.5297224107691,None,724.5297224107691,None,724.5297224107691,None,724.5297224107691,None,724.5297224107691,None,725.5304849022203,None,725.5304849022203,None,726.544159386055,None,726.544159386055,None,h,,,,,,,,,,,,,,,,,,,,,,,,,,,,,,,,,,,,,,,,,,,,,,,53_54Exp,001,2021_May_19_1037,ComputerHuman,2020.1.3,60.02399101974633,
Human.xlsx,h,,,,,,,,,0,1,1,6,,,,,,,,,,,,,,,,,,,,,,,,,,,,,,,,,,,,,,,,,,,,,,,,,,,,,,,,,,,,,,,,,,,,,,,,,,,,,,,h,727.5450546799717,None,727.5450546799717,None,q,1,8.098407268593292,727.5450546799717,None,o,0,4.325754504056476,727.5450546799717,None,h,h,735.7251579194539,None,735.7251579194539,None,737.7248243093951,None,None,None,None,None,None,None,None,,,,,,,,,,,,,,,,,,53_54Exp,001,2021_May_19_1037,ComputerHuman,2020.1.3,60.02399101974633,
Human.xlsx,h,Sychronize.jpg,Number10.jpg,10,Human,,,,,0,2,2,4,0,0,0,8,,,,,,,,,,,,,,,,,,,,,,,,,742.7426349163987,None,742.7426349163987,None,745.8080779826345,None,745.8080779826345,None,746.2566718803931,None,746.2566718803931,None,v,10.065307055981066,746.2566718803931,None,None,,746.2566718803931,None,10.065307055981066,13,10.290782020799288,False,False,False,759.3362311430122,None,759.3362311430122,None,759.3362311430122,None,759.3362311430122,None,759.3362311430122,None,759.3362311430122,None,759.3362311430122,None,759.3362311430122,None,760.3217495794589,None,760.3217495794589,None,761.3191794988921,None,761.3191794988921,None,h,,,,,,,,,,,,,,,,,,,,,,,,,,,,,,,,,,,,,,,,,,,,,,,53_54Exp,001,2021_May_19_1037,ComputerHuman,2020.1.3,60.02399101974633,
Human.xlsx,h,Sychronize.jpg,Number9.jpg,9,Human,,,,,0,2,2,4,0,1,1,6,,,,,,,,,,,,,,,,,,,,,,,,,,,,,762.3691273402425,None,762.3691273402425,None,762.8193090935687,None,762.8193090935687,None,v,10.80940344105943,762.8193090935687,None,t,8.900373130019489,762.8193090935687,None,10.80940344105943,8.900373130019489,9.480129139773775,False,False,False,773.7005137594903,None,773.7005137594903,None,773.7005137594903,None,773.7005137594903,None,773.7005137594903,None,773.7005137594903,None,773.7005137594903,None,773.7005137594903,None,774.684820934801,None,774.684820934801,None,775.6989913428191,None,775.6989913428191,None,h,,,,,,,,,,,,,,,,,,,,,,,,,,,,,,,,,,,,,,,,,,,,,,,53_54Exp,001,2021_May_19_1037,ComputerHuman,2020.1.3,60.02399101974633,
Human.xlsx,h,Sychronize.jpg,Number7.jpg,7,Human,,,,,0,2,2,4,0,2,2,2,,,,,,,,,,,,,,,,,,,,,,,,,,,,,776.749319307169,None,776.749319307169,None,777.199110031013,None,777.199110031013,None,v,7.3367957138805195,777.199110031013,None,t,7.320550828700334,777.199110031013,None,7.3367957138805195,7.320550828700334,6.7571273379594645,True,False,False,784.6144240799741,None,784.6144240799741,None,784.6144240799741,None,784.6144240799741,None,784.6144240799741,None,784.6144240799741,None,784.6144240799741,None,784.6144240799741,None,785.6153626790427,None,785.6153626790427,None,786.5963780212561,None,786.5963780212561,None,h,,,,,,,,,,,,,,,,,,,,,,,,,,,,,,,,,,,,,,,,,,,,,,,53_54Exp,001,2021_May_19_1037,ComputerHuman,2020.1.3,60.02399101974633,
Human.xlsx,h,Sychronize.jpg,Number6.jpg,6,Human,,,,,0,2,2,4,0,3,3,1,,,,,,,,,,,,,,,,,,,,,,,,,,,,,787.6638208231701,None,787.6638208231701,None,788.0963032797719,None,788.0963032797719,None,v,5.878973969433446,788.0963032797719,None,t,6.530595250162833,788.0963032797719,None,5.878973969433446,6.530595250162833,6.145607312029899,False,False,False,794.694658261404,None,794.694658261404,None,794.694658261404,None,794.694658261404,None,794.694658261404,None,794.694658261404,None,794.694658261404,None,794.694658261404,None,795.6966528646198,None,795.6966528646198,None,796.6940304970918,None,796.6940304970918,None,h,,,,,,,,,,,,,,,,,,,,,,,,,,,,,,,,,,,,,,,,,,,,,,,53_54Exp,001,2021_May_19_1037,ComputerHuman,2020.1.3,60.02399101974633,
Human.xlsx,h,Sychronize.jpg,Number10.jpg,10,Human,,,,,0,2,2,4,0,4,4,9,,,,,,,,,,,,,,,,,,,,,,,,,,,,,797.7440177942473,None,797.7440177942473,None,798.1936709039422,None,798.1936709039422,None,v,10.560554395761528,798.1936709039422,None,t,10.275334476161788,798.1936709039422,None,10.560554395761528,10.275334476161788,9.77312703473359,True,False,False,808.8090707933376,None,808.8090707933376,None,808.8090707933376,None,808.8090707933376,None,808.8090707933376,None,808.8090707933376,None,808.8090707933376,None,808.8090707933376,None,809.8265679993534,None,809.8265679993534,None,810.8238400955664,None,810.8238400955664,None,h,,,,,,,,,,,,,,,,,,,,,,,,,,,,,,,,,,,,,,,,,,,,,,,53_54Exp,001,2021_May_19_1037,ComputerHuman,2020.1.3,60.02399101974633,
Human.xlsx,h,Sychronize.jpg,Number7.jpg,7,Human,,,,,0,2,2,4,0,5,5,3,,,,,,,,,,,,,,,,,,,,,,,,,,,,,811.8907234590744,None,811.8907234590744,None,812.3236678372958,None,812.3236678372958,None,v,7.657778631762312,812.3236678372958,None,t,8.252455562498653,812.3236678372958,None,7.657778631762312,8.252455562498653,6.607150934721987,False,False,False,820.656010498452,None,820.656010498452,None,820.656010498452,None,820.656010498452,None,820.656010498452,None,820.656010498452,None,820.656010498452,None,820.656010498452,None,821.6390820334303,None,821.6390820334303,None,822.6377318750298,None,822.6377318750298,None,h,,,,,,,,,,,,,,,,,,,,,,,,,,,,,,,,,,,,,,,,,,,,,,,53_54Exp,001,2021_May_19_1037,ComputerHuman,2020.1.3,60.02399101974633,
Human.xlsx,h,Sychronize.jpg,Number8.jpg,8,Human,,,,,0,2,2,4,0,6,6,4,,,,,,,,,,,,,,,,,,,,,,,,,,,,,823.6870638208874,None,823.6870638208874,None,824.1379782332268,None,824.1379782332268,None,v,8.818510674880145,824.1379782332268,None,t,8.237545759110617,824.1379782332268,None,8.818510674880145,8.237545759110617,7.795587866079392,False,False,False,833.0360504161787,None,833.0360504161787,None,833.0360504161787,None,833.0360504161787,None,833.0360504161787,None,833.0360504161787,None,833.0360504161787,None,833.0360504161787,None,834.0379410870299,None,834.0379410870299,None,835.0180271327628,None,835.0180271327628,None,h,,,,,,,,,,,,,,,,,,,,,,,,,,,,,,,,,,,,,,,,,,,,,,,53_54Exp,001,2021_May_19_1037,ComputerHuman,2020.1.3,60.02399101974633,
Human.xlsx,h,Sychronize.jpg,Number6.jpg,6,Human,,,,,0,2,2,4,0,7,7,0,,,,,,,,,,,,,,,,,,,,,,,,,,,,,836.0849464235079,None,836.0849464235079,None,836.5179418055747,None,836.5179418055747,None,v,5.889889113148911,836.5179418055747,None,t,6.6805965974340324,836.5179418055747,None,5.889889113148911,6.6805965974340324,6.440403780143783,False,False,False,843.2663703097313,None,843.2663703097313,None,843.2663703097313,None,843.2663703097313,None,843.2663703097313,None,843.2663703097313,None,843.2663703097313,None,843.2663703097313,None,844.2680935339955,None,844.2680935339955,None,845.265565154686,None,845.265565154686,None,h,,,,,,,,,,,,,,,,,,,,,,,,,,,,,,,,,,,,,,,,,,,,,,,53_54Exp,001,2021_May_19_1037,ComputerHuman,2020.1.3,60.02399101974633,
Human.xlsx,h,Sychronize.jpg,Number9.jpg,9,Human,,,,,0,2,2,4,0,8,8,7,,,,,,,,,,,,,,,,,,,,,,,,,,,,,846.3154558973919,None,846.3154558973919,None,846.7657726986359,None,846.7657726986359,None,v,9.589000106498588,846.7657726986359,None,t,9.724445790290247,846.7657726986359,None,9.589000106498588,9.724445790290247,8.94890077140425,True,False,False,856.5644396698289,None,856.5644396698289,None,856.5644396698289,None,856.5644396698289,None,856.5644396698289,None,856.5644396698289,None,856.5644396698289,None,856.5644396698289,None,857.5477524305419,None,857.5477524305419,None,858.5455759456883,None,858.5455759456883,None,h,,,,,,,,,,,,,,,,,,,,,,,,,,,,,,,,,,,,,,,,,,,,,,,53_54Exp,001,2021_May_19_1037,ComputerHuman,2020.1.3,60.02399101974633,
Human.xlsx,h,Sychronize.jpg,Number8.jpg,8,Human,,,,,0,2,2,4,0,9,9,5,,,,,,,,,,,,,,,,,,,,,,,,,,,,,859.6125330883439,None,859.6125330883439,None,860.062142251329,None,860.062142251329,None,v,8.655815144100416,860.062142251329,None,t,7.651502592535053,860.062142251329,None,8.655815144100416,7.651502592535053,8.29553890325047,False,False,False,868.7935399619943,None,868.7935399619943,None,868.7935399619943,None,868.7935399619943,None,868.7935399619943,None,868.7935399619943,None,868.7935399619943,None,868.7935399619943,None,869.7777095231557,None,869.7777095231557,None,870.7761114026636,None,870.7761114026636,None,h,,,,,,,,,,,,,,,,,,,,,,,,,,,,,,,,,,,,,,,,,,,,,,,53_54Exp,001,2021_May_19_1037,ComputerHuman,2020.1.3,60.02399101974633,
Human.xlsx,h,,,,,,,,,0,2,2,4,,,,,,,,,,,,,,,,,,,,,,,,,,,,,,,,,,,,,,,,,,,,,,,,,,,,,,,,,,,,,,,,,,,,,,,,,,,,,,,h,871.7763949712133,None,871.7763949712133,None,a,0,3.1651074673477524,871.7763949712133,None,l,0,5.8076574414933475,871.7763949712133,None,c,c,877.6746159955759,None,877.6746159955759,None,879.6739981754096,None,None,None,None,None,None,None,None,,,,,,,,,,,,,,,,,,53_54Exp,001,2021_May_19_1037,ComputerHuman,2020.1.3,60.02399101974633,
Computer.xlsx,c,Sychronize.jpg,Number6.jpg,6,Computer,,,,,0,3,3,9,0,0,0,1,,,,,,,,,,,,,,,,,,,,,,,,,884.6758022359573,None,884.6758022359573,None,887.7554227673469,None,887.7554227673469,None,888.172128034408,None,888.172128034408,None,v,6.443893524500481,888.172128034408,None,t,4.095799015337207,888.172128034408,None,6.443893524500481,4.095799015337207,6.387001078571988,False,True,False,894.6877714591463,None,894.6877714591463,None,894.6877714591463,None,894.6877714591463,None,894.6877714591463,None,894.6877714591463,None,894.6877714591463,None,894.6877714591463,None,895.7201194452322,None,895.7201194452322,None,896.7031329192292,None,896.7031329192292,None,c,,,,,,,,,,,,,,,,,,,,,,,,,,,,,,,,,,,,,,,,,,,,,,,53_54Exp,001,2021_May_19_1037,ComputerHuman,2020.1.3,60.02399101974633,
Computer.xlsx,c,Sychronize.jpg,Number8.jpg,8,Computer,,,,,0,3,3,9,0,1,1,5,,,,,,,,,,,,,,,,,,,,,,,,,,,,,897.7526679181323,None,897.7526679181323,None,898.2034132799901,None,898.2034132799901,None,v,8.6637816881439,898.2034132799901,None,t,7.2915540198087,898.2034132799901,None,8.6637816881439,7.2915540198087,8.525899873476591,False,True,False,906.9357114170344,None,906.9357114170344,None,906.9357114170344,None,906.9357114170344,None,906.9357114170344,None,906.9357114170344,None,906.9357114170344,None,906.9357114170344,None,907.9336472047968,None,907.9336472047968,None,908.933597163288,None,908.933597163288,None,c,,,,,,,,,,,,,,,,,,,,,,,,,,,,,,,,,,,,,,,,,,,,,,,53_54Exp,001,2021_May_19_1037,ComputerHuman,2020.1.3,60.02399101974633,
Computer.xlsx,c,Sychronize.jpg,Number9.jpg,9,Computer,,,,,0,3,3,9,0,2,2,6,,,,,,,,,,,,,,,,,,,,,,,,,,,,,909.9839068432406,None,909.9839068432406,None,910.4336590736162,None,910.4336590736162,None,v,9.7565717973755,910.4336590736162,None,t,8.815445311688109,910.4336590736162,None,9.7565717973755,8.815445311688109,8.898111600928656,False,False,True,920.264578438782,None,920.264578438782,None,920.264578438782,None,920.264578438782,None,920.264578438782,None,920.264578438782,None,920.264578438782,None,920.264578438782,None,921.2637274123537,None,921.2637274123537,None,922.2470257380161,None,922.2470257380161,None,c,,,,,,,,,,,,,,,,,,,,,,,,,,,,,,,,,,,,,,,,,,,,,,,53_54Exp,001,2021_May_19_1037,ComputerHuman,2020.1.3,60.02399101974633,
Computer.xlsx,c,Sychronize.jpg,Number6.jpg,6,Computer,,,,,0,3,3,9,0,3,3,0,,,,,,,,,,,,,,,,,,,,,,,,,,,,,923.31384302107,None,923.31384302107,None,923.7471495586725,None,923.7471495586725,None,v,5.802290489675443,923.7471495586725,None,t,6.4256527529887535,923.7471495586725,None,5.802290489675443,6.4256527529887535,6.41923954245677,False,False,True,930.261804984391,None,930.261804984391,None,930.261804984391,None,930.261804984391,None,930.261804984391,None,930.261804984391,None,930.261804984391,None,930.261804984391,None,931.2615647209931,None,931.2615647209931,None,932.2447016948676,None,932.2447016948676,None,c,,,,,,,,,,,,,,,,,,,,,,,,,,,,,,,,,,,,,,,,,,,,,,,53_54Exp,001,2021_May_19_1037,ComputerHuman,2020.1.3,60.02399101974633,
Computer.xlsx,c,Sychronize.jpg,Number9.jpg,9,Computer,,,,,0,3,3,9,0,4,4,7,,,,,,,,,,,,,,,,,,,,,,,,,,,,,933.2952930186963,None,933.2952930186963,None,933.7448386674588,None,933.7448386674588,None,v,8.599728877671623,933.7448386674588,None,t,8.13559644987572,933.7448386674588,None,8.599728877671623,8.13559644987572,9.421948521239234,False,False,False,942.4273499941618,None,942.4273499941618,None,942.4273499941618,None,942.4273499941618,None,942.4273499941618,None,942.4273499941618,None,942.4273499941618,None,942.4273499941618,None,943.4419233004813,None,943.4419233004813,None,944.4250634821448,None,944.4250634821448,None,c,,,,,,,,,,,,,,,,,,,,,,,,,,,,,,,,,,,,,,,,,,,,,,,53_54Exp,001,2021_May_19_1037,ComputerHuman,2020.1.3,60.02399101974633,
Computer.xlsx,c,Sychronize.jpg,Number10.jpg,10,Computer,,,,,0,3,3,9,0,5,5,9,,,,,,,,,,,,,,,,,,,,,,,,,,,,,945.4753224790308,None,945.4753224790308,None,945.925217456018,None,945.925217456018,None,v,9.27841106661549,945.925217456018,None,t,11.805320567188346,945.925217456018,None,9.27841106661549,11.805320567188346,10.20342969795442,False,False,False,957.8218156599129,None,957.8218156599129,None,957.8218156599129,None,957.8218156599129,None,957.8218156599129,None,957.8218156599129,None,957.8218156599129,None,957.8218156599129,None,958.8216315328228,None,958.8216315328228,None,959.8047213521985,None,959.8047213521985,None,c,,,,,,,,,,,,,,,,,,,,,,,,,,,,,,,,,,,,,,,,,,,,,,,53_54Exp,001,2021_May_19_1037,ComputerHuman,2020.1.3,60.02399101974633,
Computer.xlsx,c,Sychronize.jpg,Number7.jpg,7,Computer,,,,,0,3,3,9,0,6,6,2,,,,,,,,,,,,,,,,,,,,,,,,,,,,,960.8383643227138,None,960.8383643227138,None,961.3046982561176,None,961.3046982561176,None,v,7.242033455956289,961.3046982561176,None,t,9.093424609900694,961.3046982561176,None,7.242033455956289,9.093424609900694,7.005789412975424,False,True,False,970.4702269061646,None,970.4702269061646,None,970.4702269061646,None,970.4702269061646,None,970.4702269061646,None,970.4702269061646,None,970.4702269061646,None,970.4702269061646,None,971.4684029573249,None,971.4684029573249,None,972.4517032076607,None,972.4517032076607,None,c,,,,,,,,,,,,,,,,,,,,,,,,,,,,,,,,,,,,,,,,,,,,,,,53_54Exp,001,2021_May_19_1037,ComputerHuman,2020.1.3,60.02399101974633,
Computer.xlsx,c,Sychronize.jpg,Number10.jpg,10,Computer,,,,,0,3,3,9,0,7,7,8,,,,,,,,,,,,,,,,,,,,,,,,,,,,,973.5184483154618,None,973.5184483154618,None,973.9519383385963,None,973.9519383385963,None,v,10.625591676685644,973.9519383385963,None,t,9.401443569217008,973.9519383385963,None,10.625591676685644,9.401443569217008,9.279636510712972,False,False,True,984.6493431089635,None,984.6493431089635,None,984.6493431089635,None,984.6493431089635,None,984.6493431089635,None,984.6493431089635,None,984.6493431089635,None,984.6493431089635,None,985.6484147748196,None,985.6484147748196,None,986.6315331435179,None,986.6315331435179,None,c,,,,,,,,,,,,,,,,,,,,,,,,,,,,,,,,,,,,,,,,,,,,,,,53_54Exp,001,2021_May_19_1037,ComputerHuman,2020.1.3,60.02399101974633,
Computer.xlsx,c,Sychronize.jpg,Number8.jpg,8,Computer,,,,,0,3,3,9,0,8,8,4,,,,,,,,,,,,,,,,,,,,,,,,,,,,,987.681419395319,None,987.681419395319,None,988.1317438952568,None,988.1317438952568,None,v,8.708910147263168,988.1317438952568,None,None,,988.1317438952568,None,8.708910147263168,13,7.478470746904736,False,False,False,1001.2112903267197,None,1001.2112903267197,None,1001.2112903267197,None,1001.2112903267197,None,1001.2112903267197,None,1001.2112903267197,None,1001.2112903267197,None,1001.2112903267197,None,1002.1943798253168,None,1002.1943798253168,None,1003.1770689918434,None,1003.1770689918434,None,c,,,,,,,,,,,,,,,,,,,,,,,,,,,,,,,,,,,,,,,,,,,,,,,53_54Exp,001,2021_May_19_1037,ComputerHuman,2020.1.3,60.02399101974633,
Computer.xlsx,c,Sychronize.jpg,Number7.jpg,7,Computer,,,,,0,3,3,9,0,9,9,3,,,,,,,,,,,,,,,,,,,,,,,,,,,,,1004.2441759382463,None,1004.2441759382463,None,1004.6777092665326,None,1004.6777092665326,None,v,7.389922153375892,1004.6777092665326,None,t,9.709389390943443,1004.6777092665326,None,7.389922153375892,9.709389390943443,6.868034087290457,False,False,False,1014.4593999766474,None,1014.4593999766474,None,1014.4593999766474,None,1014.4593999766474,None,1014.4593999766474,None,1014.4593999766474,None,1014.4593999766474,None,1014.4593999766474,None,1015.474565120042,None,1015.474565120042,None,1016.4577072263788,None,1016.4577072263788,None,c,,,,,,,,,,,,,,,,,,,,,,,,,,,,,,,,,,,,,,,,,,,,,,,53_54Exp,001,2021_May_19_1037,ComputerHuman,2020.1.3,60.02399101974633,
Computer.xlsx,c,,,,,,,,,0,3,3,9,,,,,,,,,,,,,,,,,,,,,,,,,,,,,,,,,,,,,,,,,,,,,,,,,,,,,,,,,,,,,,,,,,,,,,,,,,,,,,,c,1017.458002342969,None,1017.458002342969,None,q,0,5.6767302493221905,1017.458002342969,None,l,0,2.4118974328705463,1017.458002342969,None,h,c,1023.2065415158471,None,1023.2065415158471,None,1025.205565064868,None,None,None,None,None,None,None,None,,,,,,,,,,,,,,,,,,53_54Exp,001,2021_May_19_1037,ComputerHuman,2020.1.3,60.02399101974633,
Human.xlsx,h,Sychronize.jpg,Number6.jpg,6,Human,,,,,0,4,4,2,0,0,0,0,,,,,,,,,,,,,,,,,,,,,,,,,1030.2241525983732,None,1030.2241525983732,None,1033.2876472535554,None,1033.2876472535554,None,1033.7371367660098,None,1033.7371367660098,None,v,6.3683751137161835,1033.7371367660098,None,t,4.063641571919334,1033.7371367660098,None,6.3683751137161835,4.063641571919334,5.8018177472032715,False,False,False,1040.2020294398044,None,1040.2020294398044,None,1040.2020294398044,None,1040.2020294398044,None,1040.2020294398044,None,1040.2020294398044,None,1040.2020294398044,None,1040.2020294398044,None,1041.1883725988096,None,1041.1883725988096,None,1042.201389806673,None,1042.201389806673,None,h,,,,,,,,,,,,,,,,,,,,,,,,,,,,,,,,,,,,,,,,,,,,,,,53_54Exp,001,2021_May_19_1037,ComputerHuman,2020.1.3,60.02399101974633,
Human.xlsx,h,Sychronize.jpg,Number6.jpg,6,Human,,,,,0,4,4,2,0,1,1,1,,,,,,,,,,,,,,,,,,,,,,,,,,,,,1043.251167635205,None,1043.251167635205,None,1043.7013888443362,None,1043.7013888443362,None,v,5.907499554117521,1043.7013888443362,None,t,4.542707219963404,1043.7013888443362,None,5.907499554117521,4.542707219963404,6.089451639203709,False,False,False,1049.6832690064707,None,1049.6832690064707,None,1049.6832690064707,None,1049.6832690064707,None,1049.6832690064707,None,1049.6832690064707,None,1049.6832690064707,None,1049.6832690064707,None,1050.6849915891771,None,1050.6849915891771,None,1051.6660066106115,None,1051.6660066106115,None,h,,,,,,,,,,,,,,,,,,,,,,,,,,,,,,,,,,,,,,,,,,,,,,,53_54Exp,001,2021_May_19_1037,ComputerHuman,2020.1.3,60.02399101974633,
Human.xlsx,h,Sychronize.jpg,Number8.jpg,8,Human,,,,,0,4,4,2,0,2,2,5,,,,,,,,,,,,,,,,,,,,,,,,,,,,,1052.716702187584,None,1052.716702187584,None,1053.1658760535984,None,1053.1658760535984,None,v,9.126077335944046,1053.1658760535984,None,t,5.122203930696287,1053.1658760535984,None,9.126077335944046,5.122203930696287,7.993256180672214,False,False,False,1062.3636269444014,None,1062.3636269444014,None,1062.3636269444014,None,1062.3636269444014,None,1062.3636269444014,None,1062.3636269444014,None,1062.3636269444014,None,1062.3636269444014,None,1063.3652231402202,None,1063.3652231402202,None,1064.3628108828734,None,1064.3628108828734,None,h,,,,,,,,,,,,,,,,,,,,,,,,,,,,,,,,,,,,,,,,,,,,,,,53_54Exp,001,2021_May_19_1037,ComputerHuman,2020.1.3,60.02399101974633,
Human.xlsx,h,Sychronize.jpg,Number7.jpg,7,Human,,,,,0,4,4,2,0,3,3,2,,,,,,,,,,,,,,,,,,,,,,,,,,,,,1065.4126769256036,None,1065.4126769256036,None,1065.862937911319,None,1065.862937911319,None,v,8.312160856505443,1065.862937911319,None,t,5.851616661512935,1065.862937911319,None,8.312160856505443,5.851616661512935,7.5193469419171945,False,False,False,1074.2442365654588,None,1074.2442365654588,None,1074.2442365654588,None,1074.2442365654588,None,1074.2442365654588,None,1074.2442365654588,None,1074.2442365654588,None,1074.2442365654588,None,1075.2292382270934,None,1075.2292382270934,None,1076.2432954001588,None,1076.2432954001588,None,h,,,,,,,,,,,,,,,,,,,,,,,,,,,,,,,,,,,,,,,,,,,,,,,53_54Exp,001,2021_May_19_1037,ComputerHuman,2020.1.3,60.02399101974633,
Human.xlsx,h,Sychronize.jpg,Number9.jpg,9,Human,,,,,0,4,4,2,0,4,4,7,,,,,,,,,,,,,,,,,,,,,,,,,,,,,1077.2939563330096,None,1077.2939563330096,None,1077.74332138325,None,1077.74332138325,None,v,10.89471138239037,1077.74332138325,None,t,8.106532918972562,1077.74332138325,None,10.89471138239037,8.106532918972562,8.919315338386216,False,False,False,1088.7076491653975,None,1088.7076491653975,None,1088.7076491653975,None,1088.7076491653975,None,1088.7076491653975,None,1088.7076491653975,None,1088.7076491653975,None,1088.7076491653975,None,1089.692098445762,None,1089.692098445762,None,1090.6898369544997,None,1090.6898369544997,None,h,,,,,,,,,,,,,,,,,,,,,,,,,,,,,,,,,,,,,,,,,,,,,,,53_54Exp,001,2021_May_19_1037,ComputerHuman,2020.1.3,60.02399101974633,
Human.xlsx,h,Sychronize.jpg,Number7.jpg,7,Human,,,,,0,4,4,2,0,5,5,3,,,,,,,,,,,,,,,,,,,,,,,,,,,,,1091.7570917799767,None,1091.7570917799767,None,1092.2063034979014,None,1092.2063034979014,None,v,7.786982278890264,1092.2063034979014,None,t,6.039115137813042,1092.2063034979014,None,7.786982278890264,6.039115137813042,7.3226489304761175,False,False,False,1100.071742201544,None,1100.071742201544,None,1100.071742201544,None,1100.071742201544,None,1100.071742201544,None,1100.071742201544,None,1100.071742201544,None,1100.071742201544,None,1101.0734914088994,None,1101.0734914088994,None,1102.0536541207898,None,1102.0536541207898,None,h,,,,,,,,,,,,,,,,,,,,,,,,,,,,,,,,,,,,,,,,,,,,,,,53_54Exp,001,2021_May_19_1037,ComputerHuman,2020.1.3,60.02399101974633,
Human.xlsx,h,Sychronize.jpg,Number9.jpg,9,Human,,,,,0,4,4,2,0,6,6,6,,,,,,,,,,,,,,,,,,,,,,,,,,,,,1103.1200954509704,None,1103.1200954509704,None,1103.553742014209,None,1103.553742014209,None,v,9.894541048792917,1103.553742014209,None,t,7.949525439691797,1103.553742014209,None,9.894541048792917,7.949525439691797,9.375548873597833,False,False,False,1113.5180685132414,None,1113.5180685132414,None,1113.5180685132414,None,1113.5180685132414,None,1113.5180685132414,None,1113.5180685132414,None,1113.5180685132414,None,1113.5180685132414,None,1114.5190577953763,None,1114.5190577953763,None,1115.517211392014,None,1115.517211392014,None,h,,,,,,,,,,,,,,,,,,,,,,,,,,,,,,,,,,,,,,,,,,,,,,,53_54Exp,001,2021_May_19_1037,ComputerHuman,2020.1.3,60.02399101974633,
Human.xlsx,h,Sychronize.jpg,Number10.jpg,10,Human,,,,,0,4,4,2,0,7,7,8,,,,,,,,,,,,,,,,,,,,,,,,,,,,,1116.533480014833,None,1116.533480014833,None,1117.0170676830653,None,1117.0170676830653,None,v,9.894288595796752,1117.0170676830653,None,t,9.729335743880029,1117.0170676830653,None,9.894288595796752,9.729335743880029,10.09810846249908,True,False,False,1126.9814878495367,None,1126.9814878495367,None,1126.9814878495367,None,1126.9814878495367,None,1126.9814878495367,None,1126.9814878495367,None,1126.9814878495367,None,1126.9814878495367,None,1127.9834381852638,None,1127.9834381852638,None,1128.9806015374293,None,1128.9806015374293,None,h,,,,,,,,,,,,,,,,,,,,,,,,,,,,,,,,,,,,,,,,,,,,,,,53_54Exp,001,2021_May_19_1037,ComputerHuman,2020.1.3,60.02399101974633,
Human.xlsx,h,Sychronize.jpg,Number8.jpg,8,Human,,,,,0,4,4,2,0,8,8,4,,,,,,,,,,,,,,,,,,,,,,,,,,,,,1130.0311723314085,None,1130.0311723314085,None,1130.4809389968345,None,1130.4809389968345,None,v,8.653514197032791,1130.4809389968345,None,t,6.1006145482213014,1130.4809389968345,None,8.653514197032791,6.1006145482213014,8.546488169716316,False,False,False,1139.1950316480466,None,1139.1950316480466,None,1139.1950316480466,None,1139.1950316480466,None,1139.1950316480466,None,1139.1950316480466,None,1139.1950316480466,None,1139.1950316480466,None,1140.1961123521692,None,1140.1961123521692,None,1141.1942027553623,None,1141.1942027553623,None,h,,,,,,,,,,,,,,,,,,,,,,,,,,,,,,,,,,,,,,,,,,,,,,,53_54Exp,001,2021_May_19_1037,ComputerHuman,2020.1.3,60.02399101974633,
Human.xlsx,h,Sychronize.jpg,Number10.jpg,10,Human,,,,,0,4,4,2,0,9,9,9,,,,,,,,,,,,,,,,,,,,,,,,,,,,,1142.261373215988,None,1142.261373215988,None,1142.7112579280506,None,1142.7112579280506,None,v,9.106245180297037,1142.7112579280506,None,t,8.689365088733894,1142.7112579280506,None,9.106245180297037,8.689365088733894,10.428125303352447,False,False,False,1151.893213024137,None,1151.893213024137,None,1151.893213024137,None,1151.893213024137,None,1151.893213024137,None,1151.893213024137,None,1151.893213024137,None,1151.893213024137,None,1152.8765482393728,None,1152.8765482393728,None,1153.8745834685951,None,1153.8745834685951,None,h,,,,,,,,,,,,,,,,,,,,,,,,,,,,,,,,,,,,,,,,,,,,,,,53_54Exp,001,2021_May_19_1037,ComputerHuman,2020.1.3,60.02399101974633,
Human.xlsx,h,,,,,,,,,0,4,4,2,,,,,,,,,,,,,,,,,,,,,,,,,,,,,,,,,,,,,,,,,,,,,,,,,,,,,,,,,,,,,,,,,,,,,,,,,,,,,,,h,1154.875432249571,None,1154.875432249571,None,q,0,3.2576525014981144,1154.875432249571,None,o,1,3.8286957258135317,1154.875432249571,None,h,h,1158.7733802910875,None,1158.7733802910875,None,None,None,1160.7897259008432,None,1160.7897259008432,None,"['space', 'space']",1161.7727140333072,None,"[393.0878170739063, 405.24330694819923]",,,,,,,,,,,,,,,,,53_54Exp,001,2021_May_19_1037,ComputerHuman,2020.1.3,60.02399101974633,
Computer.xlsx,c,Sychronize.jpg,Number8.jpg,8,Computer,,,,,0,5,5,5,0,0,0,4,,,,,,,,,,,,,,,,,,,,,,,,,1567.0785144857336,None,1567.0785144857336,None,1570.14137656492,None,1570.14137656492,None,1570.57475976868,None,1570.57475976868,None,v,8.040075549847188,1570.57475976868,None,t,6.927601164042244,1570.57475976868,None,8.040075549847188,6.927601164042244,7.4275477089866815,False,False,False,1578.689213039534,None,1578.689213039534,None,1578.689213039534,None,1578.689213039534,None,1578.689213039534,None,1578.689213039534,None,1578.689213039534,None,1578.689213039534,None,1579.7219767550778,None,1579.7219767550778,None,1580.7052891950116,None,1580.7052891950116,None,c,,,,,,,,,,,,,,,,,,,,,,,,,,,,,,,,,,,,,,,,,,,,,,,53_54Exp,001,2021_May_19_1037,ComputerHuman,2020.1.3,60.02399101974633,
Computer.xlsx,c,Sychronize.jpg,Number10.jpg,10,Computer,,,,,0,5,5,5,0,1,1,8,,,,,,,,,,,,,,,,,,,,,,,,,,,,,1581.7386960722547,None,1581.7386960722547,None,1582.2054896818258,None,1582.2054896818258,None,v,11.252150180983335,1582.2054896818258,None,t,8.431474248511677,1582.2054896818258,None,11.252150180983335,8.431474248511677,9.98602924809795,False,False,False,1593.5363362301805,None,1593.5363362301805,None,1593.5363362301805,None,1593.5363362301805,None,1593.5363362301805,None,1593.5363362301805,None,1593.5363362301805,None,1593.5363362301805,None,1594.5520168652715,None,1594.5520168652715,None,1595.5350011483883,None,1595.5350011483883,None,c,,,,,,,,,,,,,,,,,,,,,,,,,,,,,,,,,,,,,,,,,,,,,,,53_54Exp,001,2021_May_19_1037,ComputerHuman,2020.1.3,60.02399101974633,
Computer.xlsx,c,Sychronize.jpg,Number9.jpg,9,Computer,,,,,0,5,5,5,0,2,2,6,,,,,,,,,,,,,,,,,,,,,,,,,,,,,1596.585429516535,None,1596.585429516535,None,1597.0352523182692,None,1597.0352523182692,None,v,9.60154256158603,1597.0352523182692,None,t,8.636680682566293,1597.0352523182692,None,9.60154256158603,8.636680682566293,9.025824795925427,False,False,False,1606.6996252019303,None,1606.6996252019303,None,1606.6996252019303,None,1606.6996252019303,None,1606.6996252019303,None,1606.6996252019303,None,1606.6996252019303,None,1606.6996252019303,None,1607.7154360732557,None,1607.7154360732557,None,1608.715191639732,None,1608.715191639732,None,c,,,,,,,,,,,,,,,,,,,,,,,,,,,,,,,,,,,,,,,,,,,,,,,53_54Exp,001,2021_May_19_1037,ComputerHuman,2020.1.3,60.02399101974633,
Computer.xlsx,c,Sychronize.jpg,Number10.jpg,10,Computer,,,,,0,5,5,5,0,3,3,9,,,,,,,,,,,,,,,,,,,,,,,,,,,,,1609.765291530282,None,1609.765291530282,None,1610.2150562710349,None,1610.2150562710349,None,None,,1610.2150562710349,None,t,11.272351232368692,1610.2150562710349,None,13,11.272351232368692,9.775912700530794,False,False,False,1623.2949869956233,None,1623.2949869956233,None,1623.2949869956233,None,1623.2949869956233,None,1623.2949869956233,None,1623.2949869956233,None,1623.2949869956233,None,1623.2949869956233,None,1624.2780870799238,None,1624.2780870799238,None,1625.2611621434703,None,1625.2611621434703,None,c,,,,,,,,,,,,,,,,,,,,,,,,,,,,,,,,,,,,,,,,,,,,,,,53_54Exp,001,2021_May_19_1037,ComputerHuman,2020.1.3,60.02399101974633,
Computer.xlsx,c,Sychronize.jpg,Number6.jpg,6,Computer,,,,,0,5,5,5,0,4,4,1,,,,,,,,,,,,,,,,,,,,,,,,,,,,,1626.3278831928533,None,1626.3278831928533,None,1626.7779401631865,None,1626.7779401631865,None,v,7.4728877671605005,1626.7779401631865,None,t,6.984577912704481,1626.7779401631865,None,7.4728877671605005,6.984577912704481,6.07559553261532,False,False,False,1634.3273215089953,None,1634.3273215089953,None,1634.3273215089953,None,1634.3273215089953,None,1634.3273215089953,None,1634.3273215089953,None,1634.3273215089953,None,1634.3273215089953,None,1635.3420834333092,None,1635.3420834333092,None,1636.3085145627206,None,1636.3085145627206,None,c,,,,,,,,,,,,,,,,,,,,,,,,,,,,,,,,,,,,,,,,,,,,,,,53_54Exp,001,2021_May_19_1037,ComputerHuman,2020.1.3,60.02399101974633,
Computer.xlsx,c,Sychronize.jpg,Number7.jpg,7,Computer,,,,,0,5,5,5,0,5,5,3,,,,,,,,,,,,,,,,,,,,,,,,,,,,,1637.3585307299772,None,1637.3585307299772,None,1637.8082621097242,None,1637.8082621097242,None,v,7.953642316126206,1637.8082621097242,None,t,5.976655315370863,1637.8082621097242,None,7.953642316126206,5.976655315370863,7.264799536342229,False,False,False,1645.8562522374327,None,1645.8562522374327,None,1645.8562522374327,None,1645.8562522374327,None,1645.8562522374327,None,1645.8562522374327,None,1645.8562522374327,None,1645.8562522374327,None,1646.8560270506432,None,1646.8560270506432,None,1647.8391540803718,None,1647.8391540803718,None,c,,,,,,,,,,,,,,,,,,,,,,,,,,,,,,,,,,,,,,,,,,,,,,,53_54Exp,001,2021_May_19_1037,ComputerHuman,2020.1.3,60.02399101974633,
Computer.xlsx,c,Sychronize.jpg,Number9.jpg,9,Computer,,,,,0,5,5,5,0,6,6,7,,,,,,,,,,,,,,,,,,,,,,,,,,,,,1648.8886784935708,None,1648.8886784935708,None,1649.3392336335396,None,1649.3392336335396,None,v,9.841749181693103,1649.3392336335396,None,t,7.0975742057835305,1649.3392336335396,None,9.841749181693103,7.0975742057835305,9.50383310623208,False,False,False,1659.254602214914,None,1659.254602214914,None,1659.254602214914,None,1659.254602214914,None,1659.254602214914,None,1659.254602214914,None,1659.254602214914,None,1659.254602214914,None,1660.269417709305,None,1660.269417709305,None,1661.2526172350654,None,1661.2526172350654,None,c,,,,,,,,,,,,,,,,,,,,,,,,,,,,,,,,,,,,,,,,,,,,,,,53_54Exp,001,2021_May_19_1037,ComputerHuman,2020.1.3,60.02399101974633,
Computer.xlsx,c,Sychronize.jpg,Number7.jpg,7,Computer,,,,,0,5,5,5,0,7,7,2,,,,,,,,,,,,,,,,,,,,,,,,,,,,,1662.3026988412184,None,1662.3026988412184,None,1662.752681070067,None,1662.752681070067,None,v,7.175506798588231,1662.752681070067,None,t,6.454662393036415,1662.752681070067,None,7.175506798588231,6.454662393036415,7.068174193776935,False,True,False,1670.0008170238648,None,1670.0008170238648,None,1670.0008170238648,None,1670.0008170238648,None,1670.0008170238648,None,1670.0008170238648,None,1670.0008170238648,None,1670.0008170238648,None,1670.9999634312048,None,1670.9999634312048,None,1671.983270417898,None,1671.983270417898,None,c,,,,,,,,,,,,,,,,,,,,,,,,,,,,,,,,,,,,,,,,,,,,,,,53_54Exp,001,2021_May_19_1037,ComputerHuman,2020.1.3,60.02399101974633,
Computer.xlsx,c,Sychronize.jpg,Number8.jpg,8,Computer,,,,,0,5,5,5,0,8,8,5,,,,,,,,,,,,,,,,,,,,,,,,,,,,,1673.0498955543894,None,1673.0498955543894,None,1673.483349650287,None,1673.483349650287,None,v,9.03601352660462,1673.483349650287,None,t,5.999647784764875,1673.483349650287,None,9.03601352660462,5.999647784764875,8.227321523171339,False,False,False,1682.5988624538559,None,1682.5988624538559,None,1682.5988624538559,None,1682.5988624538559,None,1682.5988624538559,None,1682.5988624538559,None,1682.5988624538559,None,1682.5988624538559,None,1683.6138511688541,None,1683.6138511688541,None,1684.5800850192404,None,1684.5800850192404,None,c,,,,,,,,,,,,,,,,,,,,,,,,,,,,,,,,,,,,,,,,,,,,,,,53_54Exp,001,2021_May_19_1037,ComputerHuman,2020.1.3,60.02399101974633,
Computer.xlsx,c,Sychronize.jpg,Number6.jpg,6,Computer,,,,,0,5,5,5,0,9,9,0,,,,,,,,,,,,,,,,,,,,,,,,,,,,,1685.6467374219383,None,1685.6467374219383,None,1686.0800022582835,None,1686.0800022582835,None,v,5.730634577656019,1686.0800022582835,None,t,6.413541103966963,1686.0800022582835,None,5.730634577656019,6.413541103966963,6.0896149236728165,False,False,False,1692.5622381642206,None,1692.5622381642206,None,1692.5622381642206,None,1692.5622381642206,None,1692.5622381642206,None,1692.5622381642206,None,1692.5622381642206,None,1692.5622381642206,None,1693.577931630468,None,1693.577931630468,None,1694.5611558562036,None,1694.5611558562036,None,c,,,,,,,,,,,,,,,,,,,,,,,,,,,,,,,,,,,,,,,,,,,,,,,53_54Exp,001,2021_May_19_1037,ComputerHuman,2020.1.3,60.02399101974633,
Computer.xlsx,c,,,,,,,,,0,5,5,5,,,,,,,,,,,,,,,,,,,,,,,,,,,,,,,,,,,,,,,,,,,,,,,,,,,,,,,,,,,,,,,,,,,,,,,,,,,,,,,c,1695.5616277219692,None,1695.5616277219692,None,q,0,4.376407417434621,1695.5616277219692,None,l,1,10.307306830152811,1695.5616277219692,None,h,c,1705.942247287173,None,1705.942247287173,None,1707.9412701946358,None,None,None,None,None,None,None,None,,,,,,,,,,,,,,,,,,53_54Exp,001,2021_May_19_1037,ComputerHuman,2020.1.3,60.02399101974633,
Human.xlsx,h,Sychronize.jpg,Number7.jpg,7,Human,,,,,0,6,6,0,0,0,0,3,,,,,,,,,,,,,,,,,,,,,,,,,1712.9588857680665,None,1712.9588857680665,None,1716.0228202111239,None,1716.0228202111239,None,1716.4729269021868,None,1716.4729269021868,None,v,7.295404649754346,1716.4729269021868,None,t,5.222647182984019,1716.4729269021868,None,7.295404649754346,5.222647182984019,7.184492638542614,False,False,False,1723.821169611203,None,1723.821169611203,None,1723.821169611203,None,1723.821169611203,None,1723.821169611203,None,1723.821169611203,None,1723.821169611203,None,1723.821169611203,None,1724.8222798269844,None,1724.8222798269844,None,1725.8370593941386,None,1725.8370593941386,None,h,,,,,,,,,,,,,,,,,,,,,,,,,,,,,,,,,,,,,,,,,,,,,,,53_54Exp,001,2021_May_19_1037,ComputerHuman,2020.1.3,60.02399101974633,
Human.xlsx,h,Sychronize.jpg,Number9.jpg,9,Human,,,,,0,6,6,0,0,1,1,6,,,,,,,,,,,,,,,,,,,,,,,,,,,,,1726.8871066769489,None,1726.8871066769489,None,1727.337159477156,None,1727.337159477156,None,v,8.526223354500416,1727.337159477156,None,t,8.021518490337712,1727.337159477156,None,8.526223354500416,8.021518490337712,9.57682913062026,False,False,False,1735.935060556641,None,1735.935060556641,None,1735.935060556641,None,1735.935060556641,None,1735.935060556641,None,1735.935060556641,None,1735.935060556641,None,1735.935060556641,None,1736.9195730304496,None,1736.9195730304496,None,1737.917364146927,None,1737.917364146927,None,h,,,,,,,,,,,,,,,,,,,,,,,,,,,,,,,,,,,,,,,,,,,,,,,53_54Exp,001,2021_May_19_1037,ComputerHuman,2020.1.3,60.02399101974633,
Human.xlsx,h,Sychronize.jpg,Number8.jpg,8,Human,,,,,0,6,6,0,0,2,2,5,,,,,,,,,,,,,,,,,,,,,,,,,,,,,1738.9841554468899,None,1738.9841554468899,None,1739.4174366429588,None,1739.4174366429588,None,v,7.42168311407022,1739.4174366429588,None,t,8.124545937463608,1739.4174366429588,None,7.42168311407022,8.124545937463608,8.285963032442503,False,False,False,1747.6155352580922,None,1747.6155352580922,None,1747.6155352580922,None,1747.6155352580922,None,1747.6155352580922,None,1747.6155352580922,None,1747.6155352580922,None,1747.6155352580922,None,1748.6168215814914,None,1748.6168215814914,None,1749.6146162265368,None,1749.6146162265368,None,h,,,,,,,,,,,,,,,,,,,,,,,,,,,,,,,,,,,,,,,,,,,,,,,53_54Exp,001,2021_May_19_1037,ComputerHuman,2020.1.3,60.02399101974633,
Human.xlsx,h,Sychronize.jpg,Number6.jpg,6,Human,,,,,0,6,6,0,0,3,3,1,,,,,,,,,,,,,,,,,,,,,,,,,,,,,1750.6485010643441,None,1750.6485010643441,None,1751.0979293080286,None,1751.0979293080286,None,v,5.268081023617924,1751.0979293080286,None,t,5.271782491374324,1751.0979293080286,None,5.268081023617924,5.271782491374324,6.367554042417192,True,False,False,1756.4464337726295,None,1756.4464337726295,None,1756.4464337726295,None,1756.4464337726295,None,1756.4464337726295,None,1756.4464337726295,None,1756.4464337726295,None,1756.4464337726295,None,1757.4478500114838,None,1757.4478500114838,None,1758.4457716849747,None,1758.4457716849747,None,h,,,,,,,,,,,,,,,,,,,,,,,,,,,,,,,,,,,,,,,,,,,,,,,53_54Exp,001,2021_May_19_1037,ComputerHuman,2020.1.3,60.02399101974633,
Human.xlsx,h,Sychronize.jpg,Number10.jpg,10,Human,,,,,0,6,6,0,0,4,4,8,,,,,,,,,,,,,,,,,,,,,,,,,,,,,1759.512485998001,None,1759.512485998001,None,1759.9623065542828,None,1759.9623065542828,None,v,10.034724957753042,1759.9623065542828,None,t,9.71441824179783,1759.9623065542828,None,10.034724957753042,9.71441824179783,10.25274242684368,False,False,False,1770.0767842043338,None,1770.0767842043338,None,1770.0767842043338,None,1770.0767842043338,None,1770.0767842043338,None,1770.0767842043338,None,1770.0767842043338,None,1770.0767842043338,None,1771.061358909249,None,1771.061358909249,None,1772.0591663854502,None,1772.0591663854502,None,h,,,,,,,,,,,,,,,,,,,,,,,,,,,,,,,,,,,,,,,,,,,,,,,53_54Exp,001,2021_May_19_1037,ComputerHuman,2020.1.3,60.02399101974633,
Human.xlsx,h,Sychronize.jpg,Number7.jpg,7,Human,,,,,0,6,6,0,0,5,5,2,,,,,,,,,,,,,,,,,,,,,,,,,,,,,1773.125560240353,None,1773.125560240353,None,1773.5592356736934,None,1773.5592356736934,None,v,6.9929807160556265,1773.5592356736934,None,t,7.352593754049849,1773.5592356736934,None,6.9929807160556265,7.352593754049849,6.885458191920251,False,False,False,1780.9915404187832,None,1780.9915404187832,None,1780.9915404187832,None,1780.9915404187832,None,1780.9915404187832,None,1780.9915404187832,None,1780.9915404187832,None,1780.9915404187832,None,1781.9922634544296,None,1781.9922634544296,None,1782.9899836787695,None,1782.9899836787695,None,h,,,,,,,,,,,,,,,,,,,,,,,,,,,,,,,,,,,,,,,,,,,,,,,53_54Exp,001,2021_May_19_1037,ComputerHuman,2020.1.3,60.02399101974633,
Human.xlsx,h,Sychronize.jpg,Number6.jpg,6,Human,,,,,0,6,6,0,0,6,6,0,,,,,,,,,,,,,,,,,,,,,,,,,,,,,1784.0240516813305,None,1784.0240516813305,None,1784.473333970614,None,1784.473333970614,None,v,6.042163820502537,1784.473333970614,None,t,5.009713505946365,1784.473333970614,None,6.042163820502537,5.009713505946365,6.156374142120941,False,False,False,1790.5721884049976,None,1790.5721884049976,None,1790.5721884049976,None,1790.5721884049976,None,1790.5721884049976,None,1790.5721884049976,None,1790.5721884049976,None,1790.5721884049976,None,1791.573584434781,None,1791.573584434781,None,1792.5876098507351,None,1792.5876098507351,None,h,,,,,,,,,,,,,,,,,,,,,,,,,,,,,,,,,,,,,,,,,,,,,,,53_54Exp,001,2021_May_19_1037,ComputerHuman,2020.1.3,60.02399101974633,
Human.xlsx,h,Sychronize.jpg,Number8.jpg,8,Human,,,,,0,6,6,0,0,7,7,4,,,,,,,,,,,,,,,,,,,,,,,,,,,,,1793.6372693118524,None,1793.6372693118524,None,1794.087762220714,None,1794.087762220714,None,v,8.106936138052788,1794.087762220714,None,t,7.818558150157514,1794.087762220714,None,8.106936138052788,7.818558150157514,8.371914966141402,True,False,False,1802.2696335935066,None,1802.2696335935066,None,1802.2696335935066,None,1802.2696335935066,None,1802.2696335935066,None,1802.2696335935066,None,1802.2696335935066,None,1802.2696335935066,None,1803.2537685105467,None,1803.2537685105467,None,1804.2514425427244,None,1804.2514425427244,None,h,,,,,,,,,,,,,,,,,,,,,,,,,,,,,,,,,,,,,,,,,,,,,,,53_54Exp,001,2021_May_19_1037,ComputerHuman,2020.1.3,60.02399101974633,
Human.xlsx,h,Sychronize.jpg,Number9.jpg,9,Human,,,,,0,6,6,0,0,8,8,7,,,,,,,,,,,,,,,,,,,,,,,,,,,,,1805.3014314437746,None,1805.3014314437746,None,1805.7512417351313,None,1805.7512417351313,None,v,8.855014351648151,1805.7512417351313,None,t,8.069558659554787,1805.7512417351313,None,8.855014351648151,8.069558659554787,9.044606305724392,False,False,False,1814.6987898936682,None,1814.6987898936682,None,1814.6987898936682,None,1814.6987898936682,None,1814.6987898936682,None,1814.6987898936682,None,1814.6987898936682,None,1814.6987898936682,None,1815.6849197347028,None,1815.6849197347028,None,1816.6817995183183,None,1816.6817995183183,None,h,,,,,,,,,,,,,,,,,,,,,,,,,,,,,,,,,,,,,,,,,,,,,,,53_54Exp,001,2021_May_19_1037,ComputerHuman,2020.1.3,60.02399101974633,
Human.xlsx,h,Sychronize.jpg,Number10.jpg,10,Human,,,,,0,6,6,0,0,9,9,9,,,,,,,,,,,,,,,,,,,,,,,,,,,,,1817.7314416573745,None,1817.7314416573745,None,1818.1650574258392,None,1818.1650574258392,None,v,8.643816409252395,1818.1650574258392,None,t,8.663859316638082,1818.1650574258392,None,8.643816409252395,8.663859316638082,9.500703546955053,True,False,False,1826.8976173184678,None,1826.8976173184678,None,1826.8976173184678,None,1826.8976173184678,None,1826.8976173184678,None,1826.8976173184678,None,1826.8976173184678,None,1826.8976173184678,None,1827.8979708168185,None,1827.8979708168185,None,1828.8955075556264,None,1828.8955075556264,None,h,,,,,,,,,,,,,,,,,,,,,,,,,,,,,,,,,,,,,,,,,,,,,,,53_54Exp,001,2021_May_19_1037,ComputerHuman,2020.1.3,60.02399101974633,
Human.xlsx,h,,,,,,,,,0,6,6,0,,,,,,,,,,,,,,,,,,,,,,,,,,,,,,,,,,,,,,,,,,,,,,,,,,,,,,,,,,,,,,,,,,,,,,,,,,,,,,,h,1829.8958844708368,None,1829.8958844708368,None,q,0,2.8325598284727675,1829.8958844708368,None,l,0,7.9353944874787885,1829.8958844708368,None,h,c,1837.9104545693672,None,1837.9104545693672,None,1839.9095496520831,None,None,None,None,None,None,None,None,,,,,,,,,,,,,,,,,,53_54Exp,001,2021_May_19_1037,ComputerHuman,2020.1.3,60.02399101974633,
Computer.xlsx,c,Sychronize.jpg,Number8.jpg,8,Computer,,,,,0,7,7,3,0,0,0,4,,,,,,,,,,,,,,,,,,,,,,,,,1844.9273875252934,None,1844.9273875252934,None,1847.9913194021192,None,1847.9913194021192,None,1848.4413401244365,None,1848.4413401244365,None,v,6.793494090611148,1848.4413401244365,None,t,5.896707589500238,1848.4413401244365,None,6.793494090611148,5.896707589500238,7.76819765340762,False,False,False,1855.3064429725682,None,1855.3064429725682,None,1855.3064429725682,None,1855.3064429725682,None,1855.3064429725682,None,1855.3064429725682,None,1855.3064429725682,None,1855.3064429725682,None,1856.322097624568,None,1856.322097624568,None,1857.3053266619877,None,1857.3053266619877,None,c,,,,,,,,,,,,,,,,,,,,,,,,,,,,,,,,,,,,,,,,,,,,,,,53_54Exp,001,2021_May_19_1037,ComputerHuman,2020.1.3,60.02399101974633,
Computer.xlsx,c,Sychronize.jpg,Number10.jpg,10,Computer,,,,,0,7,7,3,0,1,1,8,,,,,,,,,,,,,,,,,,,,,,,,,,,,,1858.3727790872686,None,1858.3727790872686,None,1858.8225605085245,None,1858.8225605085245,None,v,7.44750645727936,1858.8225605085245,None,t,8.10250297362063,1858.8225605085245,None,7.44750645727936,8.10250297362063,9.610612122396278,False,False,False,1867.003547173104,None,1867.003547173104,None,1867.003547173104,None,1867.003547173104,None,1867.003547173104,None,1867.003547173104,None,1867.003547173104,None,1867.003547173104,None,1868.019272396462,None,1868.019272396462,None,1868.9858587828621,None,1868.9858587828621,None,c,,,,,,,,,,,,,,,,,,,,,,,,,,,,,,,,,,,,,,,,,,,,,,,53_54Exp,001,2021_May_19_1037,ComputerHuman,2020.1.3,60.02399101974633,
Computer.xlsx,c,Sychronize.jpg,Number9.jpg,9,Computer,,,,,0,7,7,3,0,2,2,6,,,,,,,,,,,,,,,,,,,,,,,,,,,,,1870.0527870554165,None,1870.0527870554165,None,1870.4859229386425,None,1870.4859229386425,None,v,7.203381843657553,1870.4859229386425,None,t,6.8665970362594635,1870.4859229386425,None,7.203381843657553,6.8665970362594635,8.545969490584433,False,False,False,1877.7675934396866,None,1877.7675934396866,None,1877.7675934396866,None,1877.7675934396866,None,1877.7675934396866,None,1877.7675934396866,None,1877.7675934396866,None,1877.7675934396866,None,1878.7833590811865,None,1878.7833590811865,None,1879.7665740043344,None,1879.7665740043344,None,c,,,,,,,,,,,,,,,,,,,,,,,,,,,,,,,,,,,,,,,,,,,,,,,53_54Exp,001,2021_May_19_1037,ComputerHuman,2020.1.3,60.02399101974633,
Computer.xlsx,c,Sychronize.jpg,Number8.jpg,8,Computer,,,,,0,7,7,3,0,3,3,5,,,,,,,,,,,,,,,,,,,,,,,,,,,,,1880.8169888997668,None,1880.8169888997668,None,1881.266393085033,None,1881.266393085033,None,v,8.101922684585588,1881.266393085033,None,t,5.185662017083359,1881.266393085033,None,8.101922684585588,5.185662017083359,7.847200254282759,False,True,False,1889.449224549081,None,1889.449224549081,None,1889.449224549081,None,1889.449224549081,None,1889.449224549081,None,1889.449224549081,None,1889.449224549081,None,1889.449224549081,None,1890.4472386068956,None,1890.4472386068956,None,1891.4304599456214,None,1891.4304599456214,None,c,,,,,,,,,,,,,,,,,,,,,,,,,,,,,,,,,,,,,,,,,,,,,,,53_54Exp,001,2021_May_19_1037,ComputerHuman,2020.1.3,60.02399101974633,
Computer.xlsx,c,Sychronize.jpg,Number10.jpg,10,Computer,,,,,0,7,7,3,0,4,4,9,,,,,,,,,,,,,,,,,,,,,,,,,,,,,1892.4970674392735,None,1892.4970674392735,None,1892.9469046760582,None,1892.9469046760582,None,v,9.936469096802284,1892.9469046760582,None,t,9.259388877697347,1892.9469046760582,None,9.936469096802284,9.259388877697347,9.589694216325988,False,False,False,1902.9612264917182,None,1902.9612264917182,None,1902.9612264917182,None,1902.9612264917182,None,1902.9612264917182,None,1902.9612264917182,None,1902.9612264917182,None,1902.9612264917182,None,1903.9605441949925,None,1903.9605441949925,None,1904.9438165375636,None,1904.9438165375636,None,c,,,,,,,,,,,,,,,,,,,,,,,,,,,,,,,,,,,,,,,,,,,,,,,53_54Exp,001,2021_May_19_1037,ComputerHuman,2020.1.3,60.02399101974633,
Computer.xlsx,c,Sychronize.jpg,Number9.jpg,9,Computer,,,,,0,7,7,3,0,5,5,7,,,,,,,,,,,,,,,,,,,,,,,,,,,,,1905.9941419356824,None,1905.9941419356824,None,1906.444026006187,None,1906.444026006187,None,v,9.170861278522352,1906.444026006187,None,t,7.697544309190107,1906.444026006187,None,9.170861278522352,7.697544309190107,8.980930141477593,False,True,False,1915.6921083899078,None,1915.6921083899078,None,1915.6921083899078,None,1915.6921083899078,None,1915.6921083899078,None,1915.6921083899078,None,1915.6921083899078,None,1915.6921083899078,None,1916.7075401005704,None,1916.7075401005704,None,1917.6741248830758,None,1917.6741248830758,None,c,,,,,,,,,,,,,,,,,,,,,,,,,,,,,,,,,,,,,,,,,,,,,,,53_54Exp,001,2021_May_19_1037,ComputerHuman,2020.1.3,60.02399101974633,
Computer.xlsx,c,Sychronize.jpg,Number7.jpg,7,Computer,,,,,0,7,7,3,0,6,6,3,,,,,,,,,,,,,,,,,,,,,,,,,,,,,1918.724511549965,None,1918.724511549965,None,1919.1739660975195,None,1919.1739660975195,None,v,7.143777595004849,1919.1739660975195,None,t,5.586669968550723,1919.1739660975195,None,7.143777595004849,5.586669968550723,7.041775415682468,False,True,False,1926.3895737874877,None,1926.3895737874877,None,1926.3895737874877,None,1926.3895737874877,None,1926.3895737874877,None,1926.3895737874877,None,1926.3895737874877,None,1926.3895737874877,None,1927.405108788957,None,1927.405108788957,None,1928.3882800861738,None,1928.3882800861738,None,c,,,,,,,,,,,,,,,,,,,,,,,,,,,,,,,,,,,,,,,,,,,,,,,53_54Exp,001,2021_May_19_1037,ComputerHuman,2020.1.3,60.02399101974633,
Computer.xlsx,c,Sychronize.jpg,Number6.jpg,6,Computer,,,,,0,7,7,3,0,7,7,0,,,,,,,,,,,,,,,,,,,,,,,,,,,,,1929.4387376452005,None,1929.4387376452005,None,1929.8884221912276,None,1929.8884221912276,None,v,5.736611650946088,1929.8884221912276,None,t,4.771812003033119,1929.8884221912276,None,5.736611650946088,4.771812003033119,6.158421474789998,False,False,False,1935.7197823066053,None,1935.7197823066053,None,1935.7197823066053,None,1935.7197823066053,None,1935.7197823066053,None,1935.7197823066053,None,1935.7197823066053,None,1935.7197823066053,None,1936.702916072691,None,1936.702916072691,None,1937.6858779012846,None,1937.6858779012846,None,c,,,,,,,,,,,,,,,,,,,,,,,,,,,,,,,,,,,,,,,,,,,,,,,53_54Exp,001,2021_May_19_1037,ComputerHuman,2020.1.3,60.02399101974633,
Computer.xlsx,c,Sychronize.jpg,Number7.jpg,7,Computer,,,,,0,7,7,3,0,8,8,2,,,,,,,,,,,,,,,,,,,,,,,,,,,,,1938.7363219875974,None,1938.7363219875974,None,1939.1861852074735,None,1939.1861852074735,None,v,6.902082881570095,1939.1861852074735,None,t,5.073752522926043,1939.1861852074735,None,6.902082881570095,5.073752522926043,7.298010960239741,False,False,False,1946.16772566475,None,1946.16772566475,None,1946.16772566475,None,1946.16772566475,None,1946.16772566475,None,1946.16772566475,None,1946.16772566475,None,1946.16772566475,None,1947.1835512919047,None,1947.1835512919047,None,1948.1668579578186,None,1948.1668579578186,None,c,,,,,,,,,,,,,,,,,,,,,,,,,,,,,,,,,,,,,,,,,,,,,,,53_54Exp,001,2021_May_19_1037,ComputerHuman,2020.1.3,60.02399101974633,
Computer.xlsx,c,Sychronize.jpg,Number6.jpg,6,Computer,,,,,0,7,7,3,0,9,9,1,,,,,,,,,,,,,,,,,,,,,,,,,,,,,1949.2167086031618,None,1949.2167086031618,None,1949.6666584333416,None,1949.6666584333416,None,v,5.409022612346234,1949.6666584333416,None,t,4.108812694632434,1949.6666584333416,None,5.409022612346234,4.108812694632434,6.038160981960201,False,False,False,1955.165119656946,None,1955.165119656946,None,1955.165119656946,None,1955.165119656946,None,1955.165119656946,None,1955.165119656946,None,1955.165119656946,None,1955.165119656946,None,1956.1481963243868,None,1956.1481963243868,None,1957.1313313735882,None,1957.1313313735882,None,c,,,,,,,,,,,,,,,,,,,,,,,,,,,,,,,,,,,,,,,,,,,,,,,53_54Exp,001,2021_May_19_1037,ComputerHuman,2020.1.3,60.02399101974633,
Computer.xlsx,c,,,,,,,,,0,7,7,3,,,,,,,,,,,,,,,,,,,,,,,,,,,,,,,,,,,,,,,,,,,,,,,,,,,,,,,,,,,,,,,,,,,,,,,,,,,,,,,c,1958.1320451066463,None,1958.1320451066463,None,a,0,3.227174014855791,1958.1320451066463,None,o,0,11.898146924435878,1958.1320451066463,None,c,h,1970.1117712384503,None,1970.1117712384503,None,1972.1110408248892,None,None,None,None,None,None,None,None,,,,,,,,,,,,,,,,,,53_54Exp,001,2021_May_19_1037,ComputerHuman,2020.1.3,60.02399101974633,
Human.xlsx,h,Sychronize.jpg,Number9.jpg,9,Human,,,,,0,8,8,8,0,0,0,7,,,,,,,,,,,,,,,,,,,,,,,,,1977.1291715692373,None,1977.1291715692373,None,1980.1929722474924,None,1980.1929722474924,None,1980.6428357881473,None,1980.6428357881473,None,v,9.750232885483001,1980.6428357881473,None,t,6.433613202233573,1980.6428357881473,None,9.750232885483001,6.433613202233573,8.907583071835123,False,False,False,1990.4746392199681,None,1990.4746392199681,None,1990.4746392199681,None,1990.4746392199681,None,1990.4746392199681,None,1990.4746392199681,None,1990.4746392199681,None,1990.4746392199681,None,1991.475196733701,None,1991.475196733701,None,1992.4894900000386,None,1992.4894900000386,None,h,,,,,,,,,,,,,,,,,,,,,,,,,,,,,,,,,,,,,,,,,,,,,,,53_54Exp,001,2021_May_19_1037,ComputerHuman,2020.1.3,60.02399101974633,
Human.xlsx,h,Sychronize.jpg,Number7.jpg,7,Human,,,,,0,8,8,8,0,1,1,3,,,,,,,,,,,,,,,,,,,,,,,,,,,,,1993.5396550087057,None,1993.5396550087057,None,1993.989750793286,None,1993.989750793286,None,v,6.174702605879702,1993.989750793286,None,t,6.009689768307908,1993.989750793286,None,6.174702605879702,6.009689768307908,7.200526322018191,True,False,False,2000.2391060276923,None,2000.2391060276923,None,2000.2391060276923,None,2000.2391060276923,None,2000.2391060276923,None,2000.2391060276923,None,2000.2391060276923,None,2000.2391060276923,None,2001.2394935286065,None,2001.2394935286065,None,2002.220432525441,None,2002.220432525441,None,h,,,,,,,,,,,,,,,,,,,,,,,,,,,,,,,,,,,,,,,,,,,,,,,53_54Exp,001,2021_May_19_1037,ComputerHuman,2020.1.3,60.02399101974633,
Human.xlsx,h,Sychronize.jpg,Number8.jpg,8,Human,,,,,0,8,8,8,0,2,2,4,,,,,,,,,,,,,,,,,,,,,,,,,,,,,2003.287174425453,None,2003.287174425453,None,2003.7206859407738,None,2003.7206859407738,None,v,6.903009932597797,2003.7206859407738,None,t,6.738631274916315,2003.7206859407738,None,6.903009932597797,6.738631274916315,8.047920956362121,True,False,False,2010.718444658582,None,2010.718444658582,None,2010.718444658582,None,2010.718444658582,None,2010.718444658582,None,2010.718444658582,None,2010.718444658582,None,2010.718444658582,None,2011.7036676576595,None,2011.7036676576595,None,2012.7013048002636,None,2012.7013048002636,None,h,,,,,,,,,,,,,,,,,,,,,,,,,,,,,,,,,,,,,,,,,,,,,,,53_54Exp,001,2021_May_19_1037,ComputerHuman,2020.1.3,60.02399101974633,
Human.xlsx,h,Sychronize.jpg,Number10.jpg,10,Human,,,,,0,8,8,8,0,3,3,8,,,,,,,,,,,,,,,,,,,,,,,,,,,,,2013.7514123895075,None,2013.7514123895075,None,2014.2010135330202,None,2014.2010135330202,None,v,8.93372804108003,2014.2010135330202,None,t,7.885556352513049,2014.2010135330202,None,8.93372804108003,7.885556352513049,10.044935154083614,False,False,False,2023.1990782739017,None,2023.1990782739017,None,2023.1990782739017,None,2023.1990782739017,None,2023.1990782739017,None,2023.1990782739017,None,2023.1990782739017,None,2023.1990782739017,None,2024.2008855422382,None,2024.2008855422382,None,2025.1982519474486,None,2025.1982519474486,None,h,,,,,,,,,,,,,,,,,,,,,,,,,,,,,,,,,,,,,,,,,,,,,,,53_54Exp,001,2021_May_19_1037,ComputerHuman,2020.1.3,60.02399101974633,
Human.xlsx,h,Sychronize.jpg,Number10.jpg,10,Human,,,,,0,8,8,8,0,4,4,9,,,,,,,,,,,,,,,,,,,,,,,,,,,,,2026.2651818238974,None,2026.2651818238974,None,2026.715117860584,None,2026.715117860584,None,v,9.198695584670986,2026.715117860584,None,t,7.882513443843436,2026.715117860584,None,9.198695584670986,7.882513443843436,9.393857534488067,False,False,False,2036.012357365661,None,2036.012357365661,None,2036.012357365661,None,2036.012357365661,None,2036.012357365661,None,2036.012357365661,None,2036.012357365661,None,2036.012357365661,None,2036.9809171838692,None,2036.9809171838692,None,2037.9785164745626,None,2037.9785164745626,None,h,,,,,,,,,,,,,,,,,,,,,,,,,,,,,,,,,,,,,,,,,,,,,,,53_54Exp,001,2021_May_19_1037,ComputerHuman,2020.1.3,60.02399101974633,
Human.xlsx,h,Sychronize.jpg,Number6.jpg,6,Human,,,,,0,8,8,8,0,5,5,0,,,,,,,,,,,,,,,,,,,,,,,,,,,,,2039.0459679375072,None,2039.0459679375072,None,2039.4782361138018,None,2039.4782361138018,None,v,5.51893205004626,2039.4782361138018,None,t,5.0989311005409945,2039.4782361138018,None,5.51893205004626,5.0989311005409945,6.382636093883073,False,False,False,2045.0935012760583,None,2045.0935012760583,None,2045.0935012760583,None,2045.0935012760583,None,2045.0935012760583,None,2045.0935012760583,None,2045.0935012760583,None,2045.0935012760583,None,2046.0781898574842,None,2046.0781898574842,None,2047.076344737237,None,2047.076344737237,None,h,,,,,,,,,,,,,,,,,,,,,,,,,,,,,,,,,,,,,,,,,,,,,,,53_54Exp,001,2021_May_19_1037,ComputerHuman,2020.1.3,60.02399101974633,
Human.xlsx,h,Sychronize.jpg,Number7.jpg,7,Human,,,,,0,8,8,8,0,6,6,2,,,,,,,,,,,,,,,,,,,,,,,,,,,,,2048.126607262691,None,2048.126607262691,None,2048.576424290405,None,2048.576424290405,None,v,6.692017609478626,2048.576424290405,None,t,6.539643781444283,2048.576424290405,None,6.692017609478626,6.539643781444283,7.021050645547868,True,False,False,2055.357672967192,None,2055.357672967192,None,2055.357672967192,None,2055.357672967192,None,2055.357672967192,None,2055.357672967192,None,2055.357672967192,None,2055.357672967192,None,2056.326529185106,None,2056.326529185106,None,2057.3238920617487,None,2057.3238920617487,None,h,,,,,,,,,,,,,,,,,,,,,,,,,,,,,,,,,,,,,,,,,,,,,,,53_54Exp,001,2021_May_19_1037,ComputerHuman,2020.1.3,60.02399101974633,
Human.xlsx,h,Sychronize.jpg,Number6.jpg,6,Human,,,,,0,8,8,8,0,7,7,1,,,,,,,,,,,,,,,,,,,,,,,,,,,,,2058.390313503637,None,2058.390313503637,None,2058.840619719177,None,2058.840619719177,None,v,5.767119649247434,2058.840619719177,None,t,4.866632321939051,2058.840619719177,None,5.767119649247434,4.866632321939051,5.599452132209197,False,False,False,2064.7054807000163,None,2064.7054807000163,None,2064.7054807000163,None,2064.7054807000163,None,2064.7054807000163,None,2064.7054807000163,None,2064.7054807000163,None,2064.7054807000163,None,2065.6908701833445,None,2065.6908701833445,None,2066.688318066396,None,2066.688318066396,None,h,,,,,,,,,,,,,,,,,,,,,,,,,,,,,,,,,,,,,,,,,,,,,,,53_54Exp,001,2021_May_19_1037,ComputerHuman,2020.1.3,60.02399101974633,
Human.xlsx,h,Sychronize.jpg,Number9.jpg,9,Human,,,,,0,8,8,8,0,8,8,6,,,,,,,,,,,,,,,,,,,,,,,,,,,,,2067.72213971076,None,2067.72213971076,None,2068.1710970510153,None,2068.1710970510153,None,v,9.187774666935638,2068.1710970510153,None,t,9.531423822067609,2068.1710970510153,None,9.187774666935638,9.531423822067609,8.45496932359882,False,False,False,2077.7692910016385,None,2077.7692910016385,None,2077.7692910016385,None,2077.7692910016385,None,2077.7692910016385,None,2077.7692910016385,None,2077.7692910016385,None,2077.7692910016385,None,2078.770999470073,None,2078.770999470073,None,2079.768567965992,None,2079.768567965992,None,h,,,,,,,,,,,,,,,,,,,,,,,,,,,,,,,,,,,,,,,,,,,,,,,53_54Exp,001,2021_May_19_1037,ComputerHuman,2020.1.3,60.02399101974633,
Human.xlsx,h,Sychronize.jpg,Number8.jpg,8,Human,,,,,0,8,8,8,0,9,9,5,,,,,,,,,,,,,,,,,,,,,,,,,,,,,2080.8185206190265,None,2080.8185206190265,None,2081.268577589359,None,2081.268577589359,None,v,7.55745952091047,2081.268577589359,None,t,8.076426535857081,2081.268577589359,None,7.55745952091047,8.076426535857081,8.244410646834554,False,False,False,2089.432794253695,None,2089.432794253695,None,2089.432794253695,None,2089.432794253695,None,2089.432794253695,None,2089.432794253695,None,2089.432794253695,None,2089.432794253695,None,2090.4007009660577,None,2090.4007009660577,None,2091.399008857347,None,2091.399008857347,None,h,,,,,,,,,,,,,,,,,,,,,,,,,,,,,,,,,,,,,,,,,,,,,,,53_54Exp,001,2021_May_19_1037,ComputerHuman,2020.1.3,60.02399101974633,
Human.xlsx,h,,,,,,,,,0,8,8,8,,,,,,,,,,,,,,,,,,,,,,,,,,,,,,,,,,,,,,,,,,,,,,,,,,,,,,,,,,,,,,,,,,,,,,,,,,,,,,,h,2092.416791556586,None,2092.416791556586,None,a,0,5.112579280505543,2092.416791556586,None,l,0,5.819690820462256,2092.416791556586,None,c,c,2098.3142356544467,None,2098.3142356544467,None,2100.3302316151985,None,None,None,None,None,None,None,None,,,,,,,,,,,,,,,,,,53_54Exp,001,2021_May_19_1037,ComputerHuman,2020.1.3,60.02399101974633,
Computer.xlsx,c,Sychronize.jpg,Number7.jpg,7,Computer,,,,,0,9,9,7,0,0,0,2,,,,,,,,,,,,,,,,,,,,,,,,,2105.3146581202614,None,2105.3146581202614,None,2108.4115708799477,None,2108.4115708799477,None,2108.8450891316256,None,2108.8450891316256,None,v,7.090996313608684,2108.8450891316256,None,None,,2108.8450891316256,None,7.090996313608684,13,7.116494629382431,False,True,False,2121.9250063835,None,2121.9250063835,None,2121.9250063835,None,2121.9250063835,None,2121.9250063835,None,2121.9250063835,None,2121.9250063835,None,2121.9250063835,None,2122.907905980987,None,2122.907905980987,None,2123.8911321313963,None,2123.8911321313963,None,c,,,,,,,,,,,,,,,,,,,,,,,,,,,,,,,,,,,,,,,,,,,,,,,53_54Exp,001,2021_May_19_1037,ComputerHuman,2020.1.3,60.02399101974633,
Computer.xlsx,c,Sychronize.jpg,Number7.jpg,7,Computer,,,,,0,9,9,7,0,1,1,3,,,,,,,,,,,,,,,,,,,,,,,,,,,,,2124.9580430818896,None,2124.9580430818896,None,2125.424457530798,None,2125.424457530798,None,v,6.634429456228645,2125.424457530798,None,t,7.1695457642426845,2125.424457530798,None,6.634429456228645,7.1695457642426845,6.577243963235007,False,True,False,2132.6890699721434,None,2132.6890699721434,None,2132.6890699721434,None,2132.6890699721434,None,2132.6890699721434,None,2132.6890699721434,None,2132.6890699721434,None,2132.6890699721434,None,2133.688791856835,None,2133.688791856835,None,2134.6552621212722,None,2134.6552621212722,None,c,,,,,,,,,,,,,,,,,,,,,,,,,,,,,,,,,,,,,,,,,,,,,,,53_54Exp,001,2021_May_19_1037,ComputerHuman,2020.1.3,60.02399101974633,
Computer.xlsx,c,Sychronize.jpg,Number10.jpg,10,Computer,,,,,0,9,9,7,0,2,2,8,,,,,,,,,,,,,,,,,,,,,,,,,,,,,2135.7227402088656,None,2135.7227402088656,None,2136.155187379788,None,2136.155187379788,None,v,9.342752578099862,2136.155187379788,None,t,7.60262486960346,2136.155187379788,None,9.342752578099862,7.60262486960346,10.218196670677207,False,False,False,2145.5705402429962,None,2145.5705402429962,None,2145.5705402429962,None,2145.5705402429962,None,2145.5705402429962,None,2145.5705402429962,None,2145.5705402429962,None,2145.5705402429962,None,2146.5857044240543,None,2146.5857044240543,None,2147.568883419965,None,2147.568883419965,None,c,,,,,,,,,,,,,,,,,,,,,,,,,,,,,,,,,,,,,,,,,,,,,,,53_54Exp,001,2021_May_19_1037,ComputerHuman,2020.1.3,60.02399101974633,
Computer.xlsx,c,Sychronize.jpg,Number9.jpg,9,Computer,,,,,0,9,9,7,0,3,3,7,,,,,,,,,,,,,,,,,,,,,,,,,,,,,2148.6191760986358,None,2148.6191760986358,None,2149.068991843234,None,2149.068991843234,None,v,8.968025079777362,2149.068991843234,None,t,7.663547519545318,2149.068991843234,None,8.968025079777362,7.663547519545318,9.25675103558001,False,True,False,2158.099899532048,None,2158.099899532048,None,2158.099899532048,None,2158.099899532048,None,2158.099899532048,None,2158.099899532048,None,2158.099899532048,None,2158.099899532048,None,2159.132676720305,None,2159.132676720305,None,2160.115839356492,None,2160.115839356492,None,c,,,,,,,,,,,,,,,,,,,,,,,,,,,,,,,,,,,,,,,,,,,,,,,53_54Exp,001,2021_May_19_1037,ComputerHuman,2020.1.3,60.02399101974633,
Computer.xlsx,c,Sychronize.jpg,Number8.jpg,8,Computer,,,,,0,9,9,7,0,4,4,4,,,,,,,,,,,,,,,,,,,,,,,,,,,,,2161.166170207852,None,2161.166170207852,None,2161.615757557872,None,2161.615757557872,None,v,0.14902778330224464,2161.615757557872,None,t,5.015679993533013,2161.615757557872,None,0.14902778330224464,5.015679993533013,8.379634005329782,False,False,False,2166.715273438352,None,2166.715273438352,None,2166.715273438352,None,2166.715273438352,None,2166.715273438352,None,2166.715273438352,None,2166.715273438352,None,2166.715273438352,None,2167.730453658355,None,2167.730453658355,None,2168.6970544798055,None,2168.6970544798055,None,c,,,,,,,,,,,,,,,,,,,,,,,,,,,,,,,,,,,,,,,,,,,,,,,53_54Exp,001,2021_May_19_1037,ComputerHuman,2020.1.3,60.02399101974633,
Computer.xlsx,c,Sychronize.jpg,Number6.jpg,6,Computer,,,,,0,9,9,7,0,5,5,1,,,,,,,,,,,,,,,,,,,,,,,,,,,,,2169.74716495606,None,2169.74716495606,None,2170.196840520278,None,2170.196840520278,None,v,5.610925986042275,2170.196840520278,None,t,5.839173006326746,2170.196840520278,None,5.610925986042275,5.839173006326746,5.56626332083533,False,True,True,2176.113275049945,None,2176.113275049945,None,2176.113275049945,None,2176.113275049945,None,2176.113275049945,None,2176.113275049945,None,2176.113275049945,None,2176.113275049945,None,2177.128347488237,None,2177.128347488237,None,2178.1115640152793,None,2178.1115640152793,None,c,,,,,,,,,,,,,,,,,,,,,,,,,,,,,,,,,,,,,,,,,,,,,,,53_54Exp,001,2021_May_19_1037,ComputerHuman,2020.1.3,60.02399101974633,
Computer.xlsx,c,Sychronize.jpg,Number10.jpg,10,Computer,,,,,0,9,9,7,0,6,6,9,,,,,,,,,,,,,,,,,,,,,,,,,,,,,2179.1614602112263,None,2179.1614602112263,None,2179.6111649663244,None,2179.6111649663244,None,None,,2179.6111649663244,None,t,8.343506408520625,2179.6111649663244,None,13,8.343506408520625,10.151546686232805,False,False,False,2192.676431924943,None,2192.676431924943,None,2192.676431924943,None,2192.676431924943,None,2192.676431924943,None,2192.676431924943,None,2192.676431924943,None,2192.676431924943,None,2193.6910369883735,None,2193.6910369883735,None,2194.6742114933795,None,2194.6742114933795,None,c,,,,,,,,,,,,,,,,,,,,,,,,,,,,,,,,,,,,,,,,,,,,,,,53_54Exp,001,2021_May_19_1037,ComputerHuman,2020.1.3,60.02399101974633,
Computer.xlsx,c,Sychronize.jpg,Number9.jpg,9,Computer,,,,,0,9,9,7,0,7,7,6,,,,,,,,,,,,,,,,,,,,,,,,,,,,,2195.724236321667,None,2195.724236321667,None,2196.1743138218494,None,2196.1743138218494,None,v,8.52335430799667,2196.1743138218494,None,t,7.162570427008177,2196.1743138218494,None,8.52335430799667,7.162570427008177,8.668829381385732,False,True,False,2204.773042190124,None,2204.773042190124,None,2204.773042190124,None,2204.773042190124,None,2204.773042190124,None,2204.773042190124,None,2204.773042190124,None,2204.773042190124,None,2205.771257055532,None,2205.771257055532,None,2206.754504377349,None,2206.754504377349,None,c,,,,,,,,,,,,,,,,,,,,,,,,,,,,,,,,,,,,,,,,,,,,,,,53_54Exp,001,2021_May_19_1037,ComputerHuman,2020.1.3,60.02399101974633,
Computer.xlsx,c,Sychronize.jpg,Number8.jpg,8,Computer,,,,,0,9,9,7,0,8,8,5,,,,,,,,,,,,,,,,,,,,,,,,,,,,,2207.838050921726,None,2207.838050921726,None,2208.2548283640403,None,2208.2548283640403,None,v,7.698037667142216,2208.2548283640403,None,t,6.313618155058975,2208.2548283640403,None,7.698037667142216,6.313618155058975,7.446663018099012,False,True,False,2216.0523594571396,None,2216.0523594571396,None,2216.0523594571396,None,2216.0523594571396,None,2216.0523594571396,None,2216.0523594571396,None,2216.0523594571396,None,2216.0523594571396,None,2217.052094172987,None,2217.052094172987,None,2218.018526585514,None,2218.018526585514,None,c,,,,,,,,,,,,,,,,,,,,,,,,,,,,,,,,,,,,,,,,,,,,,,,53_54Exp,001,2021_May_19_1037,ComputerHuman,2020.1.3,60.02399101974633,
Computer.xlsx,c,Sychronize.jpg,Number6.jpg,6,Computer,,,,,0,9,9,7,0,9,9,0,,,,,,,,,,,,,,,,,,,,,,,,,,,,,2219.085554941086,None,2219.085554941086,None,2219.5183094181966,None,2219.5183094181966,None,v,5.809878835393192,2219.5183094181966,None,t,4.436761326382111,2219.5183094181966,None,5.809878835393192,4.436761326382111,6.259623638850799,False,False,False,2225.416725155353,None,2225.416725155353,None,2225.416725155353,None,2225.416725155353,None,2225.416725155353,None,2225.416725155353,None,2225.416725155353,None,2225.416725155353,None,2226.416509271152,None,2226.416509271152,None,2227.399644961911,None,2227.399644961911,None,c,,,,,,,,,,,,,,,,,,,,,,,,,,,,,,,,,,,,,,,,,,,,,,,53_54Exp,001,2021_May_19_1037,ComputerHuman,2020.1.3,60.02399101974633,
Computer.xlsx,c,,,,,,,,,0,9,9,7,,,,,,,,,,,,,,,,,,,,,,,,,,,,,,,,,,,,,,,,,,,,,,,,,,,,,,,,,,,,,,,,,,,,,,,,,,,,,,,c,2228.3997116839223,None,2228.3997116839223,None,q,0,5.307873004915564,2228.3997116839223,None,o,0,7.055096663514632,2228.3997116839223,None,h,h,2235.5311091379644,None,2235.5311091379644,None,None,None,2237.530570229408,None,2237.530570229408,None,"['space', 'space']",2238.513440636015,None,"[264.53076301752844, 265.62715739850864]",,,,,,,,,,,,,,,,,53_54Exp,001,2021_May_19_1037,ComputerHuman,2020.1.3,60.02399101974633,
Human.xlsx,h,Sychronize.jpg,Number7.jpg,7,Human,,,,,1,0,10,4,0,0,0,3,,,,,,,,,,,,,,,,,,,,,,,,,2504.1859340375927,None,2504.1859340375927,None,2507.265874706327,None,2507.265874706327,None,2507.6992755529263,None,2507.6992755529263,None,v,6.48410604693936,2507.6992755529263,None,t,5.179728248944684,2507.6992755529263,None,6.48410604693936,5.179728248944684,7.31833550469438,False,False,False,2514.2640324730896,None,2514.2640324730896,None,2514.2640324730896,None,2514.2640324730896,None,2514.2640324730896,None,2514.2640324730896,None,2514.2640324730896,None,2514.2640324730896,None,2515.282455447018,None,2515.282455447018,None,2516.2802430349275,None,2516.2802430349275,None,h,,,,,,,,,,,,,,,,,,,,,,,,,,,,,,,,,,,,,,,,,,,,,,,53_54Exp,001,2021_May_19_1037,ComputerHuman,2020.1.3,60.02399101974633,
Human.xlsx,h,Sychronize.jpg,Number6.jpg,6,Human,,,,,1,0,10,4,0,1,1,0,,,,,,,,,,,,,,,,,,,,,,,,,,,,,2517.3303313774372,None,2517.3303313774372,None,2517.7635609281033,None,2517.7635609281033,None,v,5.391221949488681,2517.7635609281033,None,t,4.170755742262827,2517.7635609281033,None,5.391221949488681,4.170755742262827,6.1372513342649295,False,False,False,2523.2288436690433,None,2523.2288436690433,None,2523.2288436690433,None,2523.2288436690433,None,2523.2288436690433,None,2523.2288436690433,None,2523.2288436690433,None,2523.2288436690433,None,2524.2138674644225,None,2524.2138674644225,None,2525.227936185528,None,2525.227936185528,None,h,,,,,,,,,,,,,,,,,,,,,,,,,,,,,,,,,,,,,,,,,,,,,,,53_54Exp,001,2021_May_19_1037,ComputerHuman,2020.1.3,60.02399101974633,
Human.xlsx,h,Sychronize.jpg,Number6.jpg,6,Human,,,,,1,0,10,4,0,2,2,1,,,,,,,,,,,,,,,,,,,,,,,,,,,,,2526.2782195616105,None,2526.2782195616105,None,2526.727942280327,None,2526.727942280327,None,v,5.450165072822983,2526.727942280327,None,t,3.522206240304513,2526.727942280327,None,5.450165072822983,3.522206240304513,5.788974546911774,False,False,False,2532.259808777281,None,2532.259808777281,None,2532.259808777281,None,2532.259808777281,None,2532.259808777281,None,2532.259808777281,None,2532.259808777281,None,2532.259808777281,None,2533.261234960281,None,2533.261234960281,None,2534.242494736018,None,2534.242494736018,None,h,,,,,,,,,,,,,,,,,,,,,,,,,,,,,,,,,,,,,,,,,,,,,,,53_54Exp,001,2021_May_19_1037,ComputerHuman,2020.1.3,60.02399101974633,
Human.xlsx,h,Sychronize.jpg,Number10.jpg,10,Human,,,,,1,0,10,4,0,3,3,9,,,,,,,,,,,,,,,,,,,,,,,,,,,,,2535.3087782429784,None,2535.3087782429784,None,2535.7414502799115,None,2535.7414502799115,None,v,10.495612386171615,2535.7414502799115,None,t,6.279775660067116,2535.7414502799115,None,10.495612386171615,6.279775660067116,9.35943840682221,False,False,False,2546.3070149213513,None,2546.3070149213513,None,2546.3070149213513,None,2546.3070149213513,None,2546.3070149213513,None,2546.3070149213513,None,2546.3070149213513,None,2546.3070149213513,None,2547.3081232124596,None,2547.3081232124596,None,2548.305754901822,None,2548.305754901822,None,h,,,,,,,,,,,,,,,,,,,,,,,,,,,,,,,,,,,,,,,,,,,,,,,53_54Exp,001,2021_May_19_1037,ComputerHuman,2020.1.3,60.02399101974633,
Human.xlsx,h,Sychronize.jpg,Number9.jpg,9,Human,,,,,1,0,10,4,0,4,4,6,,,,,,,,,,,,,,,,,,,,,,,,,,,,,2549.3559731597875,None,2549.3559731597875,None,2549.805696520062,None,2549.805696520062,None,v,9.866403927359897,2549.805696520062,None,t,6.465630465270351,2549.805696520062,None,9.866403927359897,6.465630465270351,8.73575887336024,False,False,False,2559.7547664537124,None,2559.7547664537124,None,2559.7547664537124,None,2559.7547664537124,None,2559.7547664537124,None,2559.7547664537124,None,2559.7547664537124,None,2559.7547664537124,None,2560.755129254651,None,2560.755129254651,None,2561.7524847533787,None,2561.7524847533787,None,h,,,,,,,,,,,,,,,,,,,,,,,,,,,,,,,,,,,,,,,,,,,,,,,53_54Exp,001,2021_May_19_1037,ComputerHuman,2020.1.3,60.02399101974633,
Human.xlsx,h,Sychronize.jpg,Number7.jpg,7,Human,,,,,1,0,10,4,0,5,5,2,,,,,,,,,,,,,,,,,,,,,,,,,,,,,2562.802640138679,None,2562.802640138679,None,2563.2523157028972,None,2563.2523157028972,None,v,7.139036482825759,2563.2523157028972,None,t,5.626718572970276,2563.2523157028972,None,7.139036482825759,5.626718572970276,6.655668084312856,False,False,False,2570.483698016175,None,2570.483698016175,None,2570.483698016175,None,2570.483698016175,None,2570.483698016175,None,2570.483698016175,None,2570.483698016175,None,2570.483698016175,None,2571.452507400369,None,2571.452507400369,None,2572.4498507094986,None,2572.4498507094986,None,h,,,,,,,,,,,,,,,,,,,,,,,,,,,,,,,,,,,,,,,,,,,,,,,53_54Exp,001,2021_May_19_1037,ComputerHuman,2020.1.3,60.02399101974633,
Human.xlsx,h,Sychronize.jpg,Number8.jpg,8,Human,,,,,1,0,10,4,0,6,6,5,,,,,,,,,,,,,,,,,,,,,,,,,,,,,2573.5172646413116,None,2573.5172646413116,None,2573.949734908315,None,2573.949734908315,None,v,9.364623925230262,2573.949734908315,None,t,6.768544869911693,2573.949734908315,None,9.364623925230262,6.768544869911693,8.540536263421261,False,False,False,2583.381075071245,None,2583.381075071245,None,2583.381075071245,None,2583.381075071245,None,2583.381075071245,None,2583.381075071245,None,2583.381075071245,None,2583.381075071245,None,2584.38281561757,None,2584.38281561757,None,2585.3634383264066,None,2585.3634383264066,None,h,,,,,,,,,,,,,,,,,,,,,,,,,,,,,,,,,,,,,,,,,,,,,,,53_54Exp,001,2021_May_19_1037,ComputerHuman,2020.1.3,60.02399101974633,
Human.xlsx,h,Sychronize.jpg,Number8.jpg,8,Human,,,,,1,0,10,4,0,7,7,4,,,,,,,,,,,,,,,,,,,,,,,,,,,,,2586.429984872067,None,2586.429984872067,None,2586.8635993574158,None,2586.8635993574158,None,v,8.1259483828253,2586.8635993574158,None,t,5.717541024414004,2586.8635993574158,None,8.1259483828253,5.717541024414004,7.566683255432489,False,False,False,2595.0778600967724,None,2595.0778600967724,None,2595.0778600967724,None,2595.0778600967724,None,2595.0778600967724,None,2595.0778600967724,None,2595.0778600967724,None,2595.0778600967724,None,2596.062260618744,None,2596.062260618744,None,2597.0606698761662,None,2597.0606698761662,None,h,,,,,,,,,,,,,,,,,,,,,,,,,,,,,,,,,,,,,,,,,,,,,,,53_54Exp,001,2021_May_19_1037,ComputerHuman,2020.1.3,60.02399101974633,
Human.xlsx,h,Sychronize.jpg,Number9.jpg,9,Human,,,,,1,0,10,4,0,8,8,7,,,,,,,,,,,,,,,,,,,,,,,,,,,,,2598.127163172529,None,2598.127163172529,None,2598.5607276163687,None,2598.5607276163687,None,v,8.380027086570408,2598.5607276163687,None,t,9.071468577139967,2598.5607276163687,None,8.380027086570408,9.071468577139967,8.54070873024108,False,False,False,2607.7081983388784,None,2607.7081983388784,None,2607.7081983388784,None,2607.7081983388784,None,2607.7081983388784,None,2607.7081983388784,None,2607.7081983388784,None,2607.7081983388784,None,2608.7097271711277,None,2608.7097271711277,None,2609.7074413006685,None,2609.7074413006685,None,h,,,,,,,,,,,,,,,,,,,,,,,,,,,,,,,,,,,,,,,,,,,,,,,53_54Exp,001,2021_May_19_1037,ComputerHuman,2020.1.3,60.02399101974633,
Human.xlsx,h,Sychronize.jpg,Number10.jpg,10,Human,,,,,1,0,10,4,0,9,9,8,,,,,,,,,,,,,,,,,,,,,,,,,,,,,2610.7578119286127,None,2610.7578119286127,None,2611.2077662496968,None,2611.2077662496968,None,v,11.071832019636986,2611.2077662496968,None,t,7.027598533655691,2611.2077662496968,None,11.071832019636986,7.027598533655691,9.58036212122038,False,False,False,2622.338729369105,None,2622.338729369105,None,2622.338729369105,None,2622.338729369105,None,2622.338729369105,None,2622.338729369105,None,2622.338729369105,None,2622.338729369105,None,2623.3397141603355,None,2623.3397141603355,None,2624.337385305503,None,2624.337385305503,None,h,,,,,,,,,,,,,,,,,,,,,,,,,,,,,,,,,,,,,,,,,,,,,,,53_54Exp,001,2021_May_19_1037,ComputerHuman,2020.1.3,60.02399101974633,
Human.xlsx,h,,,,,,,,,1,0,10,4,,,,,,,,,,,,,,,,,,,,,,,,,,,,,,,,,,,,,,,,,,,,,,,,,,,,,,,,,,,,,,,,,,,,,,,,,,,,,,,h,2625.355431685,None,2625.355431685,None,q,0,3.7516314814979523,2625.355431685,None,o,1,6.410601486104497,2625.355431685,None,h,h,2631.8524006451503,None,2631.8524006451503,None,2633.851752992546,None,None,None,None,None,None,None,None,,,,,,,,,,,,,,,,,,53_54Exp,001,2021_May_19_1037,ComputerHuman,2020.1.3,60.02399101974633,
Computer.xlsx,c,Sychronize.jpg,Number8.jpg,8,Computer,,,,,1,1,11,3,0,0,0,5,,,,,,,,,,,,,,,,,,,,,,,,,2638.8360364302184,None,2638.8360364302184,None,2641.9331573754125,None,2641.9331573754125,None,2642.366680117995,None,2642.366680117995,None,v,8.17488063817018,2642.366680117995,None,t,6.402659321257488,2642.366680117995,None,8.17488063817018,6.402659321257488,7.801425278371487,False,False,False,2650.631236102254,None,2650.631236102254,None,2650.631236102254,None,2650.631236102254,None,2650.631236102254,None,2650.631236102254,None,2650.631236102254,None,2650.631236102254,None,2651.647373847281,None,2651.647373847281,None,2652.6139490064193,None,2652.6139490064193,None,c,,,,,,,,,,,,,,,,,,,,,,,,,,,,,,,,,,,,,,,,,,,,,,,53_54Exp,001,2021_May_19_1037,ComputerHuman,2020.1.3,60.02399101974633,
Computer.xlsx,c,Sychronize.jpg,Number7.jpg,7,Computer,,,,,1,1,11,3,0,1,1,3,,,,,,,,,,,,,,,,,,,,,,,,,,,,,2653.680690906431,None,2653.680690906431,None,2654.1138197325217,None,2654.1138197325217,None,v,7.2389847732670205,2654.1138197325217,None,t,5.674680792914387,2654.1138197325217,None,7.2389847732670205,5.674680792914387,7.394149065596321,False,True,False,2661.429430886902,None,2661.429430886902,None,2661.429430886902,None,2661.429430886902,None,2661.429430886902,None,2661.429430886902,None,2661.429430886902,None,2661.429430886902,None,2662.444917771536,None,2662.444917771536,None,2663.4279764753583,None,2663.4279764753583,None,c,,,,,,,,,,,,,,,,,,,,,,,,,,,,,,,,,,,,,,,,,,,,,,,53_54Exp,001,2021_May_19_1037,ComputerHuman,2020.1.3,60.02399101974633,
Computer.xlsx,c,Sychronize.jpg,Number9.jpg,9,Computer,,,,,1,1,11,3,0,2,2,7,,,,,,,,,,,,,,,,,,,,,,,,,,,,,2664.47855817582,None,2664.47855817582,None,2664.928024271415,None,2664.928024271415,None,None,,2664.928024271415,None,t,7.5955407883207045,2664.928024271415,None,13,7.5955407883207045,8.418556716724332,False,False,False,2677.991646917379,None,2677.991646917379,None,2677.991646917379,None,2677.991646917379,None,2677.991646917379,None,2677.991646917379,None,2677.991646917379,None,2677.991646917379,None,2679.007411917321,None,2679.007411917321,None,2679.9906454456454,None,2679.9906454456454,None,c,,,,,,,,,,,,,,,,,,,,,,,,,,,,,,,,,,,,,,,,,,,,,,,53_54Exp,001,2021_May_19_1037,ComputerHuman,2020.1.3,60.02399101974633,
Computer.xlsx,c,Sychronize.jpg,Number9.jpg,9,Computer,,,,,1,1,11,3,0,3,3,6,,,,,,,,,,,,,,,,,,,,,,,,,,,,,2681.040956408713,None,2681.040956408713,None,2681.490774077985,None,2681.490774077985,None,v,9.267798096626393,2681.490774077985,None,t,8.33553184500488,2681.490774077985,None,9.267798096626393,8.33553184500488,8.693060511349913,False,False,False,2690.822971747077,None,2690.822971747077,None,2690.822971747077,None,2690.822971747077,None,2690.822971747077,None,2690.822971747077,None,2690.822971747077,None,2690.822971747077,None,2691.8543092796203,None,2691.8543092796203,None,2692.837626852017,None,2692.837626852017,None,c,,,,,,,,,,,,,,,,,,,,,,,,,,,,,,,,,,,,,,,,,,,,,,,53_54Exp,001,2021_May_19_1037,ComputerHuman,2020.1.3,60.02399101974633,
Computer.xlsx,c,Sychronize.jpg,Number6.jpg,6,Computer,,,,,1,1,11,3,0,4,4,1,,,,,,,,,,,,,,,,,,,,,,,,,,,,,2693.871399417209,None,2693.871399417209,None,2694.3375158625167,None,2694.3375158625167,None,v,8.876238366953203,2694.3375158625167,None,t,6.388049446143214,2694.3375158625167,None,8.876238366953203,6.388049446143214,5.552860303491479,False,False,False,2703.285674463305,None,2703.285674463305,None,2703.285674463305,None,2703.285674463305,None,2703.285674463305,None,2703.285674463305,None,2703.285674463305,None,2703.285674463305,None,2704.284789113534,None,2704.284789113534,None,2705.268010131481,None,2705.268010131481,None,c,,,,,,,,,,,,,,,,,,,,,,,,,,,,,,,,,,,,,,,,,,,,,,,53_54Exp,001,2021_May_19_1037,ComputerHuman,2020.1.3,60.02399101974633,
Computer.xlsx,c,Sychronize.jpg,Number10.jpg,10,Computer,,,,,1,1,11,3,0,5,5,9,,,,,,,,,,,,,,,,,,,,,,,,,,,,,2706.334801110665,None,2706.334801110665,None,2706.767982544495,None,2706.767982544495,None,v,10.888835354454386,2706.767982544495,None,t,6.796572926517456,2706.767982544495,None,10.888835354454386,6.796572926517456,9.296329638111224,False,False,False,2717.7333971255644,None,2717.7333971255644,None,2717.7333971255644,None,2717.7333971255644,None,2717.7333971255644,None,2717.7333971255644,None,2717.7333971255644,None,2717.7333971255644,None,2718.7312183952586,None,2718.7312183952586,None,2719.7144580183817,None,2719.7144580183817,None,c,,,,,,,,,,,,,,,,,,,,,,,,,,,,,,,,,,,,,,,,,,,,,,,53_54Exp,001,2021_May_19_1037,ComputerHuman,2020.1.3,60.02399101974633,
Computer.xlsx,c,Sychronize.jpg,Number8.jpg,8,Computer,,,,,1,1,11,3,0,6,6,4,,,,,,,,,,,,,,,,,,,,,,,,,,,,,2720.7813619117396,None,2720.7813619117396,None,2721.2145481572534,None,2721.2145481572534,None,v,8.613355565449638,2721.2145481572534,None,t,6.012622329034457,2721.2145481572534,None,8.613355565449638,6.012622329034457,8.440193830832419,False,True,False,2729.896518650727,None,2729.896518650727,None,2729.896518650727,None,2729.896518650727,None,2729.896518650727,None,2729.896518650727,None,2729.896518650727,None,2729.896518650727,None,2730.9115320657006,None,2730.9115320657006,None,2731.894902887395,None,2731.894902887395,None,c,,,,,,,,,,,,,,,,,,,,,,,,,,,,,,,,,,,,,,,,,,,,,,,53_54Exp,001,2021_May_19_1037,ComputerHuman,2020.1.3,60.02399101974633,
Computer.xlsx,c,Sychronize.jpg,Number7.jpg,7,Computer,,,,,1,1,11,3,0,7,7,2,,,,,,,,,,,,,,,,,,,,,,,,,,,,,2732.9287598174383,None,2732.9287598174383,None,2733.395135452099,None,2733.395135452099,None,v,6.847913910641182,2733.395135452099,None,t,10.583373323769592,2733.395135452099,None,6.847913910641182,10.583373323769592,6.645811857411368,False,True,False,2744.0752479941693,None,2744.0752479941693,None,2744.0752479941693,None,2744.0752479941693,None,2744.0752479941693,None,2744.0752479941693,None,2744.0752479941693,None,2744.0752479941693,None,2745.075019599591,None,2745.075019599591,None,2746.058148233214,None,2746.058148233214,None,c,,,,,,,,,,,,,,,,,,,,,,,,,,,,,,,,,,,,,,,,,,,,,,,53_54Exp,001,2021_May_19_1037,ComputerHuman,2020.1.3,60.02399101974633,
Computer.xlsx,c,Sychronize.jpg,Number6.jpg,6,Computer,,,,,1,1,11,3,0,8,8,0,,,,,,,,,,,,,,,,,,,,,,,,,,,,,2747.108504426107,None,2747.108504426107,None,2747.5581623474854,None,2747.5581623474854,None,None,,2747.5581623474854,None,t,6.183687302159797,2747.5581623474854,None,13,6.183687302159797,6.340579907774751,False,False,True,2760.638037256545,None,2760.638037256545,None,2760.638037256545,None,2760.638037256545,None,2760.638037256545,None,2760.638037256545,None,2760.638037256545,None,2760.638037256545,None,2761.637517273944,None,2761.637517273944,None,2762.620855696969,None,2762.620855696969,None,c,,,,,,,,,,,,,,,,,,,,,,,,,,,,,,,,,,,,,,,,,,,,,,,53_54Exp,001,2021_May_19_1037,ComputerHuman,2020.1.3,60.02399101974633,
Computer.xlsx,c,Sychronize.jpg,Number10.jpg,10,Computer,,,,,1,1,11,3,0,9,9,8,,,,,,,,,,,,,,,,,,,,,,,,,,,,,2763.654308766374,None,2763.654308766374,None,2764.120958666997,None,2764.120958666997,None,v,10.063686801744552,2764.120958666997,None,t,9.991399596844985,2764.120958666997,None,10.063686801744552,9.991399596844985,10.339878467616586,False,True,False,2774.2680075652497,None,2774.2680075652497,None,2774.2680075652497,None,2774.2680075652497,None,2774.2680075652497,None,2774.2680075652497,None,2774.2680075652497,None,2774.2680075652497,None,2775.2677769252186,None,2775.2677769252186,None,2776.2508956146958,None,2776.2508956146958,None,c,,,,,,,,,,,,,,,,,,,,,,,,,,,,,,,,,,,,,,,,,,,,,,,53_54Exp,001,2021_May_19_1037,ComputerHuman,2020.1.3,60.02399101974633,
Computer.xlsx,c,,,,,,,,,1,1,11,3,,,,,,,,,,,,,,,,,,,,,,,,,,,,,,,,,,,,,,,,,,,,,,,,,,,,,,,,,,,,,,,,,,,,,,,,,,,,,,,c,2777.2509726016324,None,2777.2509726016324,None,q,0,4.289182180603802,2777.2509726016324,None,o,0,10.564313603719711,2777.2509726016324,None,h,h,2787.881222308761,None,2787.881222308761,None,2789.8809345700856,None,None,None,None,None,None,None,None,,,,,,,,,,,,,,,,,,53_54Exp,001,2021_May_19_1037,ComputerHuman,2020.1.3,60.02399101974633,
