Condition,CorrectTuringReply,Sychronize,NumberImage,Number,Partner,trials.thisRepN,trials.thisTrialN,trials.thisN,trials.thisIndex,Block.thisRepN,Block.thisTrialN,Block.thisN,Block.thisIndex,trials_loop.thisRepN,trials_loop.thisTrialN,trials_loop.thisN,trials_loop.thisIndex,key_resp_Istr.keys,key_resp_Istr.rt,key_resp_Istr.started,key_resp_Istr.stopped,key_respPrLeft.keys,key_respPrLeft.rt,key_respPrRight.keys,RTPrLeft,RTPrRight,CompPr,SychronizedRTsPr,SychronizedRTsLeftCPr,SychronizedRTsRightCPr,CreditLeftPr.started,CreditLeftPr.stopped,CreditRightPr.started,CreditRightPr.stopped,key_respPrRight.rt,text_StartExp.started,text_StartExp.stopped,key_startExp.keys,key_startExp.rt,key_startExp.started,key_startExp.stopped,SychroLeft.started,SychroLeft.stopped,SychroRight.started,SychroRight.stopped,NumberLeft.started,NumberLeft.stopped,NumberRight.started,NumberRight.stopped,CrossLeft.started,CrossLeft.stopped,CrossRight.started,CrossRight.stopped,key_respLeft.keys,key_respLeft.rt,key_respLeft.started,key_respLeft.stopped,key_respRight.keys,key_respRight.rt,key_respRight.started,key_respRight.stopped,RTLeft,RTRight,Comp,SychronizedRTs,SychronizedRTsLeftC,SychronizedRTsRightC,FeedbackLeftLeft.started,FeedbackLeftLeft.stopped,FeedbackLeftRight.started,FeedbackLeftRight.stopped,FeedbackRightLeft.started,FeedbackRightLeft.stopped,FeedbackRightRight.started,FeedbackRightRight.stopped,textLeftLeft.started,textLeftLeft.stopped,textLeftRight.started,textLeftRight.stopped,textRightLeft.started,textRightLeft.stopped,textRightRight.started,textRightRight.stopped,CreditLeft.started,CreditLeft.stopped,CreditRight.started,CreditRight.stopped,BlankLeft.started,BlankLeft.stopped,BlankRight.started,BlankRight.stopped,CorrectTuringReply,TuringtextLeft.started,TuringtextLeft.stopped,TuringtextRight.started,TuringtextRight.stopped,keyTuringLeft.keys,keyTuringLeft.corr,keyTuringLeft.rt,keyTuringLeft.started,keyTuringLeft.stopped,keyTuringRight.keys,keyTuringRight.corr,keyTuringRight.rt,keyTuringRight.started,keyTuringRight.stopped,RespTuringLeft,RespTuringRight,ScoreLeft.started,ScoreLeft.stopped,ScoreRight.started,ScoreRight.stopped,BlockText.started,BlockText.stopped,text_Pause.started,text_Pause.stopped,text_LongPause.started,text_LongPause.stopped,key_respPause.keys,key_respPause.started,key_respPause.stopped,key_respPause.rt,QuestImageLeft.started,QuestImageLeft.stopped,QuestImageRight.started,QuestImageRight.stopped,respQuestLeft.keys,respQuestLeft.rt,respQuestLeft.started,respQuestLeft.stopped,respQuestRight.keys,respQuestRight.rt,respQuestRight.started,respQuestRight.stopped,RespInclusionLeft,RespInclusionRight,EndText.started,EndText.stopped,participant,session,date,expName,psychopyVersion,frameRate,
,,,,,,,,,,,,,,,,,,"['t', 'v']","[353.66905794237573, 355.0928234782359]",18.90631423820014,None,,,,,,,,,,,,,,,,,,,,,,,,,,,,,,,,,,,,,,,,,,,,,,,,,,,,,,,,,,,,,,,,,,,,,,,,,,,,,,,,,,,,,,,,,,,,,,,,,,,,,,,,,,,,,,,,,,,,,,55_56Exp,001,2021_May_19_1853,ComputerHuman,2020.1.3,59.990262395744224,
,,,,,,,,,,,,,,,,,,,,,,v,6.709862111619259,t,6.709862111619259,5.68508814026427,7,False,True,False,450.28412660427057,None,450.28412660427057,None,5.68508814026427,451.2839533776623,None,"['space', 'space']","[108.76912293443274, 110.0772228181786]",452.2670191935076,None,,,,,,,,,,,,,,,,,,,,,,,,,,,,,,,,,,,,,,,,,,,,,,,,,,,,,,,,,,,,,,,,,,,,,,,,,,,,,,,,,,,,,,,,,,,,,,,,,,55_56Exp,001,2021_May_19_1853,ComputerHuman,2020.1.3,59.990262395744224,
Human.xlsx,h,Sychronize.jpg,Number10.jpg,10,Human,,,,,0,0,0,0,0,0,0,9,,,,,,,,,,,,,,,,,,,,,,,,,562.4310769819049,None,562.4310769819049,None,565.4775600968014,None,565.4775600968014,None,565.91071355248,None,565.91071355248,None,v,10.180975933049922,565.91071355248,None,t,7.583991487516869,565.91071355248,None,10.180975933049922,7.583991487516869,9.50635803893469,False,False,False,576.1595798805629,None,576.1595798805629,None,576.1595798805629,None,576.1595798805629,None,576.1595798805629,None,576.1595798805629,None,576.1595798805629,None,576.1595798805629,None,577.1606978337686,None,577.1606978337686,None,578.1744334206733,None,578.1744334206733,None,h,,,,,,,,,,,,,,,,,,,,,,,,,,,,,,,,,,,,,,,,,,,,,,,55_56Exp,001,2021_May_19_1853,ComputerHuman,2020.1.3,59.990262395744224,
Human.xlsx,h,Sychronize.jpg,Number9.jpg,9,Human,,,,,0,0,0,0,0,1,1,7,,,,,,,,,,,,,,,,,,,,,,,,,,,,,579.2246951211682,None,579.2246951211682,None,579.6745081647468,None,579.6745081647468,None,v,8.71658330403443,579.6745081647468,None,t,8.18000843036134,579.6745081647468,None,8.71658330403443,8.18000843036134,8.975987880692635,False,False,False,588.489024169603,None,588.489024169603,None,588.489024169603,None,588.489024169603,None,588.489024169603,None,588.489024169603,None,588.489024169603,None,588.489024169603,None,589.4584025170461,None,589.4584025170461,None,590.4552289414187,None,590.4552289414187,None,h,,,,,,,,,,,,,,,,,,,,,,,,,,,,,,,,,,,,,,,,,,,,,,,55_56Exp,001,2021_May_19_1853,ComputerHuman,2020.1.3,59.990262395744224,
Human.xlsx,h,Sychronize.jpg,Number10.jpg,10,Human,,,,,0,0,0,0,0,2,2,8,,,,,,,,,,,,,,,,,,,,,,,,,,,,,591.5050194013802,None,591.5050194013802,None,591.9553726553459,None,591.9553726553459,None,v,10.079166484885718,591.9553726553459,None,t,8.858953121030027,591.9553726553459,None,10.079166484885718,8.858953121030027,10.689501249652254,False,False,False,602.1194731088144,None,602.1194731088144,None,602.1194731088144,None,602.1194731088144,None,602.1194731088144,None,602.1194731088144,None,602.1194731088144,None,602.1194731088144,None,603.1048415553951,None,603.1048415553951,None,604.0857731552642,None,604.0857731552642,None,h,,,,,,,,,,,,,,,,,,,,,,,,,,,,,,,,,,,,,,,,,,,,,,,55_56Exp,001,2021_May_19_1853,ComputerHuman,2020.1.3,59.990262395744224,
Human.xlsx,h,Sychronize.jpg,Number6.jpg,6,Human,,,,,0,0,0,0,0,3,3,0,,,,,,,,,,,,,,,,,,,,,,,,,,,,,605.1521661025035,None,605.1521661025035,None,605.586109663991,None,605.586109663991,None,v,5.612110657158155,605.586109663991,None,t,4.887118805223508,605.586109663991,None,5.612110657158155,4.887118805223508,6.421898606896571,False,False,False,611.28431105853,None,611.28431105853,None,611.28431105853,None,611.28431105853,None,611.28431105853,None,611.28431105853,None,611.28431105853,None,611.28431105853,None,612.269604761037,None,612.269604761037,None,613.2672004398673,None,613.2672004398673,None,h,,,,,,,,,,,,,,,,,,,,,,,,,,,,,,,,,,,,,,,,,,,,,,,55_56Exp,001,2021_May_19_1853,ComputerHuman,2020.1.3,59.990262395744224,
Human.xlsx,h,Sychronize.jpg,Number6.jpg,6,Human,,,,,0,0,0,0,0,4,4,1,,,,,,,,,,,,,,,,,,,,,,,,,,,,,614.3172648545024,None,614.3172648545024,None,614.7672687681406,None,614.7672687681406,None,v,5.23065347492593,614.7672687681406,None,t,5.398275881980226,614.7672687681406,None,5.23065347492593,5.398275881980226,5.550197933452106,True,False,False,620.2491845517789,None,620.2491845517789,None,620.2491845517789,None,620.2491845517789,None,620.2491845517789,None,620.2491845517789,None,620.2491845517789,None,620.2491845517789,None,621.2178667848884,None,621.2178667848884,None,622.2153524327432,None,622.2153524327432,None,h,,,,,,,,,,,,,,,,,,,,,,,,,,,,,,,,,,,,,,,,,,,,,,,55_56Exp,001,2021_May_19_1853,ComputerHuman,2020.1.3,59.990262395744224,
Human.xlsx,h,Sychronize.jpg,Number7.jpg,7,Human,,,,,0,0,0,0,0,5,5,2,,,,,,,,,,,,,,,,,,,,,,,,,,,,,623.282862691608,None,623.282862691608,None,623.7155221306612,None,623.7155221306612,None,v,6.581989757815791,623.7155221306612,None,t,5.805100497096646,623.7155221306612,None,6.581989757815791,5.805100497096646,7.477416658764084,False,False,False,630.3650006544112,None,630.3650006544112,None,630.3650006544112,None,630.3650006544112,None,630.3650006544112,None,630.3650006544112,None,630.3650006544112,None,630.3650006544112,None,631.3667922666509,None,631.3667922666509,None,632.3632940515263,None,632.3632940515263,None,h,,,,,,,,,,,,,,,,,,,,,,,,,,,,,,,,,,,,,,,,,,,,,,,55_56Exp,001,2021_May_19_1853,ComputerHuman,2020.1.3,59.990262395744224,
Human.xlsx,h,Sychronize.jpg,Number8.jpg,8,Human,,,,,0,0,0,0,0,6,6,4,,,,,,,,,,,,,,,,,,,,,,,,,,,,,633.4303981902303,None,633.4303981902303,None,633.8632911644163,None,633.8632911644163,None,v,8.161781783232982,633.8632911644163,None,t,7.541043478596293,633.8632911644163,None,8.161781783232982,7.541043478596293,8.571921042152317,False,False,False,642.1112201440728,None,642.1112201440728,None,642.1112201440728,None,642.1112201440728,None,642.1112201440728,None,642.1112201440728,None,642.1112201440728,None,642.1112201440728,None,643.0801891634565,None,643.0801891634565,None,644.0775259647435,None,644.0775259647435,None,h,,,,,,,,,,,,,,,,,,,,,,,,,,,,,,,,,,,,,,,,,,,,,,,55_56Exp,001,2021_May_19_1853,ComputerHuman,2020.1.3,59.990262395744224,
Human.xlsx,h,Sychronize.jpg,Number8.jpg,8,Human,,,,,0,0,0,0,0,7,7,5,,,,,,,,,,,,,,,,,,,,,,,,,,,,,645.1444530273593,None,645.1444530273593,None,645.5944386559668,None,645.5944386559668,None,v,7.6422254614890335,645.5944386559668,None,t,7.4940339472823325,645.5944386559668,None,7.6422254614890335,7.4940339472823325,8.357691121247445,True,False,False,653.3254690591612,None,653.3254690591612,None,653.3254690591612,None,653.3254690591612,None,653.3254690591612,None,653.3254690591612,None,653.3254690591612,None,653.3254690591612,None,654.3106575425427,None,654.3106575425427,None,655.2918788157967,None,655.2918788157967,None,h,,,,,,,,,,,,,,,,,,,,,,,,,,,,,,,,,,,,,,,,,,,,,,,55_56Exp,001,2021_May_19_1853,ComputerHuman,2020.1.3,59.990262395744224,
Human.xlsx,h,Sychronize.jpg,Number7.jpg,7,Human,,,,,0,0,0,0,0,8,8,3,,,,,,,,,,,,,,,,,,,,,,,,,,,,,656.3583102578377,None,656.3583102578377,None,656.792011943654,None,656.792011943654,None,v,6.184279749424604,656.792011943654,None,t,7.456078072591481,656.792011943654,None,6.184279749424604,7.456078072591481,7.417687034232818,False,False,False,664.3399889776547,None,664.3399889776547,None,664.3399889776547,None,664.3399889776547,None,664.3399889776547,None,664.3399889776547,None,664.3399889776547,None,664.3399889776547,None,665.3255701080161,None,665.3255701080161,None,666.3229611228162,None,666.3229611228162,None,h,,,,,,,,,,,,,,,,,,,,,,,,,,,,,,,,,,,,,,,,,,,,,,,55_56Exp,001,2021_May_19_1853,ComputerHuman,2020.1.3,59.990262395744224,
Human.xlsx,h,Sychronize.jpg,Number9.jpg,9,Human,,,,,0,0,0,0,0,9,9,6,,,,,,,,,,,,,,,,,,,,,,,,,,,,,667.3728314594919,None,667.3728314594919,None,667.8229640099262,None,667.8229640099262,None,v,8.305285913726038,667.8229640099262,None,t,9.011941408345592,667.8229640099262,None,8.305285913726038,9.011941408345592,9.395105610744121,False,False,False,676.9040481775273,None,676.9040481775273,None,676.9040481775273,None,676.9040481775273,None,676.9040481775273,None,676.9040481775273,None,676.9040481775273,None,676.9040481775273,None,677.906130425521,None,677.906130425521,None,678.9036731739989,None,678.9036731739989,None,h,,,,,,,,,,,,,,,,,,,,,,,,,,,,,,,,,,,,,,,,,,,,,,,55_56Exp,001,2021_May_19_1853,ComputerHuman,2020.1.3,59.990262395744224,
Human.xlsx,h,,,,,,,,,0,0,0,0,,,,,,,,,,,,,,,,,,,,,,,,,,,,,,,,,,,,,,,,,,,,,,,,,,,,,,,,,,,,,,,,,,,,,,,,,,,,,,,h,679.9045454020525,None,679.9045454020525,None,q,0,7.850760464812083,679.9045454020525,None,o,1,21.99348122608535,679.9045454020525,None,h,h,701.9989455632167,None,701.9989455632167,None,703.9818349445541,None,None,None,None,None,None,None,None,,,,,,,,,,,,,,,,,,55_56Exp,001,2021_May_19_1853,ComputerHuman,2020.1.3,59.990262395744224,
Computer.xlsx,c,Sychronize.jpg,Number10.jpg,10,Computer,,,,,0,1,1,9,0,0,0,9,,,,,,,,,,,,,,,,,,,,,,,,,708.9672977033997,None,708.9672977033997,None,712.0640258377107,None,712.0640258377107,None,712.497239601912,None,712.497239601912,None,v,9.184855567503291,712.497239601912,None,t,10.779904045290095,712.497239601912,None,9.184855567503291,10.779904045290095,9.465903162919567,False,True,False,723.3611591939698,None,723.3611591939698,None,723.3611591939698,None,723.3611591939698,None,723.3611591939698,None,723.3611591939698,None,723.3611591939698,None,723.3611591939698,None,724.3609824386713,None,724.3609824386713,None,725.3440912403794,None,725.3440912403794,None,c,,,,,,,,,,,,,,,,,,,,,,,,,,,,,,,,,,,,,,,,,,,,,,,55_56Exp,001,2021_May_19_1853,ComputerHuman,2020.1.3,59.990262395744224,
Computer.xlsx,c,Sychronize.jpg,Number7.jpg,7,Computer,,,,,0,1,1,9,0,1,1,2,,,,,,,,,,,,,,,,,,,,,,,,,,,,,726.4106336757659,None,726.4106336757659,None,726.8442022337249,None,726.8442022337249,None,v,6.68947366057273,726.8442022337249,None,t,5.221074043468434,726.8442022337249,None,6.68947366057273,5.221074043468434,6.851390428228307,False,True,False,733.6257467991572,None,733.6257467991572,None,733.6257467991572,None,733.6257467991572,None,733.6257467991572,None,733.6257467991572,None,733.6257467991572,None,733.6257467991572,None,734.6254420486421,None,734.6254420486421,None,735.6086384260243,None,735.6086384260243,None,c,,,,,,,,,,,,,,,,,,,,,,,,,,,,,,,,,,,,,,,,,,,,,,,55_56Exp,001,2021_May_19_1853,ComputerHuman,2020.1.3,59.990262395744224,
Computer.xlsx,c,Sychronize.jpg,Number9.jpg,9,Computer,,,,,0,1,1,9,0,2,2,7,,,,,,,,,,,,,,,,,,,,,,,,,,,,,736.6587410146713,None,736.6587410146713,None,737.0922572838581,None,737.0922572838581,None,v,8.376967405168216,737.0922572838581,None,t,6.6801364255779845,737.0922572838581,None,8.376967405168216,6.6801364255779845,8.372991793339523,False,True,False,745.5416064650735,None,745.5416064650735,None,745.5416064650735,None,745.5416064650735,None,745.5416064650735,None,745.5416064650735,None,745.5416064650735,None,745.5416064650735,None,746.5565097276358,None,746.5565097276358,None,747.5395206883895,None,747.5395206883895,None,c,,,,,,,,,,,,,,,,,,,,,,,,,,,,,,,,,,,,,,,,,,,,,,,55_56Exp,001,2021_May_19_1853,ComputerHuman,2020.1.3,59.990262395744224,
Computer.xlsx,c,Sychronize.jpg,Number7.jpg,7,Computer,,,,,0,1,1,9,0,3,3,3,,,,,,,,,,,,,,,,,,,,,,,,,,,,,748.5897204764115,None,748.5897204764115,None,749.039794643063,None,749.039794643063,None,v,6.089426311967145,749.039794643063,None,t,7.564008194260168,749.039794643063,None,6.089426311967145,7.564008194260168,6.754730481072465,False,False,False,756.6722873354665,None,756.6722873354665,None,756.6722873354665,None,756.6722873354665,None,756.6722873354665,None,756.6722873354665,None,756.6722873354665,None,756.6722873354665,None,757.6706898011871,None,757.6706898011871,None,758.6538733469688,None,758.6538733469688,None,c,,,,,,,,,,,,,,,,,,,,,,,,,,,,,,,,,,,,,,,,,,,,,,,55_56Exp,001,2021_May_19_1853,ComputerHuman,2020.1.3,59.990262395744224,
Computer.xlsx,c,Sychronize.jpg,Number10.jpg,10,Computer,,,,,0,1,1,9,0,4,4,8,,,,,,,,,,,,,,,,,,,,,,,,,,,,,759.7206464303763,None,759.7206464303763,None,760.1542140259653,None,760.1542140259653,None,v,9.690065197362856,760.1542140259653,None,t,7.67693173331827,760.1542140259653,None,9.690065197362856,7.67693173331827,10.193624001516033,False,False,False,769.934950200558,None,769.934950200558,None,769.934950200558,None,769.934950200558,None,769.934950200558,None,769.934950200558,None,769.934950200558,None,769.934950200558,None,770.9180602854258,None,770.9180602854258,None,771.9011357249719,None,771.9011357249719,None,c,,,,,,,,,,,,,,,,,,,,,,,,,,,,,,,,,,,,,,,,,,,,,,,55_56Exp,001,2021_May_19_1853,ComputerHuman,2020.1.3,59.990262395744224,
Computer.xlsx,c,Sychronize.jpg,Number8.jpg,8,Computer,,,,,0,1,1,9,0,5,5,5,,,,,,,,,,,,,,,,,,,,,,,,,,,,,772.9681375316613,None,772.9681375316613,None,773.4013776006441,None,773.4013776006441,None,v,7.526525484841841,773.4013776006441,None,t,6.538480045577671,773.4013776006441,None,7.526525484841841,6.538480045577671,7.681569786876215,False,True,False,781.015985928866,None,781.015985928866,None,781.015985928866,None,781.015985928866,None,781.015985928866,None,781.015985928866,None,781.015985928866,None,781.015985928866,None,782.0157536768947,None,782.0157536768947,None,782.9989195792259,None,782.9989195792259,None,c,,,,,,,,,,,,,,,,,,,,,,,,,,,,,,,,,,,,,,,,,,,,,,,55_56Exp,001,2021_May_19_1853,ComputerHuman,2020.1.3,59.990262395744224,
Computer.xlsx,c,Sychronize.jpg,Number6.jpg,6,Computer,,,,,0,1,1,9,0,6,6,0,,,,,,,,,,,,,,,,,,,,,,,,,,,,,784.0487507795197,None,784.0487507795197,None,784.4990055509497,None,784.4990055509497,None,v,5.724539538010504,784.4990055509497,None,t,5.483895058036978,784.4990055509497,None,5.724539538010504,5.483895058036978,5.617878241285812,False,True,True,790.3141098846945,None,790.3141098846945,None,790.3141098846945,None,790.3141098846945,None,790.3141098846945,None,790.3141098846945,None,790.3141098846945,None,790.3141098846945,None,791.2971660768408,None,791.2971660768408,None,792.2803294128516,None,792.2803294128516,None,c,,,,,,,,,,,,,,,,,,,,,,,,,,,,,,,,,,,,,,,,,,,,,,,55_56Exp,001,2021_May_19_1853,ComputerHuman,2020.1.3,59.990262395744224,
Computer.xlsx,c,Sychronize.jpg,Number8.jpg,8,Computer,,,,,0,1,1,9,0,7,7,4,,,,,,,,,,,,,,,,,,,,,,,,,,,,,793.3301509894445,None,793.3301509894445,None,793.7803201099405,None,793.7803201099405,None,v,7.798729286588241,793.7803201099405,None,t,6.5860458267789,793.7803201099405,None,7.798729286588241,6.5860458267789,8.118365119171239,False,False,False,801.6784301434827,None,801.6784301434827,None,801.6784301434827,None,801.6784301434827,None,801.6784301434827,None,801.6784301434827,None,801.6784301434827,None,801.6784301434827,None,802.6781937212409,None,802.6781937212409,None,803.6446294618681,None,803.6446294618681,None,c,,,,,,,,,,,,,,,,,,,,,,,,,,,,,,,,,,,,,,,,,,,,,,,55_56Exp,001,2021_May_19_1853,ComputerHuman,2020.1.3,59.990262395744224,
Computer.xlsx,c,Sychronize.jpg,Number9.jpg,9,Computer,,,,,0,1,1,9,0,8,8,6,,,,,,,,,,,,,,,,,,,,,,,,,,,,,804.7115712808245,None,804.7115712808245,None,805.144701960412,None,805.144701960412,None,v,8.338445656888325,805.144701960412,None,t,6.848939339891331,805.144701960412,None,8.338445656888325,6.848939339891331,9.569662901942701,False,False,False,813.5758790288019,None,813.5758790288019,None,813.5758790288019,None,813.5758790288019,None,813.5758790288019,None,813.5758790288019,None,813.5758790288019,None,813.5758790288019,None,814.5756904042719,None,814.5756904042719,None,815.5588444373725,None,815.5588444373725,None,c,,,,,,,,,,,,,,,,,,,,,,,,,,,,,,,,,,,,,,,,,,,,,,,55_56Exp,001,2021_May_19_1853,ComputerHuman,2020.1.3,59.990262395744224,
Computer.xlsx,c,Sychronize.jpg,Number6.jpg,6,Computer,,,,,0,1,1,9,0,9,9,1,,,,,,,,,,,,,,,,,,,,,,,,,,,,,816.6094131339132,None,816.6094131339132,None,817.0591835124196,None,817.0591835124196,None,v,5.267113184982918,817.0591835124196,None,t,5.650077759499254,817.0591835124196,None,5.267113184982918,5.650077759499254,6.283519919366373,False,False,False,822.8073530845886,None,822.8073530845886,None,822.8073530845886,None,822.8073530845886,None,822.8073530845886,None,822.8073530845886,None,822.8073530845886,None,822.8073530845886,None,823.7900182337044,None,823.7900182337044,None,824.7736682081695,None,824.7736682081695,None,c,,,,,,,,,,,,,,,,,,,,,,,,,,,,,,,,,,,,,,,,,,,,,,,55_56Exp,001,2021_May_19_1853,ComputerHuman,2020.1.3,59.990262395744224,
Computer.xlsx,c,,,,,,,,,0,1,1,9,,,,,,,,,,,,,,,,,,,,,,,,,,,,,,,,,,,,,,,,,,,,,,,,,,,,,,,,,,,,,,,,,,,,,,,,,,,,,,,c,825.7741073697016,None,825.7741073697016,None,a,0,2.9199770057712158,825.7741073697016,None,o,0,8.947181923867902,825.7741073697016,None,c,h,834.8050090719416,None,834.8050090719416,None,836.8045025445062,None,None,None,None,None,None,None,None,,,,,,,,,,,,,,,,,,55_56Exp,001,2021_May_19_1853,ComputerHuman,2020.1.3,59.990262395744224,
Human.xlsx,h,Sychronize.jpg,Number9.jpg,9,Human,,,,,0,2,2,4,0,0,0,7,,,,,,,,,,,,,,,,,,,,,,,,,841.7890738278975,None,841.7890738278975,None,844.8867248750839,None,844.8867248750839,None,845.3198029451087,None,845.3198029451087,None,v,7.637398534117892,845.3198029451087,None,t,8.132900737304226,845.3198029451087,None,7.637398534117892,8.132900737304226,8.838074030430315,False,False,False,853.5508901281364,None,853.5508901281364,None,853.5508901281364,None,853.5508901281364,None,853.5508901281364,None,853.5508901281364,None,853.5508901281364,None,853.5508901281364,None,854.5532691068947,None,854.5532691068947,None,855.5339588310926,None,855.5339588310926,None,h,,,,,,,,,,,,,,,,,,,,,,,,,,,,,,,,,,,,,,,,,,,,,,,55_56Exp,001,2021_May_19_1853,ComputerHuman,2020.1.3,59.990262395744224,
Human.xlsx,h,Sychronize.jpg,Number10.jpg,10,Human,,,,,0,2,2,4,0,1,1,8,,,,,,,,,,,,,,,,,,,,,,,,,,,,,856.6008804402773,None,856.6008804402773,None,857.0337015574996,None,857.0337015574996,None,v,8.898966863675014,857.0337015574996,None,t,8.414234543695784,857.0337015574996,None,8.898966863675014,8.414234543695784,10.47482491675204,False,False,False,866.0318188408955,None,866.0318188408955,None,866.0318188408955,None,866.0318188408955,None,866.0318188408955,None,866.0318188408955,None,866.0318188408955,None,866.0318188408955,None,867.0170381201187,None,867.0170381201187,None,868.0147361309637,None,868.0147361309637,None,h,,,,,,,,,,,,,,,,,,,,,,,,,,,,,,,,,,,,,,,,,,,,,,,55_56Exp,001,2021_May_19_1853,ComputerHuman,2020.1.3,59.990262395744224,
Human.xlsx,h,Sychronize.jpg,Number7.jpg,7,Human,,,,,0,2,2,4,0,2,2,2,,,,,,,,,,,,,,,,,,,,,,,,,,,,,869.0643450237767,None,869.0643450237767,None,869.5146501592399,None,869.5146501592399,None,v,6.221695092938717,869.5146501592399,None,t,7.389022052389009,869.5146501592399,None,6.221695092938717,7.389022052389009,7.241626803114798,False,False,False,876.9961655969382,None,876.9961655969382,None,876.9961655969382,None,876.9961655969382,None,876.9961655969382,None,876.9961655969382,None,876.9961655969382,None,876.9961655969382,None,877.9813617792806,None,877.9813617792806,None,878.9791002096681,None,878.9791002096681,None,h,,,,,,,,,,,,,,,,,,,,,,,,,,,,,,,,,,,,,,,,,,,,,,,55_56Exp,001,2021_May_19_1853,ComputerHuman,2020.1.3,59.990262395744224,
Human.xlsx,h,Sychronize.jpg,Number9.jpg,9,Human,,,,,0,2,2,4,0,3,3,6,,,,,,,,,,,,,,,,,,,,,,,,,,,,,880.0288775172394,None,880.0288775172394,None,880.4790270695448,None,880.4790270695448,None,v,8.276836971946977,880.4790270695448,None,t,8.9958528266734,880.4790270695448,None,8.276836971946977,8.9958528266734,9.412034708069328,False,False,False,889.5602514223829,None,889.5602514223829,None,889.5602514223829,None,889.5602514223829,None,889.5602514223829,None,889.5602514223829,None,889.5602514223829,None,889.5602514223829,None,890.5291431313726,None,890.5291431313726,None,891.5264995008502,None,891.5264995008502,None,h,,,,,,,,,,,,,,,,,,,,,,,,,,,,,,,,,,,,,,,,,,,,,,,55_56Exp,001,2021_May_19_1853,ComputerHuman,2020.1.3,59.990262395744224,
Human.xlsx,h,Sychronize.jpg,Number7.jpg,7,Human,,,,,0,2,2,4,0,4,4,3,,,,,,,,,,,,,,,,,,,,,,,,,,,,,892.5776411283596,None,892.5776411283596,None,893.0265755280843,None,893.0265755280843,None,v,6.464914875161412,893.0265755280843,None,t,5.948033621360082,893.0265755280843,None,6.464914875161412,5.948033621360082,6.622226645778167,False,False,False,899.5748056654083,None,899.5748056654083,None,899.5748056654083,None,899.5748056654083,None,899.5748056654083,None,899.5748056654083,None,899.5748056654083,None,899.5748056654083,None,900.5604217618811,None,900.5604217618811,None,901.5577925669104,None,901.5577925669104,None,h,,,,,,,,,,,,,,,,,,,,,,,,,,,,,,,,,,,,,,,,,,,,,,,55_56Exp,001,2021_May_19_1853,ComputerHuman,2020.1.3,59.990262395744224,
Human.xlsx,h,Sychronize.jpg,Number10.jpg,10,Human,,,,,0,2,2,4,0,5,5,9,,,,,,,,,,,,,,,,,,,,,,,,,,,,,902.6083445823697,None,902.6083445823697,None,903.0576976130651,None,903.0576976130651,None,v,8.81334447971767,903.0576976130651,None,t,7.401003880276221,903.0576976130651,None,8.81334447971767,7.401003880276221,9.458840465772205,False,False,False,911.9556883127216,None,911.9556883127216,None,911.9556883127216,None,911.9556883127216,None,911.9556883127216,None,911.9556883127216,None,911.9556883127216,None,911.9556883127216,None,912.9412675183421,None,912.9412675183421,None,913.9386126601703,None,913.9386126601703,None,h,,,,,,,,,,,,,,,,,,,,,,,,,,,,,,,,,,,,,,,,,,,,,,,55_56Exp,001,2021_May_19_1853,ComputerHuman,2020.1.3,59.990262395744224,
Human.xlsx,h,Sychronize.jpg,Number8.jpg,8,Human,,,,,0,2,2,4,0,6,6,5,,,,,,,,,,,,,,,,,,,,,,,,,,,,,914.9886331265734,None,914.9886331265734,None,915.4384978173448,None,915.4384978173448,None,v,7.100080710767543,915.4384978173448,None,t,5.547054121125257,915.4384978173448,None,7.100080710767543,5.547054121125257,8.41759918419014,False,False,False,922.6367906370369,None,922.6367906370369,None,922.6367906370369,None,922.6367906370369,None,922.6367906370369,None,922.6367906370369,None,922.6367906370369,None,922.6367906370369,None,923.6055598042412,None,923.6055598042412,None,924.6030714360868,None,924.6030714360868,None,h,,,,,,,,,,,,,,,,,,,,,,,,,,,,,,,,,,,,,,,,,,,,,,,55_56Exp,001,2021_May_19_1853,ComputerHuman,2020.1.3,59.990262395744224,
Human.xlsx,h,Sychronize.jpg,Number8.jpg,8,Human,,,,,0,2,2,4,0,7,7,4,,,,,,,,,,,,,,,,,,,,,,,,,,,,,925.6532346540471,None,925.6532346540471,None,926.1031105724687,None,926.1031105724687,None,v,6.979104700729295,926.1031105724687,None,t,5.59806165840746,926.1031105724687,None,6.979104700729295,5.59806165840746,8.502207112668403,False,False,False,933.152573505824,None,933.152573505824,None,933.152573505824,None,933.152573505824,None,933.152573505824,None,933.152573505824,None,933.152573505824,None,933.152573505824,None,934.15349289001,None,934.15349289001,None,935.1508534297582,None,935.1508534297582,None,h,,,,,,,,,,,,,,,,,,,,,,,,,,,,,,,,,,,,,,,,,,,,,,,55_56Exp,001,2021_May_19_1853,ComputerHuman,2020.1.3,59.990262395744224,
Human.xlsx,h,Sychronize.jpg,Number6.jpg,6,Human,,,,,0,2,2,4,0,8,8,1,,,,,,,,,,,,,,,,,,,,,,,,,,,,,936.2008828782818,None,936.2008828782818,None,936.6509368351626,None,936.6509368351626,None,v,5.498920220805303,936.6509368351626,None,t,6.149945594013843,936.6509368351626,None,5.498920220805303,6.149945594013843,5.988846215881011,False,False,False,942.8993216574318,None,942.8993216574318,None,942.8993216574318,None,942.8993216574318,None,942.8993216574318,None,942.8993216574318,None,942.8993216574318,None,942.8993216574318,None,943.8666581764237,None,943.8666581764237,None,944.8821879418883,None,944.8821879418883,None,h,,,,,,,,,,,,,,,,,,,,,,,,,,,,,,,,,,,,,,,,,,,,,,,55_56Exp,001,2021_May_19_1853,ComputerHuman,2020.1.3,59.990262395744224,
Human.xlsx,h,Sychronize.jpg,Number6.jpg,6,Human,,,,,0,2,2,4,0,9,9,0,,,,,,,,,,,,,,,,,,,,,,,,,,,,,945.9332298037016,None,945.9332298037016,None,946.382446498641,None,946.382446498641,None,v,5.1870731888839146,946.382446498641,None,t,4.91011880779115,946.382446498641,None,5.1870731888839146,4.91011880779115,5.686811063227036,True,False,False,951.6641918786227,None,951.6641918786227,None,951.6641918786227,None,951.6641918786227,None,951.6641918786227,None,951.6641918786227,None,951.6641918786227,None,951.6641918786227,None,952.6320374913703,None,952.6320374913703,None,953.630332171645,None,953.630332171645,None,h,,,,,,,,,,,,,,,,,,,,,,,,,,,,,,,,,,,,,,,,,,,,,,,55_56Exp,001,2021_May_19_1853,ComputerHuman,2020.1.3,59.990262395744224,
Human.xlsx,h,,,,,,,,,0,2,2,4,,,,,,,,,,,,,,,,,,,,,,,,,,,,,,,,,,,,,,,,,,,,,,,,,,,,,,,,,,,,,,,,,,,,,,,,,,,,,,,h,954.6314735425221,None,954.6314735425221,None,q,0,2.2018247177684316,954.6314735425221,None,o,1,17.068768397307394,954.6314735425221,None,h,h,971.794219620544,None,971.794219620544,None,973.7762460767381,None,None,None,None,None,None,None,None,,,,,,,,,,,,,,,,,,55_56Exp,001,2021_May_19_1853,ComputerHuman,2020.1.3,59.990262395744224,
Computer.xlsx,c,Sychronize.jpg,Number9.jpg,9,Computer,,,,,0,3,3,1,0,0,0,7,,,,,,,,,,,,,,,,,,,,,,,,,978.7954434344547,None,978.7954434344547,None,981.8581671854909,None,981.8581671854909,None,982.3081239429966,None,982.3081239429966,None,v,7.748090337034228,982.3081239429966,None,t,7.182956169817771,982.3081239429966,None,7.748090337034228,7.182956169817771,8.708836256518428,False,False,False,990.1244492035421,None,990.1244492035421,None,990.1244492035421,None,990.1244492035421,None,990.1244492035421,None,990.1244492035421,None,990.1244492035421,None,990.1244492035421,None,991.1392828546714,None,991.1392828546714,None,992.1225491642772,None,992.1225491642772,None,c,,,,,,,,,,,,,,,,,,,,,,,,,,,,,,,,,,,,,,,,,,,,,,,55_56Exp,001,2021_May_19_1853,ComputerHuman,2020.1.3,59.990262395744224,
Computer.xlsx,c,Sychronize.jpg,Number10.jpg,10,Computer,,,,,0,3,3,1,0,1,1,8,,,,,,,,,,,,,,,,,,,,,,,,,,,,,993.1897241975757,None,993.1897241975757,None,993.6222559622029,None,993.6222559622029,None,v,8.385341949325266,993.6222559622029,None,t,7.720946369041485,993.6222559622029,None,8.385341949325266,7.720946369041485,9.294910759496595,False,False,False,1002.1037114121691,None,1002.1037114121691,None,1002.1037114121691,None,1002.1037114121691,None,1002.1037114121691,None,1002.1037114121691,None,1002.1037114121691,None,1002.1037114121691,None,1003.1035186173694,None,1003.1035186173694,None,1004.070058935541,None,1004.070058935541,None,c,,,,,,,,,,,,,,,,,,,,,,,,,,,,,,,,,,,,,,,,,,,,,,,55_56Exp,001,2021_May_19_1853,ComputerHuman,2020.1.3,59.990262395744224,
Computer.xlsx,c,Sychronize.jpg,Number8.jpg,8,Computer,,,,,0,3,3,1,0,2,2,4,,,,,,,,,,,,,,,,,,,,,,,,,,,,,1005.1202930480949,None,1005.1202930480949,None,1005.5698879544625,None,1005.5698879544625,None,v,7.24925769190213,1005.5698879544625,None,t,7.032975609693494,1005.5698879544625,None,7.24925769190213,7.032975609693494,8.568621691163715,False,False,False,1012.9018103463759,None,1012.9018103463759,None,1012.9018103463759,None,1012.9018103463759,None,1012.9018103463759,None,1012.9018103463759,None,1012.9018103463759,None,1012.9018103463759,None,1013.9179037398981,None,1013.9179037398981,None,1014.9010699630189,None,1014.9010699630189,None,c,,,,,,,,,,,,,,,,,,,,,,,,,,,,,,,,,,,,,,,,,,,,,,,55_56Exp,001,2021_May_19_1853,ComputerHuman,2020.1.3,59.990262395744224,
Computer.xlsx,c,Sychronize.jpg,Number8.jpg,8,Computer,,,,,0,3,3,1,0,3,3,5,,,,,,,,,,,,,,,,,,,,,,,,,,,,,1015.9349575787282,None,1015.9349575787282,None,1016.4010112584465,None,1016.4010112584465,None,v,6.9258311027733725,1016.4010112584465,None,t,7.800998555161641,1016.4010112584465,None,6.9258311027733725,7.800998555161641,8.306136138062508,False,False,False,1024.2991742223403,None,1024.2991742223403,None,1024.2991742223403,None,1024.2991742223403,None,1024.2991742223403,None,1024.2991742223403,None,1024.2991742223403,None,1024.2991742223403,None,1025.2823000259195,None,1025.2823000259195,None,1026.2654460392696,None,1026.2654460392696,None,c,,,,,,,,,,,,,,,,,,,,,,,,,,,,,,,,,,,,,,,,,,,,,,,55_56Exp,001,2021_May_19_1853,ComputerHuman,2020.1.3,59.990262395744224,
Computer.xlsx,c,Sychronize.jpg,Number7.jpg,7,Computer,,,,,0,3,3,1,0,4,4,2,,,,,,,,,,,,,,,,,,,,,,,,,,,,,1027.3324074264165,None,1027.3324074264165,None,1027.7823077248795,None,1027.7823077248795,None,v,6.4881487336488135,1027.7823077248795,None,t,7.278998134284848,1027.7823077248795,None,6.4881487336488135,7.278998134284848,7.288632700863597,False,False,True,1035.1317731603976,None,1035.1317731603976,None,1035.1317731603976,None,1035.1317731603976,None,1035.1317731603976,None,1035.1317731603976,None,1035.1317731603976,None,1035.1317731603976,None,1036.1467312780524,None,1036.1467312780524,None,1037.1132016640013,None,1037.1132016640013,None,c,,,,,,,,,,,,,,,,,,,,,,,,,,,,,,,,,,,,,,,,,,,,,,,55_56Exp,001,2021_May_19_1853,ComputerHuman,2020.1.3,59.990262395744224,
Computer.xlsx,c,Sychronize.jpg,Number6.jpg,6,Computer,,,,,0,3,3,1,0,5,5,0,,,,,,,,,,,,,,,,,,,,,,,,,,,,,1038.180326974847,None,1038.180326974847,None,1038.6131214664974,None,1038.6131214664974,None,v,5.252908282284807,1038.6131214664974,None,t,5.372545314798117,1038.6131214664974,None,5.252908282284807,5.372545314798117,5.674318744465279,False,False,False,1044.0466836086562,None,1044.0466836086562,None,1044.0466836086562,None,1044.0466836086562,None,1044.0466836086562,None,1044.0466836086562,None,1044.0466836086562,None,1044.0466836086562,None,1045.0782207959182,None,1045.0782207959182,None,1046.0613684132186,None,1046.0613684132186,None,c,,,,,,,,,,,,,,,,,,,,,,,,,,,,,,,,,,,,,,,,,,,,,,,55_56Exp,001,2021_May_19_1853,ComputerHuman,2020.1.3,59.990262395744224,
Computer.xlsx,c,Sychronize.jpg,Number9.jpg,9,Computer,,,,,0,3,3,1,0,6,6,6,,,,,,,,,,,,,,,,,,,,,,,,,,,,,1047.1115274609083,None,1047.1115274609083,None,1047.5612160379605,None,1047.5612160379605,None,v,7.884424810668861,1047.5612160379605,None,t,8.451941164545133,1047.5612160379605,None,7.884424810668861,8.451941164545133,9.0036469961921,False,False,False,1056.0944296738462,None,1056.0944296738462,None,1056.0944296738462,None,1056.0944296738462,None,1056.0944296738462,None,1056.0944296738462,None,1056.0944296738462,None,1056.0944296738462,None,1057.0924526449771,None,1057.0924526449771,None,1058.0756705152908,None,1058.0756705152908,None,c,,,,,,,,,,,,,,,,,,,,,,,,,,,,,,,,,,,,,,,,,,,,,,,55_56Exp,001,2021_May_19_1853,ComputerHuman,2020.1.3,59.990262395744224,
Computer.xlsx,c,Sychronize.jpg,Number10.jpg,10,Computer,,,,,0,3,3,1,0,7,7,9,,,,,,,,,,,,,,,,,,,,,,,,,,,,,1059.1258401490513,None,1059.1258401490513,None,1059.5757709225663,None,1059.5757709225663,None,v,9.053402876331347,1059.5757709225663,None,t,8.868932898427374,1059.5757709225663,None,9.053402876331347,8.868932898427374,10.305184076452388,False,False,False,1068.7234254342848,None,1068.7234254342848,None,1068.7234254342848,None,1068.7234254342848,None,1068.7234254342848,None,1068.7234254342848,None,1068.7234254342848,None,1068.7234254342848,None,1069.7232297523751,None,1069.7232297523751,None,1070.689642075331,None,1070.689642075331,None,c,,,,,,,,,,,,,,,,,,,,,,,,,,,,,,,,,,,,,,,,,,,,,,,55_56Exp,001,2021_May_19_1853,ComputerHuman,2020.1.3,59.990262395744224,
Computer.xlsx,c,Sychronize.jpg,Number6.jpg,6,Computer,,,,,0,3,3,1,0,8,8,1,,,,,,,,,,,,,,,,,,,,,,,,,,,,,1071.756069667892,None,1071.756069667892,None,1072.1894961158741,None,1072.1894961158741,None,v,5.219335361582125,1072.1894961158741,None,t,5.787060870547066,1072.1894961158741,None,5.219335361582125,5.787060870547066,5.610700270979478,False,False,True,1078.0714607879108,None,1078.0714607879108,None,1078.0714607879108,None,1078.0714607879108,None,1078.0714607879108,None,1078.0714607879108,None,1078.0714607879108,None,1078.0714607879108,None,1079.0712333477895,None,1079.0712333477895,None,1080.0544210638418,None,1080.0544210638418,None,c,,,,,,,,,,,,,,,,,,,,,,,,,,,,,,,,,,,,,,,,,,,,,,,55_56Exp,001,2021_May_19_1853,ComputerHuman,2020.1.3,59.990262395744224,
Computer.xlsx,c,Sychronize.jpg,Number7.jpg,7,Computer,,,,,0,3,3,1,0,9,9,3,,,,,,,,,,,,,,,,,,,,,,,,,,,,,1081.104667366416,None,1081.104667366416,None,1081.554332205008,None,1081.554332205008,None,v,6.666059518096517,1081.554332205008,None,t,6.321568894147276,1081.554332205008,None,6.666059518096517,6.321568894147276,6.895676081811451,False,True,False,1088.3193021918933,None,1088.3193021918933,None,1088.3193021918933,None,1088.3193021918933,None,1088.3193021918933,None,1088.3193021918933,None,1088.3193021918933,None,1088.3193021918933,None,1089.3024023322714,None,1089.3024023322714,None,1090.2856416955165,None,1090.2856416955165,None,c,,,,,,,,,,,,,,,,,,,,,,,,,,,,,,,,,,,,,,,,,,,,,,,55_56Exp,001,2021_May_19_1853,ComputerHuman,2020.1.3,59.990262395744224,
Computer.xlsx,c,,,,,,,,,0,3,3,1,,,,,,,,,,,,,,,,,,,,,,,,,,,,,,,,,,,,,,,,,,,,,,,,,,,,,,,,,,,,,,,,,,,,,,,,,,,,,,,c,1091.2861556011221,None,1091.2861556011221,None,a,0,2.598070961317717,1091.2861556011221,None,o,0,4.221170922052806,1091.2861556011221,None,c,h,1095.602599553973,None,1095.602599553973,None,1097.6007479540012,None,None,None,None,None,None,None,None,,,,,,,,,,,,,,,,,,55_56Exp,001,2021_May_19_1853,ComputerHuman,2020.1.3,59.990262395744224,
Human.xlsx,h,Sychronize.jpg,Number10.jpg,10,Human,,,,,0,4,4,2,0,0,0,9,,,,,,,,,,,,,,,,,,,,,,,,,1102.602564267071,None,1102.602564267071,None,1105.6655215532392,None,1105.6655215532392,None,1106.0995844486133,None,1106.0995844486133,None,v,8.788288533937703,1106.0995844486133,None,t,9.718919296930835,1106.0995844486133,None,8.788288533937703,9.718919296930835,10.677397791060498,False,False,False,1115.9136186268643,None,1115.9136186268643,None,1115.9136186268643,None,1115.9136186268643,None,1115.9136186268643,None,1115.9136186268643,None,1115.9136186268643,None,1115.9136186268643,None,1116.9150211208143,None,1116.9150211208143,None,1117.913230150155,None,1117.913230150155,None,h,,,,,,,,,,,,,,,,,,,,,,,,,,,,,,,,,,,,,,,,,,,,,,,55_56Exp,001,2021_May_19_1853,ComputerHuman,2020.1.3,59.990262395744224,
Human.xlsx,h,Sychronize.jpg,Number10.jpg,10,Human,,,,,0,4,4,2,0,1,1,8,,,,,,,,,,,,,,,,,,,,,,,,,,,,,1118.947042701,None,1118.947042701,None,1119.413101513359,None,1119.413101513359,None,v,8.669815648394433,1119.413101513359,None,t,9.044946851510758,1119.413101513359,None,8.669815648394433,9.044946851510758,10.120327498786454,False,False,False,1128.5294193315758,None,1128.5294193315758,None,1128.5294193315758,None,1128.5294193315758,None,1128.5294193315758,None,1128.5294193315758,None,1128.5294193315758,None,1128.5294193315758,None,1129.5302764824983,None,1129.5302764824983,None,1130.5273383667418,None,1130.5273383667418,None,h,,,,,,,,,,,,,,,,,,,,,,,,,,,,,,,,,,,,,,,,,,,,,,,55_56Exp,001,2021_May_19_1853,ComputerHuman,2020.1.3,59.990262395744224,
Human.xlsx,h,Sychronize.jpg,Number9.jpg,9,Human,,,,,0,4,4,2,0,2,2,6,,,,,,,,,,,,,,,,,,,,,,,,,,,,,1131.577356908405,None,1131.577356908405,None,1132.0275433515626,None,1132.0275433515626,None,v,8.066904928104123,1132.0275433515626,None,t,10.089891136700317,1132.0275433515626,None,8.066904928104123,10.089891136700317,9.198362576057207,False,False,False,1142.2082706723495,None,1142.2082706723495,None,1142.2082706723495,None,1142.2082706723495,None,1142.2082706723495,None,1142.2082706723495,None,1142.2082706723495,None,1142.2082706723495,None,1143.17737987697,None,1143.17737987697,None,1144.1744866718163,None,1144.1744866718163,None,h,,,,,,,,,,,,,,,,,,,,,,,,,,,,,,,,,,,,,,,,,,,,,,,55_56Exp,001,2021_May_19_1853,ComputerHuman,2020.1.3,59.990262395744224,
Human.xlsx,h,Sychronize.jpg,Number7.jpg,7,Human,,,,,0,4,4,2,0,3,3,2,,,,,,,,,,,,,,,,,,,,,,,,,,,,,1145.2410698475342,None,1145.2410698475342,None,1145.6911613368475,None,1145.6911613368475,None,v,6.530881492469234,1145.6911613368475,None,t,6.950014178918536,1145.6911613368475,None,6.530881492469234,6.950014178918536,7.225842815252569,False,False,False,1152.7393828128406,None,1152.7393828128406,None,1152.7393828128406,None,1152.7393828128406,None,1152.7393828128406,None,1152.7393828128406,None,1152.7393828128406,None,1152.7393828128406,None,1153.725109902659,None,1153.725109902659,None,1154.7056741979604,None,1154.7056741979604,None,h,,,,,,,,,,,,,,,,,,,,,,,,,,,,,,,,,,,,,,,,,,,,,,,55_56Exp,001,2021_May_19_1853,ComputerHuman,2020.1.3,59.990262395744224,
Human.xlsx,h,Sychronize.jpg,Number9.jpg,9,Human,,,,,0,4,4,2,0,4,4,7,,,,,,,,,,,,,,,,,,,,,,,,,,,,,1155.7725877873954,None,1155.7725877873954,None,1156.2057960981665,None,1156.2057960981665,None,v,8.443747545956285,1156.2057960981665,None,t,9.406926947131069,1156.2057960981665,None,8.443747545956285,9.406926947131069,8.837936944617173,False,False,False,1165.6880310678707,None,1165.6880310678707,None,1165.6880310678707,None,1165.6880310678707,None,1165.6880310678707,None,1165.6880310678707,None,1165.6880310678707,None,1165.6880310678707,None,1166.6885590882375,None,1166.6885590882375,None,1167.6863074631156,None,1167.6863074631156,None,h,,,,,,,,,,,,,,,,,,,,,,,,,,,,,,,,,,,,,,,,,,,,,,,55_56Exp,001,2021_May_19_1853,ComputerHuman,2020.1.3,59.990262395744224,
Human.xlsx,h,Sychronize.jpg,Number6.jpg,6,Human,,,,,0,4,4,2,0,5,5,1,,,,,,,,,,,,,,,,,,,,,,,,,,,,,1168.73635519667,None,1168.73635519667,None,1169.1862016024097,None,1169.1862016024097,None,v,5.458985071715688,1169.1862016024097,None,t,5.5259365143729156,1169.1862016024097,None,5.458985071715688,5.5259365143729156,6.105355426406622,True,False,False,1174.7698549772495,None,1174.7698549772495,None,1174.7698549772495,None,1174.7698549772495,None,1174.7698549772495,None,1174.7698549772495,None,1174.7698549772495,None,1174.7698549772495,None,1175.7703040832712,None,1175.7703040832712,None,1176.767809620107,None,1176.767809620107,None,h,,,,,,,,,,,,,,,,,,,,,,,,,,,,,,,,,,,,,,,,,,,,,,,55_56Exp,001,2021_May_19_1853,ComputerHuman,2020.1.3,59.990262395744224,
Human.xlsx,h,Sychronize.jpg,Number7.jpg,7,Human,,,,,0,4,4,2,0,6,6,3,,,,,,,,,,,,,,,,,,,,,,,,,,,,,1177.8515011689587,None,1177.8515011689587,None,1178.284689269959,None,1178.284689269959,None,v,6.5520975817571525,1178.284689269959,None,t,6.203064891970826,1178.284689269959,None,6.5520975817571525,6.203064891970826,7.1763433541399575,False,False,False,1184.9327794145192,None,1184.9327794145192,None,1184.9327794145192,None,1184.9327794145192,None,1184.9327794145192,None,1184.9327794145192,None,1184.9327794145192,None,1184.9327794145192,None,1185.917562740111,None,1185.917562740111,None,1186.8991006331107,None,1186.8991006331107,None,h,,,,,,,,,,,,,,,,,,,,,,,,,,,,,,,,,,,,,,,,,,,,,,,55_56Exp,001,2021_May_19_1853,ComputerHuman,2020.1.3,59.990262395744224,
Human.xlsx,h,Sychronize.jpg,Number8.jpg,8,Human,,,,,0,4,4,2,0,7,7,4,,,,,,,,,,,,,,,,,,,,,,,,,,,,,1187.9654820319092,None,1187.9654820319092,None,1188.3993495661634,None,1188.3993495661634,None,v,7.66502464950554,1188.3993495661634,None,t,8.227987709892659,1188.3993495661634,None,7.66502464950554,8.227987709892659,8.575888737960492,False,False,False,1196.7136400556374,None,1196.7136400556374,None,1196.7136400556374,None,1196.7136400556374,None,1196.7136400556374,None,1196.7136400556374,None,1196.7136400556374,None,1196.7136400556374,None,1197.6996542525203,None,1197.6996542525203,None,1198.696581725747,None,1198.696581725747,None,h,,,,,,,,,,,,,,,,,,,,,,,,,,,,,,,,,,,,,,,,,,,,,,,55_56Exp,001,2021_May_19_1853,ComputerHuman,2020.1.3,59.990262395744224,
Human.xlsx,h,Sychronize.jpg,Number8.jpg,8,Human,,,,,0,4,4,2,0,8,8,5,,,,,,,,,,,,,,,,,,,,,,,,,,,,,1199.7296285508246,None,1199.7296285508246,None,1200.1965852544372,None,1200.1965852544372,None,v,7.687331745636584,1200.1965852544372,None,t,8.330935641823999,1200.1965852544372,None,7.687331745636584,8.330935641823999,7.989657406359436,False,False,False,1208.6112185401225,None,1208.6112185401225,None,1208.6112185401225,None,1208.6112185401225,None,1208.6112185401225,None,1208.6112185401225,None,1208.6112185401225,None,1208.6112185401225,None,1209.5798699773904,None,1209.5798699773904,None,1210.577494848112,None,1210.577494848112,None,h,,,,,,,,,,,,,,,,,,,,,,,,,,,,,,,,,,,,,,,,,,,,,,,55_56Exp,001,2021_May_19_1853,ComputerHuman,2020.1.3,59.990262395744224,
Human.xlsx,h,Sychronize.jpg,Number6.jpg,6,Human,,,,,0,4,4,2,0,9,9,0,,,,,,,,,,,,,,,,,,,,,,,,,,,,,1211.644194149816,None,1211.644194149816,None,1212.094487095259,None,1212.094487095259,None,v,5.661074441247365,1212.094487095259,None,t,4.960067096440071,1212.094487095259,None,5.661074441247365,4.960067096440071,6.072480777254681,False,False,False,1217.8426159270957,None,1217.8426159270957,None,1217.8426159270957,None,1217.8426159270957,None,1217.8426159270957,None,1217.8426159270957,None,1217.8426159270957,None,1217.8426159270957,None,1218.8272683703608,None,1218.8272683703608,None,1219.8255813356664,None,1219.8255813356664,None,h,,,,,,,,,,,,,,,,,,,,,,,,,,,,,,,,,,,,,,,,,,,,,,,55_56Exp,001,2021_May_19_1853,ComputerHuman,2020.1.3,59.990262395744224,
Human.xlsx,h,,,,,,,,,0,4,4,2,,,,,,,,,,,,,,,,,,,,,,,,,,,,,,,,,,,,,,,,,,,,,,,,,,,,,,,,,,,,,,,,,,,,,,,,,,,,,,,h,1220.809374703269,None,1220.809374703269,None,q,0,2.414060675507244,1220.809374703269,None,l,0,15.328775121066428,1220.809374703269,None,h,c,1236.205943340784,None,1236.205943340784,None,None,None,1238.2217249264104,None,1238.2217249264104,None,"['space', 'space']",1239.2049235493232,None,"[1.2658345159798046, 5.149594649736173]",,,,,,,,,,,,,,,,,55_56Exp,001,2021_May_19_1853,ComputerHuman,2020.1.3,59.990262395744224,
Computer.xlsx,c,Sychronize.jpg,Number6.jpg,6,Computer,,,,,0,5,5,5,0,0,0,1,,,,,,,,,,,,,,,,,,,,,,,,,1244.4231322963687,None,1244.4231322963687,None,1247.4869053515467,None,1247.4869053515467,None,1247.9370468841025,None,1247.9370468841025,None,v,5.265259339480508,1247.9370468841025,None,t,5.587993022176306,1247.9370468841025,None,5.265259339480508,5.587993022176306,5.996823101477453,False,False,False,1253.6016853024275,None,1253.6016853024275,None,1253.6016853024275,None,1253.6016853024275,None,1253.6016853024275,None,1253.6016853024275,None,1253.6016853024275,None,1253.6016853024275,None,1254.6184125770214,None,1254.6184125770214,None,1255.5848749432198,None,1255.5848749432198,None,c,,,,,,,,,,,,,,,,,,,,,,,,,,,,,,,,,,,,,,,,,,,,,,,55_56Exp,001,2021_May_19_1853,ComputerHuman,2020.1.3,59.990262395744224,
Computer.xlsx,c,Sychronize.jpg,Number8.jpg,8,Computer,,,,,0,5,5,5,0,1,1,4,,,,,,,,,,,,,,,,,,,,,,,,,,,,,1256.651706410411,None,1256.651706410411,None,1257.084948083343,None,1257.084948083343,None,v,7.3288845104616485,1257.084948083343,None,t,7.167985541352209,1257.084948083343,None,7.3288845104616485,7.167985541352209,8.128828523743621,False,False,False,1264.4995476860768,None,1264.4995476860768,None,1264.4995476860768,None,1264.4995476860768,None,1264.4995476860768,None,1264.4995476860768,None,1264.4995476860768,None,1264.4995476860768,None,1265.4994062176802,None,1265.4994062176802,None,1266.4826176721936,None,1266.4826176721936,None,c,,,,,,,,,,,,,,,,,,,,,,,,,,,,,,,,,,,,,,,,,,,,,,,55_56Exp,001,2021_May_19_1853,ComputerHuman,2020.1.3,59.990262395744224,
Computer.xlsx,c,Sychronize.jpg,Number7.jpg,7,Computer,,,,,0,5,5,5,0,2,2,2,,,,,,,,,,,,,,,,,,,,,,,,,,,,,1267.5324280211362,None,1267.5324280211362,None,1267.9825422865397,None,1267.9825422865397,None,v,6.558929446727234,1267.9825422865397,None,t,6.030028191026759,1267.9825422865397,None,6.558929446727234,6.030028191026759,6.694724551191467,False,True,False,1274.6152823080456,None,1274.6152823080456,None,1274.6152823080456,None,1274.6152823080456,None,1274.6152823080456,None,1274.6152823080456,None,1274.6152823080456,None,1274.6152823080456,None,1275.613899382286,None,1275.613899382286,None,1276.5972295291058,None,1276.5972295291058,None,c,,,,,,,,,,,,,,,,,,,,,,,,,,,,,,,,,,,,,,,,,,,,,,,55_56Exp,001,2021_May_19_1853,ComputerHuman,2020.1.3,59.990262395744224,
Computer.xlsx,c,Sychronize.jpg,Number10.jpg,10,Computer,,,,,0,5,5,5,0,3,3,9,,,,,,,,,,,,,,,,,,,,,,,,,,,,,1277.6640760734272,None,1277.6640760734272,None,1278.1142484018237,None,1278.1142484018237,None,v,9.68669914772454,1278.1142484018237,None,t,8.773948578644195,1278.1142484018237,None,9.68669914772454,8.773948578644195,10.341445919765523,False,False,False,1287.894907907602,None,1287.894907907602,None,1287.894907907602,None,1287.894907907602,None,1287.894907907602,None,1287.894907907602,None,1287.894907907602,None,1287.894907907602,None,1288.8780080479792,None,1288.8780080479792,None,1289.8611652889804,None,1289.8611652889804,None,c,,,,,,,,,,,,,,,,,,,,,,,,,,,,,,,,,,,,,,,,,,,,,,,55_56Exp,001,2021_May_19_1853,ComputerHuman,2020.1.3,59.990262395744224,
Computer.xlsx,c,Sychronize.jpg,Number8.jpg,8,Computer,,,,,0,5,5,5,0,4,4,5,,,,,,,,,,,,,,,,,,,,,,,,,,,,,1290.9281314879781,None,1290.9281314879781,None,1291.3611575900195,None,1291.3611575900195,None,v,7.779389177314442,1291.3611575900195,None,t,7.298942611949315,1291.3611575900195,None,7.779389177314442,7.298942611949315,8.254930465835058,False,False,False,1299.2259105945386,None,1299.2259105945386,None,1299.2259105945386,None,1299.2259105945386,None,1299.2259105945386,None,1299.2259105945386,None,1299.2259105945386,None,1299.2259105945386,None,1300.2257084968287,None,1300.2257084968287,None,1301.2088583596587,None,1301.2088583596587,None,c,,,,,,,,,,,,,,,,,,,,,,,,,,,,,,,,,,,,,,,,,,,,,,,55_56Exp,001,2021_May_19_1853,ComputerHuman,2020.1.3,59.990262395744224,
Computer.xlsx,c,Sychronize.jpg,Number9.jpg,9,Computer,,,,,0,5,5,5,0,5,5,6,,,,,,,,,,,,,,,,,,,,,,,,,,,,,1302.2598861067127,None,1302.2598861067127,None,1302.7091310311725,None,1302.7091310311725,None,v,8.250955633457124,1302.7091310311725,None,t,8.097957080862216,1302.7091310311725,None,8.250955633457124,8.097957080862216,8.930386171328163,False,False,False,1311.0734403831002,None,1311.0734403831002,None,1311.0734403831002,None,1311.0734403831002,None,1311.0734403831002,None,1311.0734403831002,None,1311.0734403831002,None,1311.0734403831002,None,1312.0565847925,None,1312.0565847925,None,1313.0397410711303,None,1313.0397410711303,None,c,,,,,,,,,,,,,,,,,,,,,,,,,,,,,,,,,,,,,,,,,,,,,,,55_56Exp,001,2021_May_19_1853,ComputerHuman,2020.1.3,59.990262395744224,
Computer.xlsx,c,Sychronize.jpg,Number6.jpg,6,Computer,,,,,0,5,5,5,0,6,6,0,,,,,,,,,,,,,,,,,,,,,,,,,,,,,1314.0723808136772,None,1314.0723808136772,None,1314.5397369008606,None,1314.5397369008606,None,v,5.332020553658367,1314.5397369008606,None,t,5.195084598743051,1314.5397369008606,None,5.332020553658367,5.195084598743051,6.155442652685119,False,False,False,1319.9399051231449,None,1319.9399051231449,None,1319.9399051231449,None,1319.9399051231449,None,1319.9399051231449,None,1319.9399051231449,None,1319.9399051231449,None,1319.9399051231449,None,1320.9546999586819,None,1320.9546999586819,None,1321.921179647541,None,1321.921179647541,None,c,,,,,,,,,,,,,,,,,,,,,,,,,,,,,,,,,,,,,,,,,,,,,,,55_56Exp,001,2021_May_19_1853,ComputerHuman,2020.1.3,59.990262395744224,
Computer.xlsx,c,Sychronize.jpg,Number10.jpg,10,Computer,,,,,0,5,5,5,0,7,7,8,,,,,,,,,,,,,,,,,,,,,,,,,,,,,1322.9713977205938,None,1322.9713977205938,None,1323.4215209681179,None,1323.4215209681179,None,v,9.245765250999284,1323.4215209681179,None,t,8.880942955835962,1323.4215209681179,None,9.245765250999284,8.880942955835962,10.310278541827627,False,False,False,1332.7522519459117,None,1332.7522519459117,None,1332.7522519459117,None,1332.7522519459117,None,1332.7522519459117,None,1332.7522519459117,None,1332.7522519459117,None,1332.7522519459117,None,1333.7521265170153,None,1333.7521265170153,None,1334.7351913704915,None,1334.7351913704915,None,c,,,,,,,,,,,,,,,,,,,,,,,,,,,,,,,,,,,,,,,,,,,,,,,55_56Exp,001,2021_May_19_1853,ComputerHuman,2020.1.3,59.990262395744224,
Computer.xlsx,c,Sychronize.jpg,Number7.jpg,7,Computer,,,,,0,5,5,5,0,8,8,3,,,,,,,,,,,,,,,,,,,,,,,,,,,,,1335.784792243554,None,1335.784792243554,None,1336.2355269168484,None,1336.2355269168484,None,v,6.23937832178035,1336.2355269168484,None,t,5.883011730649741,1336.2355269168484,None,6.23937832178035,5.883011730649741,6.896960623714812,False,False,False,1342.5667416459864,None,1342.5667416459864,None,1342.5667416459864,None,1342.5667416459864,None,1342.5667416459864,None,1342.5667416459864,None,1342.5667416459864,None,1342.5667416459864,None,1343.5500762838656,None,1343.5500762838656,None,1344.5499078691073,None,1344.5499078691073,None,c,,,,,,,,,,,,,,,,,,,,,,,,,,,,,,,,,,,,,,,,,,,,,,,55_56Exp,001,2021_May_19_1853,ComputerHuman,2020.1.3,59.990262395744224,
Computer.xlsx,c,Sychronize.jpg,Number9.jpg,9,Computer,,,,,0,5,5,5,0,9,9,7,,,,,,,,,,,,,,,,,,,,,,,,,,,,,1345.6172631863938,None,1345.6172631863938,None,1346.0499912745108,None,1346.0499912745108,None,v,8.164613396704226,1346.0499912745108,None,t,8.451916784502828,1346.0499912745108,None,8.164613396704226,8.451916784502828,8.338688718144743,False,True,True,1354.597789628474,None,1354.597789628474,None,1354.597789628474,None,1354.597789628474,None,1354.597789628474,None,1354.597789628474,None,1354.597789628474,None,1354.597789628474,None,1355.5976375740056,None,1355.5976375740056,None,1356.5640736354235,None,1356.5640736354235,None,c,,,,,,,,,,,,,,,,,,,,,,,,,,,,,,,,,,,,,,,,,,,,,,,55_56Exp,001,2021_May_19_1853,ComputerHuman,2020.1.3,59.990262395744224,
Computer.xlsx,c,,,,,,,,,0,5,5,5,,,,,,,,,,,,,,,,,,,,,,,,,,,,,,,,,,,,,,,,,,,,,,,,,,,,,,,,,,,,,,,,,,,,,,,,,,,,,,,c,1357.565189022309,None,1357.565189022309,None,q,0,5.108968839740555,1357.565189022309,None,o,0,2.0681980326589837,1357.565189022309,None,h,h,1362.7634908241216,None,1362.7634908241216,None,1364.762386985677,None,None,None,None,None,None,None,None,,,,,,,,,,,,,,,,,,55_56Exp,001,2021_May_19_1853,ComputerHuman,2020.1.3,59.990262395744224,
Human.xlsx,h,Sychronize.jpg,Number8.jpg,8,Human,,,,,0,6,6,6,0,0,0,4,,,,,,,,,,,,,,,,,,,,,,,,,1369.7647380557046,None,1369.7647380557046,None,1372.8277267792937,None,1372.8277267792937,None,1373.2611974962974,None,1373.2611974962974,None,v,6.92832781146808,1373.2611974962974,None,t,6.735978589191291,1373.2611974962974,None,6.92832781146808,6.735978589191291,7.5462206145290915,True,False,False,1380.2758652989887,None,1380.2758652989887,None,1380.2758652989887,None,1380.2758652989887,None,1380.2758652989887,None,1380.2758652989887,None,1380.2758652989887,None,1380.2758652989887,None,1381.27749427069,None,1381.27749427069,None,1382.2754245335072,None,1382.2754245335072,None,h,,,,,,,,,,,,,,,,,,,,,,,,,,,,,,,,,,,,,,,,,,,,,,,55_56Exp,001,2021_May_19_1853,ComputerHuman,2020.1.3,59.990262395744224,
Human.xlsx,h,Sychronize.jpg,Number8.jpg,8,Human,,,,,0,6,6,6,0,1,1,5,,,,,,,,,,,,,,,,,,,,,,,,,,,,,1383.325870367471,None,1383.325870367471,None,1383.7754303077272,None,1383.7754303077272,None,v,7.05361235221244,1383.7754303077272,None,t,6.761040950769711,1383.7754303077272,None,7.05361235221244,6.761040950769711,8.485737023027875,True,False,False,1390.908631625276,None,1390.908631625276,None,1390.908631625276,None,1390.908631625276,None,1390.908631625276,None,1390.908631625276,None,1390.908631625276,None,1390.908631625276,None,1391.892516097243,None,1391.892516097243,None,1392.88985674801,None,1392.88985674801,None,h,,,,,,,,,,,,,,,,,,,,,,,,,,,,,,,,,,,,,,,,,,,,,,,55_56Exp,001,2021_May_19_1853,ComputerHuman,2020.1.3,59.990262395744224,
Human.xlsx,h,Sychronize.jpg,Number10.jpg,10,Human,,,,,0,6,6,6,0,2,2,9,,,,,,,,,,,,,,,,,,,,,,,,,,,,,1393.9734462856359,None,1393.9734462856359,None,1394.4065070329998,None,1394.4065070329998,None,v,9.494127938757629,1394.4065070329998,None,t,8.476953803671677,1394.4065070329998,None,9.494127938757629,8.476953803671677,10.628423026523722,False,False,False,1403.9876037114118,None,1403.9876037114118,None,1403.9876037114118,None,1403.9876037114118,None,1403.9876037114118,None,1403.9876037114118,None,1403.9876037114118,None,1403.9876037114118,None,1404.956523649923,None,1404.956523649923,None,1405.9539092112927,None,1405.9539092112927,None,h,,,,,,,,,,,,,,,,,,,,,,,,,,,,,,,,,,,,,,,,,,,,,,,55_56Exp,001,2021_May_19_1853,ComputerHuman,2020.1.3,59.990262395744224,
Human.xlsx,h,Sychronize.jpg,Number7.jpg,7,Human,,,,,0,6,6,6,0,3,3,3,,,,,,,,,,,,,,,,,,,,,,,,,,,,,1407.0209924986457,None,1407.0209924986457,None,1407.4539230052633,None,1407.4539230052633,None,v,6.214391666645497,1407.4539230052633,None,t,5.537990840804014,1407.4539230052633,None,6.214391666645497,5.537990840804014,7.363222281415573,False,False,False,1413.7523950182594,None,1413.7523950182594,None,1413.7523950182594,None,1413.7523950182594,None,1413.7523950182594,None,1413.7523950182594,None,1413.7523950182594,None,1413.7523950182594,None,1414.737707326587,None,1414.737707326587,None,1415.735239488994,None,1415.735239488994,None,h,,,,,,,,,,,,,,,,,,,,,,,,,,,,,,,,,,,,,,,,,,,,,,,55_56Exp,001,2021_May_19_1853,ComputerHuman,2020.1.3,59.990262395744224,
Human.xlsx,h,Sychronize.jpg,Number9.jpg,9,Human,,,,,0,6,6,6,0,4,4,7,,,,,,,,,,,,,,,,,,,,,,,,,,,,,1416.7849407693311,None,1416.7849407693311,None,1417.235263227455,None,1417.235263227455,None,v,7.760584466577711,1417.235263227455,None,t,8.683977565229725,1417.235263227455,None,7.760584466577711,8.683977565229725,9.640990299642295,False,False,False,1426.0164639059903,None,1426.0164639059903,None,1426.0164639059903,None,1426.0164639059903,None,1426.0164639059903,None,1426.0164639059903,None,1426.0164639059903,None,1426.0164639059903,None,1426.9852292237138,None,1426.9852292237138,None,1427.9994373343116,None,1427.9994373343116,None,h,,,,,,,,,,,,,,,,,,,,,,,,,,,,,,,,,,,,,,,,,,,,,,,55_56Exp,001,2021_May_19_1853,ComputerHuman,2020.1.3,59.990262395744224,
Human.xlsx,h,Sychronize.jpg,Number7.jpg,7,Human,,,,,0,6,6,6,0,5,5,2,,,,,,,,,,,,,,,,,,,,,,,,,,,,,1429.0495351111085,None,1429.0495351111085,None,1429.4993789505288,None,1429.4993789505288,None,v,5.972251022036289,1429.4993789505288,None,t,6.559050705353002,1429.4993789505288,None,5.972251022036289,6.559050705353002,6.929306166382163,False,False,False,1436.147658681989,None,1436.147658681989,None,1436.147658681989,None,1436.147658681989,None,1436.147658681989,None,1436.147658681989,None,1436.147658681989,None,1436.147658681989,None,1437.1326627111112,None,1437.1326627111112,None,1438.113905156507,None,1438.113905156507,None,h,,,,,,,,,,,,,,,,,,,,,,,,,,,,,,,,,,,,,,,,,,,,,,,55_56Exp,001,2021_May_19_1853,ComputerHuman,2020.1.3,59.990262395744224,
Human.xlsx,h,Sychronize.jpg,Number10.jpg,10,Human,,,,,0,6,6,6,0,6,6,8,,,,,,,,,,,,,,,,,,,,,,,,,,,,,1439.1806426322228,None,1439.1806426322228,None,1439.6138397153436,None,1439.6138397153436,None,v,8.397143493223666,1439.6138397153436,None,t,9.799898566197044,1439.6138397153436,None,8.397143493223666,9.799898566197044,9.681015793065283,False,False,False,1449.496372506499,None,1449.496372506499,None,1449.496372506499,None,1449.496372506499,None,1449.496372506499,None,1449.496372506499,None,1449.496372506499,None,1449.496372506499,None,1450.497250187983,None,1450.497250187983,None,1451.4945757616197,None,1451.4945757616197,None,h,,,,,,,,,,,,,,,,,,,,,,,,,,,,,,,,,,,,,,,,,,,,,,,55_56Exp,001,2021_May_19_1853,ComputerHuman,2020.1.3,59.990262395744224,
Human.xlsx,h,Sychronize.jpg,Number6.jpg,6,Human,,,,,0,6,6,6,0,7,7,0,,,,,,,,,,,,,,,,,,,,,,,,,,,,,1452.5445439392497,None,1452.5445439392497,None,1452.994744176378,None,1452.994744176378,None,v,5.543838842794685,1452.994744176378,None,t,5.471346073401946,1452.994744176378,None,5.543838842794685,5.471346073401946,5.7856950611671465,True,False,False,1458.6263024074642,None,1458.6263024074642,None,1458.6263024074642,None,1458.6263024074642,None,1458.6263024074642,None,1458.6263024074642,None,1458.6263024074642,None,1458.6263024074642,None,1459.5950410996165,None,1459.5950410996165,None,1460.5926239468463,None,1460.5926239468463,None,h,,,,,,,,,,,,,,,,,,,,,,,,,,,,,,,,,,,,,,,,,,,,,,,55_56Exp,001,2021_May_19_1853,ComputerHuman,2020.1.3,59.990262395744224,
Human.xlsx,h,Sychronize.jpg,Number9.jpg,9,Human,,,,,0,6,6,6,0,8,8,6,,,,,,,,,,,,,,,,,,,,,,,,,,,,,1461.676885218766,None,1461.676885218766,None,1462.1093611659298,None,1462.1093611659298,None,v,8.136768823316743,1462.1093611659298,None,t,8.788222451194997,1462.1093611659298,None,8.136768823316743,8.788222451194997,9.326096509572714,False,False,False,1470.9904516851739,None,1470.9904516851739,None,1470.9904516851739,None,1470.9904516851739,None,1470.9904516851739,None,1470.9904516851739,None,1470.9904516851739,None,1470.9904516851739,None,1471.959307786472,None,1471.959307786472,None,1472.956750448464,None,1472.956750448464,None,h,,,,,,,,,,,,,,,,,,,,,,,,,,,,,,,,,,,,,,,,,,,,,,,55_56Exp,001,2021_May_19_1853,ComputerHuman,2020.1.3,59.990262395744224,
Human.xlsx,h,Sychronize.jpg,Number6.jpg,6,Human,,,,,0,6,6,6,0,9,9,1,,,,,,,,,,,,,,,,,,,,,,,,,,,,,1474.007058663511,None,1474.007058663511,None,1474.4567979253861,None,1474.4567979253861,None,v,5.516960488935183,1474.4567979253861,None,t,5.156107328640246,1474.4567979253861,None,5.516960488935183,5.156107328640246,6.201775604695317,False,False,False,1480.071956087696,None,1480.071956087696,None,1480.071956087696,None,1480.071956087696,None,1480.071956087696,None,1480.071956087696,None,1480.071956087696,None,1480.071956087696,None,1481.0566739721244,None,1481.0566739721244,None,1482.0547598180992,None,1482.0547598180992,None,h,,,,,,,,,,,,,,,,,,,,,,,,,,,,,,,,,,,,,,,,,,,,,,,55_56Exp,001,2021_May_19_1853,ComputerHuman,2020.1.3,59.990262395744224,
Human.xlsx,h,,,,,,,,,0,6,6,6,,,,,,,,,,,,,,,,,,,,,,,,,,,,,,,,,,,,,,,,,,,,,,,,,,,,,,,,,,,,,,,,,,,,,,,,,,,,,,,h,1483.0553866417904,None,1483.0553866417904,None,a,0,3.378175821158038,1483.0553866417904,None,l,0,6.473046902066017,1483.0553866417904,None,c,c,1489.6205079774054,None,1489.6205079774054,None,1491.6029020589585,None,None,None,None,None,None,None,None,,,,,,,,,,,,,,,,,,55_56Exp,001,2021_May_19_1853,ComputerHuman,2020.1.3,59.990262395744224,
Human.xlsx,h,Sychronize.jpg,Number10.jpg,10,Human,,,,,0,7,7,8,0,0,0,8,,,,,,,,,,,,,,,,,,,,,,,,,1496.6222408850717,None,1496.6222408850717,None,1499.6852937666645,None,1499.6852937666645,None,1500.134862047461,None,1500.134862047461,None,v,8.901802647415934,1500.134862047461,None,t,11.337126889132378,1500.134862047461,None,8.901802647415934,11.337126889132378,9.550173090981728,False,False,False,1511.5821472657135,None,1511.5821472657135,None,1511.5821472657135,None,1511.5821472657135,None,1511.5821472657135,None,1511.5821472657135,None,1511.5821472657135,None,1511.5821472657135,None,1512.5679452501263,None,1512.5679452501263,None,1513.565052686552,None,1513.565052686552,None,h,,,,,,,,,,,,,,,,,,,,,,,,,,,,,,,,,,,,,,,,,,,,,,,55_56Exp,001,2021_May_19_1853,ComputerHuman,2020.1.3,59.990262395744224,
Human.xlsx,h,Sychronize.jpg,Number9.jpg,9,Human,,,,,0,7,7,8,0,1,1,6,,,,,,,,,,,,,,,,,,,,,,,,,,,,,1514.6148117090916,None,1514.6148117090916,None,1515.065024136241,None,1515.065024136241,None,v,8.207146303344416,1515.065024136241,None,t,8.469955448682413,1515.065024136241,None,8.207146303344416,8.469955448682413,9.221249043005308,True,False,False,1523.6148367307133,None,1523.6148367307133,None,1523.6148367307133,None,1523.6148367307133,None,1523.6148367307133,None,1523.6148367307133,None,1523.6148367307133,None,1523.6148367307133,None,1524.5981611033121,None,1524.5981611033121,None,1525.5959370661312,None,1525.5959370661312,None,h,,,,,,,,,,,,,,,,,,,,,,,,,,,,,,,,,,,,,,,,,,,,,,,55_56Exp,001,2021_May_19_1853,ComputerHuman,2020.1.3,59.990262395744224,
Human.xlsx,h,Sychronize.jpg,Number10.jpg,10,Human,,,,,0,7,7,8,0,2,2,9,,,,,,,,,,,,,,,,,,,,,,,,,,,,,1526.6460181618477,None,1526.6460181618477,None,1527.0957211744508,None,1527.0957211744508,None,v,9.03592302836023,1527.0957211744508,None,t,8.80293580606849,1527.0957211744508,None,9.03592302836023,8.80293580606849,9.495615959780162,True,False,False,1536.2270827612574,None,1536.2270827612574,None,1536.2270827612574,None,1536.2270827612574,None,1536.2270827612574,None,1536.2270827612574,None,1536.2270827612574,None,1536.2270827612574,None,1537.2130013627157,None,1537.2130013627157,None,1538.1933103091642,None,1538.1933103091642,None,h,,,,,,,,,,,,,,,,,,,,,,,,,,,,,,,,,,,,,,,,,,,,,,,55_56Exp,001,2021_May_19_1853,ComputerHuman,2020.1.3,59.990262395744224,
Human.xlsx,h,Sychronize.jpg,Number6.jpg,6,Human,,,,,0,7,7,8,0,3,3,0,,,,,,,,,,,,,,,,,,,,,,,,,,,,,1539.2601886116972,None,1539.2601886116972,None,1539.693074207713,None,1539.693074207713,None,v,5.382288349162991,1539.693074207713,None,t,5.29310070496831,1539.693074207713,None,5.382288349162991,5.29310070496831,6.299113056217275,True,False,False,1545.1585113290203,None,1545.1585113290203,None,1545.1585113290203,None,1545.1585113290203,None,1545.1585113290203,None,1545.1585113290203,None,1545.1585113290203,None,1545.1585113290203,None,1546.1429433895437,None,1546.1429433895437,None,1547.1415168363428,None,1547.1415168363428,None,h,,,,,,,,,,,,,,,,,,,,,,,,,,,,,,,,,,,,,,,,,,,,,,,55_56Exp,001,2021_May_19_1853,ComputerHuman,2020.1.3,59.990262395744224,
Human.xlsx,h,Sychronize.jpg,Number7.jpg,7,Human,,,,,0,7,7,8,0,4,4,3,,,,,,,,,,,,,,,,,,,,,,,,,,,,,1548.191788802118,None,1548.191788802118,None,1548.641755824905,None,1548.641755824905,None,v,5.901215922475785,1548.641755824905,None,t,7.283995080363638,1548.641755824905,None,5.901215922475785,7.283995080363638,7.2685107326508085,False,False,False,1556.0077862152675,None,1556.0077862152675,None,1556.0077862152675,None,1556.0077862152675,None,1556.0077862152675,None,1556.0077862152675,None,1556.0077862152675,None,1556.0077862152675,None,1556.9926218296323,None,1556.9926218296323,None,1557.989257704734,None,1557.989257704734,None,h,,,,,,,,,,,,,,,,,,,,,,,,,,,,,,,,,,,,,,,,,,,,,,,55_56Exp,001,2021_May_19_1853,ComputerHuman,2020.1.3,59.990262395744224,
Human.xlsx,h,Sychronize.jpg,Number9.jpg,9,Human,,,,,0,7,7,8,0,5,5,7,,,,,,,,,,,,,,,,,,,,,,,,,,,,,1559.056545656118,None,1559.056545656118,None,1559.4886562234542,None,1559.4886562234542,None,v,8.12185497468272,1559.4886562234542,None,t,9.336943397242976,1559.4886562234542,None,8.12185497468272,9.336943397242976,8.477303781534351,False,False,False,1568.9202827186564,None,1568.9202827186564,None,1568.9202827186564,None,1568.9202827186564,None,1568.9202827186564,None,1568.9202827186564,None,1568.9202827186564,None,1568.9202827186564,None,1569.90549878998,None,1569.90549878998,None,1570.8865898224876,None,1570.8865898224876,None,h,,,,,,,,,,,,,,,,,,,,,,,,,,,,,,,,,,,,,,,,,,,,,,,55_56Exp,001,2021_May_19_1853,ComputerHuman,2020.1.3,59.990262395744224,
Human.xlsx,h,Sychronize.jpg,Number8.jpg,8,Human,,,,,0,7,7,8,0,6,6,4,,,,,,,,,,,,,,,,,,,,,,,,,,,,,1571.936984650839,None,1571.936984650839,None,1572.3863768179172,None,1572.3863768179172,None,v,7.351624352325416,1572.3863768179172,None,t,7.962963830284025,1572.3863768179172,None,7.351624352325416,7.962963830284025,7.822414231226347,False,False,False,1580.4346104839306,None,1580.4346104839306,None,1580.4346104839306,None,1580.4346104839306,None,1580.4346104839306,None,1580.4346104839306,None,1580.4346104839306,None,1580.4346104839306,None,1581.4199782889318,None,1581.4199782889318,None,1582.4175813459324,None,1582.4175813459324,None,h,,,,,,,,,,,,,,,,,,,,,,,,,,,,,,,,,,,,,,,,,,,,,,,55_56Exp,001,2021_May_19_1853,ComputerHuman,2020.1.3,59.990262395744224,
Human.xlsx,h,Sychronize.jpg,Number6.jpg,6,Human,,,,,0,7,7,8,0,7,7,1,,,,,,,,,,,,,,,,,,,,,,,,,,,,,1583.4676611584882,None,1583.4676611584882,None,1583.9177183232687,None,1583.9177183232687,None,v,5.047988582441576,1583.9177183232687,None,t,5.2790728783593295,1583.9177183232687,None,5.047988582441576,5.2790728783593295,6.286872552034948,True,False,False,1589.2827597180121,None,1589.2827597180121,None,1589.2827597180121,None,1589.2827597180121,None,1589.2827597180121,None,1589.2827597180121,None,1589.2827597180121,None,1589.2827597180121,None,1590.251441630331,None,1590.251441630331,None,1591.2490286478314,None,1591.2490286478314,None,h,,,,,,,,,,,,,,,,,,,,,,,,,,,,,,,,,,,,,,,,,,,,,,,55_56Exp,001,2021_May_19_1853,ComputerHuman,2020.1.3,59.990262395744224,
Human.xlsx,h,Sychronize.jpg,Number8.jpg,8,Human,,,,,0,7,7,8,0,8,8,5,,,,,,,,,,,,,,,,,,,,,,,,,,,,,1592.2993496944791,None,1592.2993496944791,None,1592.7493032440852,None,1592.7493032440852,None,v,7.252005899969845,1592.7493032440852,None,t,8.05900258685142,1592.7493032440852,None,7.252005899969845,8.05900258685142,7.601146364007136,False,False,False,1600.8970742025795,None,1600.8970742025795,None,1600.8970742025795,None,1600.8970742025795,None,1600.8970742025795,None,1600.8970742025795,None,1600.8970742025795,None,1600.8970742025795,None,1601.8822575533213,None,1601.8822575533213,None,1602.879908087244,None,1602.879908087244,None,h,,,,,,,,,,,,,,,,,,,,,,,,,,,,,,,,,,,,,,,,,,,,,,,55_56Exp,001,2021_May_19_1853,ComputerHuman,2020.1.3,59.990262395744224,
Human.xlsx,h,Sychronize.jpg,Number7.jpg,7,Human,,,,,0,7,7,8,0,9,9,2,,,,,,,,,,,,,,,,,,,,,,,,,,,,,1603.9299247041672,None,1603.9299247041672,None,1604.3636122752223,None,1604.3636122752223,None,v,6.1492597449587265,1604.3636122752223,None,t,6.089112579331413,1604.3636122752223,None,6.1492597449587265,6.089112579331413,6.6636216305660065,True,False,False,1610.6117532970793,None,1610.6117532970793,None,1610.6117532970793,None,1610.6117532970793,None,1610.6117532970793,None,1610.6117532970793,None,1610.6117532970793,None,1610.6117532970793,None,1611.5972561546769,None,1611.5972561546769,None,1612.5946863058589,None,1612.5946863058589,None,h,,,,,,,,,,,,,,,,,,,,,,,,,,,,,,,,,,,,,,,,,,,,,,,55_56Exp,001,2021_May_19_1853,ComputerHuman,2020.1.3,59.990262395744224,
Human.xlsx,h,,,,,,,,,0,7,7,8,,,,,,,,,,,,,,,,,,,,,,,,,,,,,,,,,,,,,,,,,,,,,,,,,,,,,,,,,,,,,,,,,,,,,,,,,,,,,,,h,1613.595641939317,None,1613.595641939317,None,q,0,1.9570426881691674,1613.595641939317,None,o,1,6.16399780066331,1613.595641939317,None,h,h,1619.8598542201844,None,1619.8598542201844,None,1621.8261013362826,None,None,None,None,None,None,None,None,,,,,,,,,,,,,,,,,,55_56Exp,001,2021_May_19_1853,ComputerHuman,2020.1.3,59.990262395744224,
Computer.xlsx,c,Sychronize.jpg,Number6.jpg,6,Computer,,,,,0,8,8,7,0,0,0,0,,,,,,,,,,,,,,,,,,,,,,,,,1626.828116218373,None,1626.828116218373,None,1629.9248225389629,None,1629.9248225389629,None,1630.3579775985909,None,1630.3579775985909,None,v,4.625985466928796,1630.3579775985909,None,t,5.84505457279738,1630.3579775985909,None,4.625985466928796,5.84505457279738,5.729623598640027,False,False,True,1636.289924242229,None,1636.289924242229,None,1636.289924242229,None,1636.289924242229,None,1636.289924242229,None,1636.289924242229,None,1636.289924242229,None,1636.289924242229,None,1637.3062168463512,None,1637.3062168463512,None,1638.272715782612,None,1638.272715782612,None,c,,,,,,,,,,,,,,,,,,,,,,,,,,,,,,,,,,,,,,,,,,,,,,,55_56Exp,001,2021_May_19_1853,ComputerHuman,2020.1.3,59.990262395744224,
Computer.xlsx,c,Sychronize.jpg,Number9.jpg,9,Computer,,,,,0,8,8,7,0,1,1,6,,,,,,,,,,,,,,,,,,,,,,,,,,,,,1639.3393765895144,None,1639.3393765895144,None,1639.772439582408,None,1639.772439582408,None,v,7.835025714527546,1639.772439582408,None,t,8.39792269217287,1639.772439582408,None,7.835025714527546,8.39792269217287,8.444584562214292,False,False,True,1648.2389009862363,None,1648.2389009862363,None,1648.2389009862363,None,1648.2389009862363,None,1648.2389009862363,None,1648.2389009862363,None,1648.2389009862363,None,1648.2389009862363,None,1649.2536736872626,None,1649.2536736872626,None,1650.2368966902168,None,1650.2368966902168,None,c,,,,,,,,,,,,,,,,,,,,,,,,,,,,,,,,,,,,,,,,,,,,,,,55_56Exp,001,2021_May_19_1853,ComputerHuman,2020.1.3,59.990262395744224,
Computer.xlsx,c,Sychronize.jpg,Number10.jpg,10,Computer,,,,,0,8,8,7,0,2,2,9,,,,,,,,,,,,,,,,,,,,,,,,,,,,,1651.287097119819,None,1651.287097119819,None,1651.7369149752476,None,1651.7369149752476,None,v,8.690129676156175,1651.7369149752476,None,t,8.796948902000622,1651.7369149752476,None,8.690129676156175,8.796948902000622,9.441546523747304,False,False,False,1660.6013231304996,None,1660.6013231304996,None,1660.6013231304996,None,1660.6013231304996,None,1660.6013231304996,None,1660.6013231304996,None,1660.6013231304996,None,1660.6013231304996,None,1661.6177915275503,None,1661.6177915275503,None,1662.6011181456797,None,1662.6011181456797,None,c,,,,,,,,,,,,,,,,,,,,,,,,,,,,,,,,,,,,,,,,,,,,,,,55_56Exp,001,2021_May_19_1853,ComputerHuman,2020.1.3,59.990262395744224,
Computer.xlsx,c,Sychronize.jpg,Number6.jpg,6,Computer,,,,,0,8,8,7,0,3,3,1,,,,,,,,,,,,,,,,,,,,,,,,,,,,,1663.6508662613587,None,1663.6508662613587,None,1664.1012127787344,None,1664.1012127787344,None,v,5.129491381014304,1664.1012127787344,None,t,4.973098549258793,1664.1012127787344,None,5.129491381014304,4.973098549258793,5.9897824081841815,False,False,False,1669.301416544552,None,1669.301416544552,None,1669.301416544552,None,1669.301416544552,None,1669.301416544552,None,1669.301416544552,None,1669.301416544552,None,1669.301416544552,None,1670.3161003867444,None,1670.3161003867444,None,1671.2824020371445,None,1671.2824020371445,None,c,,,,,,,,,,,,,,,,,,,,,,,,,,,,,,,,,,,,,,,,,,,,,,,55_56Exp,001,2021_May_19_1853,ComputerHuman,2020.1.3,59.990262395744224,
Computer.xlsx,c,Sychronize.jpg,Number8.jpg,8,Computer,,,,,0,8,8,7,0,4,4,5,,,,,,,,,,,,,,,,,,,,,,,,,,,,,1672.349616206825,None,1672.349616206825,None,1672.7827658130227,None,1672.7827658130227,None,v,7.135525762004363,1672.7827658130227,None,t,8.302975263240114,1672.7827658130227,None,7.135525762004363,8.302975263240114,7.632671206550983,False,False,False,1681.180490898545,None,1681.180490898545,None,1681.180490898545,None,1681.180490898545,None,1681.180490898545,None,1681.180490898545,None,1681.180490898545,None,1681.180490898545,None,1682.180357449899,None,1682.180357449899,None,1683.1635352214607,None,1683.1635352214607,None,c,,,,,,,,,,,,,,,,,,,,,,,,,,,,,,,,,,,,,,,,,,,,,,,55_56Exp,001,2021_May_19_1853,ComputerHuman,2020.1.3,59.990262395744224,
Computer.xlsx,c,Sychronize.jpg,Number10.jpg,10,Computer,,,,,0,8,8,7,0,5,5,8,,,,,,,,,,,,,,,,,,,,,,,,,,,,,1684.230628774094,None,1684.230628774094,None,1684.6638377264453,None,1684.6638377264453,None,v,9.249875212683946,1684.6638377264453,None,t,9.920926223428978,1684.6638377264453,None,9.249875212683946,9.920926223428978,9.883223066374494,False,False,True,1694.6777535973388,None,1694.6777535973388,None,1694.6777535973388,None,1694.6777535973388,None,1694.6777535973388,None,1694.6777535973388,None,1694.6777535973388,None,1694.6777535973388,None,1695.6774895871558,None,1695.6774895871558,None,1696.6606891724387,None,1696.6606891724387,None,c,,,,,,,,,,,,,,,,,,,,,,,,,,,,,,,,,,,,,,,,,,,,,,,55_56Exp,001,2021_May_19_1853,ComputerHuman,2020.1.3,59.990262395744224,
Computer.xlsx,c,Sychronize.jpg,Number7.jpg,7,Computer,,,,,0,8,8,7,0,6,6,3,,,,,,,,,,,,,,,,,,,,,,,,,,,,,1697.7104257396777,None,1697.7104257396777,None,1698.1605130587195,None,1698.1605130587195,None,v,6.372875086934073,1698.1605130587195,None,t,7.0960406813064765,1698.1605130587195,None,6.372875086934073,7.0960406813064765,7.493743279329727,False,False,False,1705.3266967225527,None,1705.3266967225527,None,1705.3266967225527,None,1705.3266967225527,None,1705.3266967225527,None,1705.3266967225527,None,1705.3266967225527,None,1705.3266967225527,None,1706.3253628776656,None,1706.3253628776656,None,1707.308366460249,None,1707.308366460249,None,c,,,,,,,,,,,,,,,,,,,,,,,,,,,,,,,,,,,,,,,,,,,,,,,55_56Exp,001,2021_May_19_1853,ComputerHuman,2020.1.3,59.990262395744224,
Computer.xlsx,c,Sychronize.jpg,Number9.jpg,9,Computer,,,,,0,8,8,7,0,7,7,7,,,,,,,,,,,,,,,,,,,,,,,,,,,,,1708.3750263047814,None,1708.3750263047814,None,1708.8086157140915,None,1708.8086157140915,None,v,9.116237620713036,1708.8086157140915,None,t,9.131892815073115,1708.8086157140915,None,9.116237620713036,9.131892815073115,9.448258305479202,False,False,False,1718.0229085774117,None,1718.0229085774117,None,1718.0229085774117,None,1718.0229085774117,None,1718.0229085774117,None,1718.0229085774117,None,1718.0229085774117,None,1718.0229085774117,None,1719.0393532360013,None,1719.0393532360013,None,1720.0058916294329,None,1720.0058916294329,None,c,,,,,,,,,,,,,,,,,,,,,,,,,,,,,,,,,,,,,,,,,,,,,,,55_56Exp,001,2021_May_19_1853,ComputerHuman,2020.1.3,59.990262395744224,
Computer.xlsx,c,Sychronize.jpg,Number7.jpg,7,Computer,,,,,0,8,8,7,0,8,8,2,,,,,,,,,,,,,,,,,,,,,,,,,,,,,1721.072475446732,None,1721.072475446732,None,1721.5058229803699,None,1721.5058229803699,None,v,5.902671988359543,1721.5058229803699,None,t,6.9460325332402135,1721.5058229803699,None,5.902671988359543,6.9460325332402135,7.347667371002922,False,False,False,1728.537394492163,None,1728.537394492163,None,1728.537394492163,None,1728.537394492163,None,1728.537394492163,None,1728.537394492163,None,1728.537394492163,None,1728.537394492163,None,1729.5371641649317,None,1729.5371641649317,None,1730.5202999130015,None,1730.5202999130015,None,c,,,,,,,,,,,,,,,,,,,,,,,,,,,,,,,,,,,,,,,,,,,,,,,55_56Exp,001,2021_May_19_1853,ComputerHuman,2020.1.3,59.990262395744224,
Computer.xlsx,c,Sychronize.jpg,Number8.jpg,8,Computer,,,,,0,8,8,7,0,9,9,4,,,,,,,,,,,,,,,,,,,,,,,,,,,,,1731.5701606259763,None,1731.5701606259763,None,1732.0205636023948,None,1732.0205636023948,None,v,6.983484767607479,1732.0205636023948,None,t,7.575013858127932,1732.0205636023948,None,6.983484767607479,7.575013858127932,8.375653795029372,False,False,False,1739.6851612803885,None,1739.6851612803885,None,1739.6851612803885,None,1739.6851612803885,None,1739.6851612803885,None,1739.6851612803885,None,1739.6851612803885,None,1739.6851612803885,None,1740.6683095392682,None,1740.6683095392682,None,1741.6514199449266,None,1741.6514199449266,None,c,,,,,,,,,,,,,,,,,,,,,,,,,,,,,,,,,,,,,,,,,,,,,,,55_56Exp,001,2021_May_19_1853,ComputerHuman,2020.1.3,59.990262395744224,
Computer.xlsx,c,,,,,,,,,0,8,8,7,,,,,,,,,,,,,,,,,,,,,,,,,,,,,,,,,,,,,,,,,,,,,,,,,,,,,,,,,,,,,,,,,,,,,,,,,,,,,,,c,1742.6518004018853,None,1742.6518004018853,None,a,0,1.824546467075379,1742.6518004018853,None,o,0,3.6311370337962217,1742.6518004018853,None,c,h,1746.3672602992838,None,1746.3672602992838,None,1748.3666504774637,None,None,None,None,None,None,None,None,,,,,,,,,,,,,,,,,,55_56Exp,001,2021_May_19_1853,ComputerHuman,2020.1.3,59.990262395744224,
Computer.xlsx,c,Sychronize.jpg,Number7.jpg,7,Computer,,,,,0,9,9,3,0,0,0,2,,,,,,,,,,,,,,,,,,,,,,,,,1753.3685954273305,None,1753.3685954273305,None,1756.432171838229,None,1756.432171838229,None,1756.8652986683364,None,1756.8652986683364,None,v,5.525930740152944,1756.8652986683364,None,t,5.125079555924458,1756.8652986683364,None,5.525930740152944,5.125079555924458,6.6663395064867625,False,False,False,1762.4804423950945,None,1762.4804423950945,None,1762.4804423950945,None,1762.4804423950945,None,1762.4804423950945,None,1762.4804423950945,None,1762.4804423950945,None,1762.4804423950945,None,1763.4968729389238,None,1763.4968729389238,None,1764.4799964969725,None,1764.4799964969725,None,c,,,,,,,,,,,,,,,,,,,,,,,,,,,,,,,,,,,,,,,,,,,,,,,55_56Exp,001,2021_May_19_1853,ComputerHuman,2020.1.3,59.990262395744224,
Computer.xlsx,c,Sychronize.jpg,Number10.jpg,10,Computer,,,,,0,9,9,3,0,1,1,9,,,,,,,,,,,,,,,,,,,,,,,,,,,,,1765.5305029602496,None,1765.5305029602496,None,1765.9799429250397,None,1765.9799429250397,None,v,9.286782104022677,1765.9799429250397,None,t,10.277892691890884,1765.9799429250397,None,9.286782104022677,10.277892691890884,9.975708231481203,False,False,False,1776.344251635387,None,1776.344251635387,None,1776.344251635387,None,1776.344251635387,None,1776.344251635387,None,1776.344251635387,None,1776.344251635387,None,1776.344251635387,None,1777.3273646073658,None,1777.3273646073658,None,1778.327206137098,None,1778.327206137098,None,c,,,,,,,,,,,,,,,,,,,,,,,,,,,,,,,,,,,,,,,,,,,,,,,55_56Exp,001,2021_May_19_1853,ComputerHuman,2020.1.3,59.990262395744224,
Computer.xlsx,c,Sychronize.jpg,Number6.jpg,6,Computer,,,,,0,9,9,3,0,2,2,0,,,,,,,,,,,,,,,,,,,,,,,,,,,,,1779.3772843457036,None,1779.3772843457036,None,1779.8273610786755,None,1779.8273610786755,None,v,5.294999461072621,1779.8273610786755,None,t,5.3740831821342,1779.8273610786755,None,5.294999461072621,5.3740831821342,5.886099228932599,False,False,False,1785.2922878230675,None,1785.2922878230675,None,1785.2922878230675,None,1785.2922878230675,None,1785.2922878230675,None,1785.2922878230675,None,1785.2922878230675,None,1785.2922878230675,None,1786.2921453923,None,1786.2921453923,None,1787.258700466813,None,1787.258700466813,None,c,,,,,,,,,,,,,,,,,,,,,,,,,,,,,,,,,,,,,,,,,,,,,,,55_56Exp,001,2021_May_19_1853,ComputerHuman,2020.1.3,59.990262395744224,
Computer.xlsx,c,Sychronize.jpg,Number8.jpg,8,Computer,,,,,0,9,9,3,0,3,3,5,,,,,,,,,,,,,,,,,,,,,,,,,,,,,1788.325186122367,None,1788.325186122367,None,1788.7590020094285,None,1788.7590020094285,None,v,7.182934356097576,1788.7590020094285,None,t,7.013979387316795,1788.7590020094285,None,7.182934356097576,7.013979387316795,8.223635528231583,False,False,False,1796.0229448266837,None,1796.0229448266837,None,1796.0229448266837,None,1796.0229448266837,None,1796.0229448266837,None,1796.0229448266837,None,1796.0229448266837,None,1796.0229448266837,None,1797.0399502262208,None,1797.0399502262208,None,1798.0231077880117,None,1798.0231077880117,None,c,,,,,,,,,,,,,,,,,,,,,,,,,,,,,,,,,,,,,,,,,,,,,,,55_56Exp,001,2021_May_19_1853,ComputerHuman,2020.1.3,59.990262395744224,
Computer.xlsx,c,Sychronize.jpg,Number9.jpg,9,Computer,,,,,0,9,9,3,0,4,4,7,,,,,,,,,,,,,,,,,,,,,,,,,,,,,1799.0726018379983,None,1799.0726018379983,None,1799.523454241229,None,1799.523454241229,None,v,8.790119924139617,1799.523454241229,None,t,10.548861772865166,1799.523454241229,None,8.790119924139617,10.548861772865166,8.734627536414367,False,True,False,1810.1393370681844,None,1810.1393370681844,None,1810.1393370681844,None,1810.1393370681844,None,1810.1393370681844,None,1810.1393370681844,None,1810.1393370681844,None,1810.1393370681844,None,1811.1704646065955,None,1811.1704646065955,None,1812.1535641053933,None,1812.1535641053933,None,c,,,,,,,,,,,,,,,,,,,,,,,,,,,,,,,,,,,,,,,,,,,,,,,55_56Exp,001,2021_May_19_1853,ComputerHuman,2020.1.3,59.990262395744224,
Computer.xlsx,c,Sychronize.jpg,Number10.jpg,10,Computer,,,,,0,9,9,3,0,5,5,8,,,,,,,,,,,,,,,,,,,,,,,,,,,,,1813.2041257445535,None,1813.2041257445535,None,1813.653781601024,None,1813.653781601024,None,v,9.263208528907853,1813.653781601024,None,t,9.56694085658637,1813.653781601024,None,9.263208528907853,9.56694085658637,9.97889980019429,False,False,False,1823.3179523075069,None,1823.3179523075069,None,1823.3179523075069,None,1823.3179523075069,None,1823.3179523075069,None,1823.3179523075069,None,1823.3179523075069,None,1823.3179523075069,None,1824.3009645514194,None,1824.3009645514194,None,1825.284178572253,None,1825.284178572253,None,c,,,,,,,,,,,,,,,,,,,,,,,,,,,,,,,,,,,,,,,,,,,,,,,55_56Exp,001,2021_May_19_1853,ComputerHuman,2020.1.3,59.990262395744224,
Computer.xlsx,c,Sychronize.jpg,Number7.jpg,7,Computer,,,,,0,9,9,3,0,6,6,3,,,,,,,,,,,,,,,,,,,,,,,,,,,,,1826.3346131785665,None,1826.3346131785665,None,1826.784090996579,None,1826.784090996579,None,v,7.14046175798012,1826.784090996579,None,t,7.088460734018554,1826.784090996579,None,7.14046175798012,7.088460734018554,6.893171509504855,False,True,True,1834.015753356105,None,1834.015753356105,None,1834.015753356105,None,1834.015753356105,None,1834.015753356105,None,1834.015753356105,None,1834.015753356105,None,1834.015753356105,None,1835.0155217457132,None,1835.0155217457132,None,1835.9986655135335,None,1835.9986655135335,None,c,,,,,,,,,,,,,,,,,,,,,,,,,,,,,,,,,,,,,,,,,,,,,,,55_56Exp,001,2021_May_19_1853,ComputerHuman,2020.1.3,59.990262395744224,
Computer.xlsx,c,Sychronize.jpg,Number8.jpg,8,Computer,,,,,0,9,9,3,0,7,7,4,,,,,,,,,,,,,,,,,,,,,,,,,,,,,1837.048176886181,None,1837.048176886181,None,1837.4822606329053,None,1837.4822606329053,None,v,7.045893182056716,1837.4822606329053,None,t,7.281023923235807,1837.4822606329053,None,7.045893182056716,7.281023923235807,8.420353630804257,False,False,False,1844.8317267100028,None,1844.8317267100028,None,1844.8317267100028,None,1844.8317267100028,None,1844.8317267100028,None,1844.8317267100028,None,1844.8317267100028,None,1844.8317267100028,None,1845.8465853827538,None,1845.8465853827538,None,1846.8297782314457,None,1846.8297782314457,None,c,,,,,,,,,,,,,,,,,,,,,,,,,,,,,,,,,,,,,,,,,,,,,,,55_56Exp,001,2021_May_19_1853,ComputerHuman,2020.1.3,59.990262395744224,
Computer.xlsx,c,Sychronize.jpg,Number9.jpg,9,Computer,,,,,0,9,9,3,0,8,8,6,,,,,,,,,,,,,,,,,,,,,,,,,,,,,1847.8799587720669,None,1847.8799587720669,None,1848.3297663622152,None,1848.3297663622152,None,v,8.145933473283549,1848.3297663622152,None,t,9.021413054357254,1848.3297663622152,None,8.145933473283549,9.021413054357254,8.92501707958277,False,False,True,1857.4289992249714,None,1857.4289992249714,None,1857.4289992249714,None,1857.4289992249714,None,1857.4289992249714,None,1857.4289992249714,None,1857.4289992249714,None,1857.4289992249714,None,1858.427191252441,None,1858.427191252441,None,1859.4104758470776,None,1859.4104758470776,None,c,,,,,,,,,,,,,,,,,,,,,,,,,,,,,,,,,,,,,,,,,,,,,,,55_56Exp,001,2021_May_19_1853,ComputerHuman,2020.1.3,59.990262395744224,
Computer.xlsx,c,Sychronize.jpg,Number6.jpg,6,Computer,,,,,0,9,9,3,0,9,9,1,,,,,,,,,,,,,,,,,,,,,,,,,,,,,1860.493520683257,None,1860.493520683257,None,1860.9275569530591,None,1860.9275569530591,None,v,5.243787901340511,1860.9275569530591,None,t,5.943060734532082,1860.9275569530591,None,5.243787901340511,5.943060734532082,6.13236047360683,False,False,True,1866.9438874104035,None,1866.9438874104035,None,1866.9438874104035,None,1866.9438874104035,None,1866.9438874104035,None,1866.9438874104035,None,1866.9438874104035,None,1866.9438874104035,None,1867.9587091923022,None,1867.9587091923022,None,1868.941887926233,None,1868.941887926233,None,c,,,,,,,,,,,,,,,,,,,,,,,,,,,,,,,,,,,,,,,,,,,,,,,55_56Exp,001,2021_May_19_1853,ComputerHuman,2020.1.3,59.990262395744224,
Computer.xlsx,c,,,,,,,,,0,9,9,3,,,,,,,,,,,,,,,,,,,,,,,,,,,,,,,,,,,,,,,,,,,,,,,,,,,,,,,,,,,,,,,,,,,,,,,,,,,,,,,c,1869.9430572058418,None,1869.9430572058418,None,a,0,2.3405057703712373,1869.9430572058418,None,l,1,3.531138124481913,1869.9430572058418,None,c,c,1873.5410685002162,None,1873.5410685002162,None,None,None,1875.540559727251,None,1875.540559727251,None,"['space', 'space']",1876.5236598676292,None,"[188.40028370669006, 189.64022052388827]",,,,,,,,,,,,,,,,,55_56Exp,001,2021_May_19_1853,ComputerHuman,2020.1.3,59.990262395744224,
Human.xlsx,h,Sychronize.jpg,Number6.jpg,6,Human,,,,,1,0,10,0,0,0,0,0,,,,,,,,,,,,,,,,,,,,,,,,,2066.2210618534473,None,2066.2210618534473,None,2069.284398954994,None,2069.284398954994,None,2069.734417945763,None,2069.734417945763,None,v,5.593113793201155,2069.734417945763,None,t,6.272054955179556,2069.734417945763,None,5.593113793201155,6.272054955179556,5.604572536408386,False,False,False,2076.083794201656,None,2076.083794201656,None,2076.083794201656,None,2076.083794201656,None,2076.083794201656,None,2076.083794201656,None,2076.083794201656,None,2076.083794201656,None,2077.0845095633913,None,2077.0845095633913,None,2078.0987494322017,None,2078.0987494322017,None,h,,,,,,,,,,,,,,,,,,,,,,,,,,,,,,,,,,,,,,,,,,,,,,,55_56Exp,001,2021_May_19_1853,ComputerHuman,2020.1.3,59.990262395744224,
Human.xlsx,h,Sychronize.jpg,Number9.jpg,9,Human,,,,,1,0,10,0,0,1,1,7,,,,,,,,,,,,,,,,,,,,,,,,,,,,,2079.165113829129,None,2079.165113829129,None,2079.5991709502823,None,2079.5991709502823,None,v,7.535904101749111,2079.5991709502823,None,t,7.938996966609011,2079.5991709502823,None,7.535904101749111,7.938996966609011,8.552323195364936,False,False,False,2087.630074898053,None,2087.630074898053,None,2087.630074898053,None,2087.630074898053,None,2087.630074898053,None,2087.630074898053,None,2087.630074898053,None,2087.630074898053,None,2088.5993916538137,None,2088.5993916538137,None,2089.5963743029233,None,2089.5963743029233,None,h,,,,,,,,,,,,,,,,,,,,,,,,,,,,,,,,,,,,,,,,,,,,,,,55_56Exp,001,2021_May_19_1853,ComputerHuman,2020.1.3,59.990262395744224,
Human.xlsx,h,Sychronize.jpg,Number7.jpg,7,Human,,,,,1,0,10,0,0,2,2,3,,,,,,,,,,,,,,,,,,,,,,,,,,,,,2090.6467062564316,None,2090.6467062564316,None,2091.0966999047896,None,2091.0966999047896,None,v,6.321881343622408,2091.0966999047896,None,t,6.437065169133348,2091.0966999047896,None,6.321881343622408,6.437065169133348,7.052013778837694,True,False,False,2097.628039485401,None,2097.628039485401,None,2097.628039485401,None,2097.628039485401,None,2097.628039485401,None,2097.628039485401,None,2097.628039485401,None,2097.628039485401,None,2098.613685736136,None,2098.613685736136,None,2099.6109955910615,None,2099.6109955910615,None,h,,,,,,,,,,,,,,,,,,,,,,,,,,,,,,,,,,,,,,,,,,,,,,,55_56Exp,001,2021_May_19_1853,ComputerHuman,2020.1.3,59.990262395744224,
Human.xlsx,h,Sychronize.jpg,Number9.jpg,9,Human,,,,,1,0,10,0,0,3,3,6,,,,,,,,,,,,,,,,,,,,,,,,,,,,,2100.6613220911404,None,2100.6613220911404,None,2101.111254147814,None,2101.111254147814,None,v,7.9389911923890395,2101.111254147814,None,t,8.625971031377958,2101.111254147814,None,7.9389911923890395,8.625971031377958,9.31894113049874,False,False,False,2109.825559842736,None,2109.825559842736,None,2109.825559842736,None,2109.825559842736,None,2109.825559842736,None,2109.825559842736,None,2109.825559842736,None,2109.825559842736,None,2110.810897172685,None,2110.810897172685,None,2111.8084700754234,None,2111.8084700754234,None,h,,,,,,,,,,,,,,,,,,,,,,,,,,,,,,,,,,,,,,,,,,,,,,,55_56Exp,001,2021_May_19_1853,ComputerHuman,2020.1.3,59.990262395744224,
Human.xlsx,h,Sychronize.jpg,Number10.jpg,10,Human,,,,,1,0,10,0,0,4,4,9,,,,,,,,,,,,,,,,,,,,,,,,,,,,,2112.8588126150025,None,2112.8588126150025,None,2113.308710667936,None,2113.308710667936,None,v,9.865028242353219,2113.308710667936,None,t,10.315887061384274,2113.308710667936,None,9.865028242353219,10.315887061384274,10.279637158341599,False,False,False,2123.7226712569573,None,2123.7226712569573,None,2123.7226712569573,None,2123.7226712569573,None,2123.7226712569573,None,2123.7226712569573,None,2123.7226712569573,None,2123.7226712569573,None,2124.69141411938,None,2124.69141411938,None,2125.688971303408,None,2125.688971303408,None,h,,,,,,,,,,,,,,,,,,,,,,,,,,,,,,,,,,,,,,,,,,,,,,,55_56Exp,001,2021_May_19_1853,ComputerHuman,2020.1.3,59.990262395744224,
Human.xlsx,h,Sychronize.jpg,Number7.jpg,7,Human,,,,,1,0,10,0,0,5,5,2,,,,,,,,,,,,,,,,,,,,,,,,,,,,,2126.7724800019505,None,2126.7724800019505,None,2127.1889671331382,None,2127.1889671331382,None,v,6.396376484295615,2127.1889671331382,None,t,7.155965539453973,2127.1889671331382,None,6.396376484295615,7.155965539453973,6.883212773586344,False,False,False,2134.4218664589653,None,2134.4218664589653,None,2134.4218664589653,None,2134.4218664589653,None,2134.4218664589653,None,2134.4218664589653,None,2134.4218664589653,None,2134.4218664589653,None,2135.4226732458555,None,2135.4226732458555,None,2136.4200918485967,None,2136.4200918485967,None,h,,,,,,,,,,,,,,,,,,,,,,,,,,,,,,,,,,,,,,,,,,,,,,,55_56Exp,001,2021_May_19_1853,ComputerHuman,2020.1.3,59.990262395744224,
Human.xlsx,h,Sychronize.jpg,Number10.jpg,10,Human,,,,,1,0,10,0,0,6,6,8,,,,,,,,,,,,,,,,,,,,,,,,,,,,,2137.469964430803,None,2137.469964430803,None,2137.90349770186,None,2137.90349770186,None,v,8.749340134937484,2137.90349770186,None,t,7.764944323685086,2137.90349770186,None,8.749340134937484,7.764944323685086,10.087005501497893,False,False,False,2146.7512783482134,None,2146.7512783482134,None,2146.7512783482134,None,2146.7512783482134,None,2146.7512783482134,None,2146.7512783482134,None,2146.7512783482134,None,2146.7512783482134,None,2147.7367510515496,None,2147.7367510515496,None,2148.7342177727933,None,2148.7342177727933,None,h,,,,,,,,,,,,,,,,,,,,,,,,,,,,,,,,,,,,,,,,,,,,,,,55_56Exp,001,2021_May_19_1853,ComputerHuman,2020.1.3,59.990262395744224,
Human.xlsx,h,Sychronize.jpg,Number8.jpg,8,Human,,,,,1,0,10,0,0,7,7,5,,,,,,,,,,,,,,,,,,,,,,,,,,,,,2149.7846305653857,None,2149.7846305653857,None,2150.2343749599013,None,2150.2343749599013,None,v,7.409873082638114,2150.2343749599013,None,t,7.141017366287997,2150.2343749599013,None,7.409873082638114,7.141017366287997,8.242162916056197,True,False,False,2157.6988115371487,None,2157.6988115371487,None,2157.6988115371487,None,2157.6988115371487,None,2157.6988115371487,None,2157.6988115371487,None,2157.6988115371487,None,2157.6988115371487,None,2158.70043505542,None,2158.70043505542,None,2159.6986020612676,None,2159.6986020612676,None,h,,,,,,,,,,,,,,,,,,,,,,,,,,,,,,,,,,,,,,,,,,,,,,,55_56Exp,001,2021_May_19_1853,ComputerHuman,2020.1.3,59.990262395744224,
Human.xlsx,h,Sychronize.jpg,Number6.jpg,6,Human,,,,,1,0,10,0,0,8,8,1,,,,,,,,,,,,,,,,,,,,,,,,,,,,,2160.7658062864575,None,2160.7658062864575,None,2161.215251704678,None,2161.215251704678,None,v,5.592845291957929,2161.215251704678,None,t,5.3561009769982775,2161.215251704678,None,5.592845291957929,5.3561009769982775,6.372016217154794,True,False,False,2166.8970854302306,None,2166.8970854302306,None,2166.8970854302306,None,2166.8970854302306,None,2166.8970854302306,None,2166.8970854302306,None,2166.8970854302306,None,2166.8970854302306,None,2167.8825411316957,None,2167.8825411316957,None,2168.8800027202988,None,2168.8800027202988,None,h,,,,,,,,,,,,,,,,,,,,,,,,,,,,,,,,,,,,,,,,,,,,,,,55_56Exp,001,2021_May_19_1853,ComputerHuman,2020.1.3,59.990262395744224,
Human.xlsx,h,Sychronize.jpg,Number8.jpg,8,Human,,,,,1,0,10,0,0,9,9,4,,,,,,,,,,,,,,,,,,,,,,,,,,,,,2169.9303876041604,None,2169.9303876041604,None,2170.3636645639945,None,2170.3636645639945,None,v,7.356071143526606,2170.3636645639945,None,t,8.394957630054705,2170.3636645639945,None,7.356071143526606,8.394957630054705,8.147848482812352,False,False,False,2178.844682456379,None,2178.844682456379,None,2178.844682456379,None,2178.844682456379,None,2178.844682456379,None,2178.844682456379,None,2178.844682456379,None,2178.844682456379,None,2179.8296556896594,None,2179.8296556896594,None,2180.827520832103,None,2180.827520832103,None,h,,,,,,,,,,,,,,,,,,,,,,,,,,,,,,,,,,,,,,,,,,,,,,,55_56Exp,001,2021_May_19_1853,ComputerHuman,2020.1.3,59.990262395744224,
Human.xlsx,h,,,,,,,,,1,0,10,0,,,,,,,,,,,,,,,,,,,,,,,,,,,,,,,,,,,,,,,,,,,,,,,,,,,,,,,,,,,,,,,,,,,,,,,,,,,,,,,h,2181.8284129491376,None,2181.8284129491376,None,q,0,2.1590579552075724,2181.8284129491376,None,o,1,3.5621360637260295,2181.8284129491376,None,h,h,2185.460370243005,None,2185.460370243005,None,2187.459584307466,None,None,None,None,None,None,None,None,,,,,,,,,,,,,,,,,,55_56Exp,001,2021_May_19_1853,ComputerHuman,2020.1.3,59.990262395744224,
Human.xlsx,h,Sychronize.jpg,Number7.jpg,7,Human,,,,,1,1,11,4,0,0,0,2,,,,,,,,,,,,,,,,,,,,,,,,,2192.4606172513168,None,2192.4606172513168,None,2195.558065559214,None,2195.558065559214,None,2195.9916251350523,None,2195.9916251350523,None,v,6.279154679812564,2195.9916251350523,None,t,7.25449362654399,2195.9916251350523,None,6.279154679812564,7.25449362654399,6.769979165465469,False,False,False,2203.324969909896,None,2203.324969909896,None,2203.324969909896,None,2203.324969909896,None,2203.324969909896,None,2203.324969909896,None,2203.324969909896,None,2203.324969909896,None,2204.3419518917626,None,2204.3419518917626,None,2205.3225357552546,None,2205.3225357552546,None,h,,,,,,,,,,,,,,,,,,,,,,,,,,,,,,,,,,,,,,,,,,,,,,,55_56Exp,001,2021_May_19_1853,ComputerHuman,2020.1.3,59.990262395744224,
Human.xlsx,h,Sychronize.jpg,Number9.jpg,9,Human,,,,,1,1,11,4,0,1,1,7,,,,,,,,,,,,,,,,,,,,,,,,,,,,,2206.3723230073165,None,2206.3723230073165,None,2206.822454274591,None,2206.822454274591,None,v,8.372237677172052,2206.822454274591,None,t,6.439072352262883,2206.822454274591,None,8.372237677172052,6.439072352262883,8.705841154376047,False,False,False,2215.2871587115014,None,2215.2871587115014,None,2215.2871587115014,None,2215.2871587115014,None,2215.2871587115014,None,2215.2871587115014,None,2215.2871587115014,None,2215.2871587115014,None,2216.272603506106,None,2216.272603506106,None,2217.270113854792,None,2217.270113854792,None,h,,,,,,,,,,,,,,,,,,,,,,,,,,,,,,,,,,,,,,,,,,,,,,,55_56Exp,001,2021_May_19_1853,ComputerHuman,2020.1.3,59.990262395744224,
Human.xlsx,h,Sychronize.jpg,Number6.jpg,6,Human,,,,,1,1,11,4,0,2,2,1,,,,,,,,,,,,,,,,,,,,,,,,,,,,,2218.3041307488775,None,2218.3041307488775,None,2218.769959234004,None,2218.769959234004,None,v,5.511997867388345,2218.769959234004,None,t,4.859070209386118,2218.769959234004,None,5.511997867388345,4.859070209386118,6.434347065944564,False,False,False,2224.3536844658074,None,2224.3536844658074,None,2224.3536844658074,None,2224.3536844658074,None,2224.3536844658074,None,2224.3536844658074,None,2224.3536844658074,None,2224.3536844658074,None,2225.3372943415206,None,2225.3372943415206,None,2226.3349124756514,None,2226.3349124756514,None,h,,,,,,,,,,,,,,,,,,,,,,,,,,,,,,,,,,,,,,,,,,,,,,,55_56Exp,001,2021_May_19_1853,ComputerHuman,2020.1.3,59.990262395744224,
Human.xlsx,h,Sychronize.jpg,Number10.jpg,10,Human,,,,,1,1,11,4,0,3,3,8,,,,,,,,,,,,,,,,,,,,,,,,,,,,,2227.4015335045924,None,2227.4015335045924,None,2227.8515364558607,None,2227.8515364558607,None,v,9.353952967050645,2227.8515364558607,None,t,8.585011278976708,2227.8515364558607,None,9.353952967050645,8.585011278976708,10.60046747627757,False,False,False,2237.284020422775,None,2237.284020422775,None,2237.284020422775,None,2237.284020422775,None,2237.284020422775,None,2237.284020422775,None,2237.284020422775,None,2237.284020422775,None,2238.2677967885065,None,2238.2677967885065,None,2239.265589432407,None,2239.265589432407,None,h,,,,,,,,,,,,,,,,,,,,,,,,,,,,,,,,,,,,,,,,,,,,,,,55_56Exp,001,2021_May_19_1853,ComputerHuman,2020.1.3,59.990262395744224,
Human.xlsx,h,Sychronize.jpg,Number8.jpg,8,Human,,,,,1,1,11,4,0,4,4,4,,,,,,,,,,,,,,,,,,,,,,,,,,,,,2240.3162813123135,None,2240.3162813123135,None,2240.7657052376026,None,2240.7657052376026,None,v,7.179372945340219,2240.7657052376026,None,t,7.650886791920129,2240.7657052376026,None,7.179372945340219,7.650886791920129,8.134941718534687,False,False,False,2248.4986539650927,None,2248.4986539650927,None,2248.4986539650927,None,2248.4986539650927,None,2248.4986539650927,None,2248.4986539650927,None,2248.4986539650927,None,2248.4986539650927,None,2249.498959357188,None,2249.498959357188,None,2250.496622081131,None,2250.496622081131,None,h,,,,,,,,,,,,,,,,,,,,,,,,,,,,,,,,,,,,,,,,,,,,,,,55_56Exp,001,2021_May_19_1853,ComputerHuman,2020.1.3,59.990262395744224,
Human.xlsx,h,Sychronize.jpg,Number6.jpg,6,Human,,,,,1,1,11,4,0,5,5,0,,,,,,,,,,,,,,,,,,,,,,,,,,,,,2251.5467387845392,None,2251.5467387845392,None,2251.996553432068,None,2251.996553432068,None,v,5.236140267358678,2251.996553432068,None,t,4.803130846397835,2251.996553432068,None,5.236140267358678,4.803130846397835,6.292723249326945,False,False,False,2257.3132148805507,None,2257.3132148805507,None,2257.3132148805507,None,2257.3132148805507,None,2257.3132148805507,None,2257.3132148805507,None,2257.3132148805507,None,2257.3132148805507,None,2258.2977207227777,None,2258.2977207227777,None,2259.2947575854005,None,2259.2947575854005,None,h,,,,,,,,,,,,,,,,,,,,,,,,,,,,,,,,,,,,,,,,,,,,,,,55_56Exp,001,2021_May_19_1853,ComputerHuman,2020.1.3,59.990262395744224,
Human.xlsx,h,Sychronize.jpg,Number7.jpg,7,Human,,,,,1,1,11,4,0,6,6,3,,,,,,,,,,,,,,,,,,,,,,,,,,,,,2260.3618492132946,None,2260.3618492132946,None,2260.8114351375416,None,2260.8114351375416,None,v,6.432891691025361,2260.8114351375416,None,t,6.2400340165731905,2260.8114351375416,None,6.432891691025361,6.2400340165731905,7.364890144550198,True,False,False,2267.327591085117,None,2267.327591085117,None,2267.327591085117,None,2267.327591085117,None,2267.327591085117,None,2267.327591085117,None,2267.327591085117,None,2267.327591085117,None,2268.32865161691,None,2268.32865161691,None,2269.3260262714184,None,2269.3260262714184,None,h,,,,,,,,,,,,,,,,,,,,,,,,,,,,,,,,,,,,,,,,,,,,,,,55_56Exp,001,2021_May_19_1853,ComputerHuman,2020.1.3,59.990262395744224,
Human.xlsx,h,Sychronize.jpg,Number9.jpg,9,Human,,,,,1,1,11,4,0,7,7,6,,,,,,,,,,,,,,,,,,,,,,,,,,,,,2270.376091969214,None,2270.376091969214,None,2270.809489225305,None,2270.809489225305,None,v,7.938776583869185,2270.809489225305,None,t,9.661903362649355,2270.809489225305,None,7.938776583869185,9.661903362649355,9.520088958514664,False,False,False,2280.5569328496676,None,2280.5569328496676,None,2280.5569328496676,None,2280.5569328496676,None,2280.5569328496676,None,2280.5569328496676,None,2280.5569328496676,None,2280.5569328496676,None,2281.543186676692,None,2281.543186676692,None,2282.5399893626027,None,2282.5399893626027,None,h,,,,,,,,,,,,,,,,,,,,,,,,,,,,,,,,,,,,,,,,,,,,,,,55_56Exp,001,2021_May_19_1853,ComputerHuman,2020.1.3,59.990262395744224,
Human.xlsx,h,Sychronize.jpg,Number8.jpg,8,Human,,,,,1,1,11,4,0,8,8,5,,,,,,,,,,,,,,,,,,,,,,,,,,,,,2283.590279292619,None,2283.590279292619,None,2284.040087203558,None,2284.040087203558,None,v,7.151225866967252,2284.040087203558,None,t,8.058986547349377,2284.040087203558,None,7.151225866967252,8.058986547349377,8.207799194480337,False,False,False,2292.187963060388,None,2292.187963060388,None,2292.187963060388,None,2292.187963060388,None,2292.187963060388,None,2292.187963060388,None,2292.187963060388,None,2292.187963060388,None,2293.156769760023,None,2293.156769760023,None,2294.1709660013903,None,2294.1709660013903,None,h,,,,,,,,,,,,,,,,,,,,,,,,,,,,,,,,,,,,,,,,,,,,,,,55_56Exp,001,2021_May_19_1853,ComputerHuman,2020.1.3,59.990262395744224,
Human.xlsx,h,Sychronize.jpg,Number10.jpg,10,Human,,,,,1,1,11,4,0,9,9,9,,,,,,,,,,,,,,,,,,,,,,,,,,,,,2295.2211016314095,None,2295.2211016314095,None,2295.671087260017,None,2295.671087260017,None,v,8.907856596597412,2295.671087260017,None,t,6.139074982741477,2295.671087260017,None,8.907856596597412,6.139074982741477,10.663666562149583,False,False,False,2304.6686733151464,None,2304.6686733151464,None,2304.6686733151464,None,2304.6686733151464,None,2304.6686733151464,None,2304.6686733151464,None,2304.6686733151464,None,2304.6686733151464,None,2305.6372949189426,None,2305.6372949189426,None,2306.6349967792676,None,2306.6349967792676,None,h,,,,,,,,,,,,,,,,,,,,,,,,,,,,,,,,,,,,,,,,,,,,,,,55_56Exp,001,2021_May_19_1853,ComputerHuman,2020.1.3,59.990262395744224,
