Condition,CorrectTuringReply,Sychronize,NumberImage,Number,Partner,trials.thisRepN,trials.thisTrialN,trials.thisN,trials.thisIndex,Block.thisRepN,Block.thisTrialN,Block.thisN,Block.thisIndex,trials_loop.thisRepN,trials_loop.thisTrialN,trials_loop.thisN,trials_loop.thisIndex,key_resp_Istr.keys,key_resp_Istr.rt,key_resp_Istr.started,key_resp_Istr.stopped,key_respPrLeft.keys,key_respPrLeft.rt,key_respPrRight.keys,key_respPrRight.rt,RTPrLeft,RTPrRight,CompPr,SychronizedRTsPr,SychronizedRTsLeftCPr,SychronizedRTsRightCPr,CreditLeftPr.started,CreditLeftPr.stopped,CreditRightPr.started,CreditRightPr.stopped,text_StartExp.started,text_StartExp.stopped,key_startExp.keys,key_startExp.rt,key_startExp.started,key_startExp.stopped,SychroLeft.started,SychroLeft.stopped,SychroRight.started,SychroRight.stopped,NumberLeft.started,NumberLeft.stopped,NumberRight.started,NumberRight.stopped,CrossLeft.started,CrossLeft.stopped,CrossRight.started,CrossRight.stopped,key_respLeft.keys,key_respLeft.rt,key_respLeft.started,key_respLeft.stopped,key_respRight.keys,key_respRight.rt,key_respRight.started,key_respRight.stopped,RTLeft,RTRight,Comp,SychronizedRTs,SychronizedRTsLeftC,SychronizedRTsRightC,FeedbackLeftLeft.started,FeedbackLeftLeft.stopped,FeedbackLeftRight.started,FeedbackLeftRight.stopped,FeedbackRightLeft.started,FeedbackRightLeft.stopped,FeedbackRightRight.started,FeedbackRightRight.stopped,textLeftLeft.started,textLeftLeft.stopped,textLeftRight.started,textLeftRight.stopped,textRightLeft.started,textRightLeft.stopped,textRightRight.started,textRightRight.stopped,CreditLeft.started,CreditLeft.stopped,CreditRight.started,CreditRight.stopped,BlankLeft.started,BlankLeft.stopped,BlankRight.started,BlankRight.stopped,CorrectTuringReply,TuringtextLeft.started,TuringtextLeft.stopped,TuringtextRight.started,TuringtextRight.stopped,keyTuringLeft.keys,keyTuringLeft.corr,keyTuringLeft.rt,keyTuringLeft.started,keyTuringLeft.stopped,keyTuringRight.keys,keyTuringRight.corr,keyTuringRight.rt,keyTuringRight.started,keyTuringRight.stopped,RespTuringLeft,RespTuringRight,ScoreLeft.started,ScoreLeft.stopped,ScoreRight.started,ScoreRight.stopped,BlockText.started,BlockText.stopped,text_Pause.started,text_Pause.stopped,text_LongPause.started,text_LongPause.stopped,key_respPause.keys,key_respPause.started,key_respPause.stopped,key_respPause.rt,QuestImageLeft.started,QuestImageLeft.stopped,QuestImageRight.started,QuestImageRight.stopped,respQuestLeft.keys,respQuestLeft.rt,respQuestLeft.started,respQuestLeft.stopped,respQuestRight.keys,respQuestRight.rt,respQuestRight.started,respQuestRight.stopped,RespInclusionLeft,RespInclusionRight,EndText.started,EndText.stopped,participant,session,date,expName,psychopyVersion,frameRate,
,,,,,,,,,,,,,,,,,,"['t', 'v']","[191.05706154503014, 191.5049927167828]",16.544010616399873,None,,,,,,,,,,,,,,,,,,,,,,,,,,,,,,,,,,,,,,,,,,,,,,,,,,,,,,,,,,,,,,,,,,,,,,,,,,,,,,,,,,,,,,,,,,,,,,,,,,,,,,,,,,,,,,,,,,,,,,57_58Exp,001,2021_May_20_1100,ComputerHuman,2020.1.3,60.05553918085204,
,,,,,,,,,,,,,,,,,,,,,,v,5.809962401854591,t,7.696919043536013,5.809962401854591,7.696919043536013,8,False,False,False,273.4464645842536,None,273.4464645842536,None,274.44620956739845,None,"['space', 'space']","[45.39843416443159, 47.55828899408198]",275.429359529178,None,,,,,,,,,,,,,,,,,,,,,,,,,,,,,,,,,,,,,,,,,,,,,,,,,,,,,,,,,,,,,,,,,,,,,,,,,,,,,,,,,,,,,,,,,,,,,,,,,,57_58Exp,001,2021_May_20_1100,ComputerHuman,2020.1.3,60.05553918085204,
Human.xlsx,h,Sychronize.jpg,Number8.jpg,8,Human,,,,,0,0,0,8,0,0,0,5,,,,,,,,,,,,,,,,,,,,,,,,,323.0868921015667,None,323.0868921015667,None,326.11683621277837,None,326.11683621277837,None,326.56662114856385,None,326.56662114856385,None,v,6.960154177737422,326.56662114856385,None,t,7.547193034286806,326.56662114856385,None,6.960154177737422,7.547193034286806,7.756510909168174,False,False,False,334.18169485805834,None,334.18169485805834,None,334.18169485805834,None,334.18169485805834,None,334.18169485805834,None,334.18169485805834,None,334.18169485805834,None,334.18169485805834,None,335.18549476958833,None,335.18549476958833,None,336.1973808004707,None,336.1973808004707,None,h,,,,,,,,,,,,,,,,,,,,,,,,,,,,,,,,,,,,,,,,,,,,,,,57_58Exp,001,2021_May_20_1100,ComputerHuman,2020.1.3,60.05553918085204,
Human.xlsx,h,Sychronize.jpg,Number9.jpg,9,Human,,,,,0,0,0,8,0,1,1,6,,,,,,,,,,,,,,,,,,,,,,,,,,,,,337.24663882973255,None,337.24663882973255,None,337.6975673316673,None,337.6975673316673,None,v,7.808210965339754,337.6975673316673,None,t,7.988057191780058,337.6975673316673,None,7.808210965339754,7.988057191780058,9.064783638718437,True,False,False,345.7782639671449,None,345.7782639671449,None,345.7782639671449,None,345.7782639671449,None,345.7782639671449,None,345.7782639671449,None,345.7782639671449,None,345.7782639671449,None,346.7638460519381,None,346.7638460519381,None,347.74455266354687,None,347.74455266354687,None,h,,,,,,,,,,,,,,,,,,,,,,,,,,,,,,,,,,,,,,,,,,,,,,,57_58Exp,001,2021_May_20_1100,ComputerHuman,2020.1.3,60.05553918085204,
Human.xlsx,h,Sychronize.jpg,Number10.jpg,10,Human,,,,,0,0,0,8,0,2,2,9,,,,,,,,,,,,,,,,,,,,,,,,,,,,,348.8109497501316,None,348.8109497501316,None,349.2442115183576,None,349.2442115183576,None,v,9.540506781042495,349.2442115183576,None,t,9.227755392964923,349.2442115183576,None,9.540506781042495,9.227755392964923,9.540453329821021,False,False,False,358.87510108451136,None,358.87510108451136,None,358.87510108451136,None,358.87510108451136,None,358.87510108451136,None,358.87510108451136,None,358.87510108451136,None,358.87510108451136,None,359.8591466526552,None,359.8591466526552,None,360.85790428752307,None,360.85790428752307,None,h,,,,,,,,,,,,,,,,,,,,,,,,,,,,,,,,,,,,,,,,,,,,,,,57_58Exp,001,2021_May_20_1100,ComputerHuman,2020.1.3,60.05553918085204,
Human.xlsx,h,Sychronize.jpg,Number10.jpg,10,Human,,,,,0,0,0,8,0,3,3,8,,,,,,,,,,,,,,,,,,,,,,,,,,,,,361.89104011912343,None,361.89104011912343,None,362.34108809116196,None,362.34108809116196,None,v,8.006684970140554,362.34108809116196,None,t,9.985689865501968,362.34108809116196,None,8.006684970140554,9.985689865501968,10.499870368957794,False,False,False,372.4060856324146,None,372.4060856324146,None,372.4060856324146,None,372.4060856324146,None,372.4060856324146,None,372.4060856324146,None,372.4060856324146,None,372.4060856324146,None,373.40766769924437,None,373.40766769924437,None,374.4045401340394,None,374.4045401340394,None,h,,,,,,,,,,,,,,,,,,,,,,,,,,,,,,,,,,,,,,,,,,,,,,,57_58Exp,001,2021_May_20_1100,ComputerHuman,2020.1.3,60.05553918085204,
Human.xlsx,h,Sychronize.jpg,Number6.jpg,6,Human,,,,,0,0,0,8,0,4,4,0,,,,,,,,,,,,,,,,,,,,,,,,,,,,,375.45476947278246,None,375.45476947278246,None,375.9047263444601,None,375.9047263444601,None,v,6.166053824274513,375.9047263444601,None,t,5.69737358301245,375.9047263444601,None,6.166053824274513,5.69737358301245,6.37615090459791,False,False,False,382.1529995274972,None,382.1529995274972,None,382.1529995274972,None,382.1529995274972,None,382.1529995274972,None,382.1529995274972,None,382.1529995274972,None,382.1529995274972,None,383.1373254537938,None,383.1373254537938,None,384.1354303096674,None,384.1354303096674,None,h,,,,,,,,,,,,,,,,,,,,,,,,,,,,,,,,,,,,,,,,,,,,,,,57_58Exp,001,2021_May_20_1100,ComputerHuman,2020.1.3,60.05553918085204,
Human.xlsx,h,Sychronize.jpg,Number6.jpg,6,Human,,,,,0,0,0,8,0,5,5,1,,,,,,,,,,,,,,,,,,,,,,,,,,,,,385.18500911484773,None,385.18500911484773,None,385.6354625476473,None,385.6354625476473,None,v,5.522870200270063,385.6354625476473,None,t,5.35396756506384,385.6354625476473,None,5.522870200270063,5.35396756506384,6.0709810931106,True,False,False,391.2340528657961,None,391.2340528657961,None,391.2340528657961,None,391.2340528657961,None,391.2340528657961,None,391.2340528657961,None,391.2340528657961,None,391.2340528657961,None,392.23619725281094,None,392.23619725281094,None,393.2331899785755,None,393.2331899785755,None,h,,,,,,,,,,,,,,,,,,,,,,,,,,,,,,,,,,,,,,,,,,,,,,,57_58Exp,001,2021_May_20_1100,ComputerHuman,2020.1.3,60.05553918085204,
Human.xlsx,h,Sychronize.jpg,Number9.jpg,9,Human,,,,,0,0,0,8,0,6,6,7,,,,,,,,,,,,,,,,,,,,,,,,,,,,,394.24962685741286,None,394.24962685741286,None,394.73333288424703,None,394.73333288424703,None,v,8.25975375315852,394.73333288424703,None,t,8.698794299555402,394.73333288424703,None,8.25975375315852,8.698794299555402,8.77369280615615,False,False,False,403.5145364419087,None,403.5145364419087,None,403.5145364419087,None,403.5145364419087,None,403.5145364419087,None,403.5145364419087,None,403.5145364419087,None,403.5145364419087,None,404.51588915395666,None,404.51588915395666,None,405.5134233494715,None,405.5134233494715,None,h,,,,,,,,,,,,,,,,,,,,,,,,,,,,,,,,,,,,,,,,,,,,,,,57_58Exp,001,2021_May_20_1100,ComputerHuman,2020.1.3,60.05553918085204,
Human.xlsx,h,Sychronize.jpg,Number8.jpg,8,Human,,,,,0,0,0,8,0,7,7,4,,,,,,,,,,,,,,,,,,,,,,,,,,,,,406.54698773769894,None,406.54698773769894,None,407.0132454792248,None,407.0132454792248,None,v,7.8469395250785965,407.0132454792248,None,t,7.329924447647954,407.0132454792248,None,7.8469395250785965,7.329924447647954,8.507873384579089,False,False,False,414.92964453858156,None,414.92964453858156,None,414.92964453858156,None,414.92964453858156,None,414.92964453858156,None,414.92964453858156,None,414.92964453858156,None,414.92964453858156,None,415.9132349256971,None,415.9132349256971,None,416.9105317470322,None,416.9105317470322,None,h,,,,,,,,,,,,,,,,,,,,,,,,,,,,,,,,,,,,,,,,,,,,,,,57_58Exp,001,2021_May_20_1100,ComputerHuman,2020.1.3,60.05553918085204,
Human.xlsx,h,Sychronize.jpg,Number7.jpg,7,Human,,,,,0,0,0,8,0,8,8,3,,,,,,,,,,,,,,,,,,,,,,,,,,,,,417.9607245173205,None,417.9607245173205,None,418.4105421722496,None,418.4105421722496,None,v,7.9206730776941185,418.4105421722496,None,t,6.152035916637942,418.4105421722496,None,7.9206730776941185,6.152035916637942,7.420614367015994,False,False,False,426.4095644472503,None,426.4095644472503,None,426.4095644472503,None,426.4095644472503,None,426.4095644472503,None,426.4095644472503,None,426.4095644472503,None,426.4095644472503,None,427.4103407249728,None,427.4103407249728,None,428.3911143787485,None,428.3911143787485,None,h,,,,,,,,,,,,,,,,,,,,,,,,,,,,,,,,,,,,,,,,,,,,,,,57_58Exp,001,2021_May_20_1100,ComputerHuman,2020.1.3,60.05553918085204,
Human.xlsx,h,Sychronize.jpg,Number7.jpg,7,Human,,,,,0,0,0,8,0,9,9,2,,,,,,,,,,,,,,,,,,,,,,,,,,,,,429.44132960335094,None,429.44132960335094,None,429.89114533362465,None,429.89114533362465,None,v,7.603149827053812,429.89114533362465,None,t,7.850879294908964,429.89114533362465,None,7.603149827053812,7.850879294908964,7.365468363541492,True,False,False,437.8239989144944,None,437.8239989144944,None,437.8239989144944,None,437.8239989144944,None,437.8239989144944,None,437.8239989144944,None,437.8239989144944,None,437.8239989144944,None,438.82439250654636,None,438.82439250654636,None,439.8215494695811,None,439.8215494695811,None,h,,,,,,,,,,,,,,,,,,,,,,,,,,,,,,,,,,,,,,,,,,,,,,,57_58Exp,001,2021_May_20_1100,ComputerHuman,2020.1.3,60.05553918085204,
Human.xlsx,h,,,,,,,,,0,0,0,8,,,,,,,,,,,,,,,,,,,,,,,,,,,,,,,,,,,,,,,,,,,,,,,,,,,,,,,,,,,,,,,,,,,,,,,,,,,,,,,h,440.82220481478237,None,440.82220481478237,None,q,0,15.498597086520704,440.82220481478237,None,o,1,18.1139380023551,440.82220481478237,None,h,h,459.0498408791058,None,459.0498408791058,None,461.03286156819,None,None,None,None,None,None,None,None,,,,,,,,,,,,,,,,,,57_58Exp,001,2021_May_20_1100,ComputerHuman,2020.1.3,60.05553918085204,
Human.xlsx,h,Sychronize.jpg,Number10.jpg,10,Human,,,,,0,1,1,6,0,0,0,8,,,,,,,,,,,,,,,,,,,,,,,,,466.0177668157954,None,466.0177668157954,None,469.11422445525034,None,469.11422445525034,None,469.5477967345654,None,469.5477967345654,None,v,10.431045527405331,469.5477967345654,None,t,9.026753032374927,469.5477967345654,None,10.431045527405331,9.026753032374927,9.630743719992875,False,False,False,480.0459703968737,None,480.0459703968737,None,480.0459703968737,None,480.0459703968737,None,480.0459703968737,None,480.0459703968737,None,480.0459703968737,None,480.0459703968737,None,481.0640403459121,None,481.0640403459121,None,482.044355931676,None,482.044355931676,None,h,,,,,,,,,,,,,,,,,,,,,,,,,,,,,,,,,,,,,,,,,,,,,,,57_58Exp,001,2021_May_20_1100,ComputerHuman,2020.1.3,60.05553918085204,
Human.xlsx,h,Sychronize.jpg,Number8.jpg,8,Human,,,,,0,1,1,6,0,1,1,4,,,,,,,,,,,,,,,,,,,,,,,,,,,,,483.1110603215908,None,483.1110603215908,None,483.5439660285473,None,483.5439660285473,None,v,7.214007578651945,483.5439660285473,None,t,7.524783949399534,483.5439660285473,None,7.214007578651945,7.524783949399534,7.599800368269857,False,False,False,491.14315972619863,None,491.14315972619863,None,491.14315972619863,None,491.14315972619863,None,491.14315972619863,None,491.14315972619863,None,491.14315972619863,None,491.14315972619863,None,492.1436960635343,None,492.1436960635343,None,493.1414625008141,None,493.1414625008141,None,h,,,,,,,,,,,,,,,,,,,,,,,,,,,,,,,,,,,,,,,,,,,,,,,57_58Exp,001,2021_May_20_1100,ComputerHuman,2020.1.3,60.05553918085204,
Human.xlsx,h,Sychronize.jpg,Number10.jpg,10,Human,,,,,0,1,1,6,0,2,2,9,,,,,,,,,,,,,,,,,,,,,,,,,,,,,494.191258471291,None,494.191258471291,None,494.64144822628566,None,494.64144822628566,None,v,9.487445632491472,494.64144822628566,None,t,9.542694793582314,494.64144822628566,None,9.487445632491472,9.542694793582314,10.309146336636534,True,False,False,504.2720503772165,None,504.2720503772165,None,504.2720503772165,None,504.2720503772165,None,504.2720503772165,None,504.2720503772165,None,504.2720503772165,None,504.2720503772165,None,505.25663581123115,None,505.25663581123115,None,506.2549167730841,None,506.2549167730841,None,h,,,,,,,,,,,,,,,,,,,,,,,,,,,,,,,,,,,,,,,,,,,,,,,57_58Exp,001,2021_May_20_1100,ComputerHuman,2020.1.3,60.05553918085204,
Human.xlsx,h,Sychronize.jpg,Number9.jpg,9,Human,,,,,0,1,1,6,0,3,3,6,,,,,,,,,,,,,,,,,,,,,,,,,,,,,507.30521764485695,None,507.30521764485695,None,507.7551212677321,None,507.7551212677321,None,v,9.540722663235783,507.7551212677321,None,t,9.031753287391894,507.7551212677321,None,9.540722663235783,9.031753287391894,9.24740790685928,False,False,False,517.3688060174997,None,517.3688060174997,None,517.3688060174997,None,517.3688060174997,None,517.3688060174997,None,517.3688060174997,None,517.3688060174997,None,517.3688060174997,None,518.3549770468793,None,518.3549770468793,None,519.3683027200835,None,519.3683027200835,None,h,,,,,,,,,,,,,,,,,,,,,,,,,,,,,,,,,,,,,,,,,,,,,,,57_58Exp,001,2021_May_20_1100,ComputerHuman,2020.1.3,60.05553918085204,
Human.xlsx,h,Sychronize.jpg,Number7.jpg,7,Human,,,,,0,1,1,6,0,4,4,3,,,,,,,,,,,,,,,,,,,,,,,,,,,,,520.4179812865744,None,520.4179812865744,None,520.8681556443249,None,520.8681556443249,None,v,6.742826247553694,520.8681556443249,None,t,6.457991666883117,520.8681556443249,None,6.742826247553694,6.457991666883117,6.992409790054614,True,False,False,527.6995612747763,None,527.6995612747763,None,527.6995612747763,None,527.6995612747763,None,527.6995612747763,None,527.6995612747763,None,527.6995612747763,None,527.6995612747763,None,528.6850625240382,None,528.6850625240382,None,529.6656979233929,None,529.6656979233929,None,h,,,,,,,,,,,,,,,,,,,,,,,,,,,,,,,,,,,,,,,,,,,,,,,57_58Exp,001,2021_May_20_1100,ComputerHuman,2020.1.3,60.05553918085204,
Human.xlsx,h,Sychronize.jpg,Number6.jpg,6,Human,,,,,0,1,1,6,0,5,5,0,,,,,,,,,,,,,,,,,,,,,,,,,,,,,530.7161944684759,None,530.7161944684759,None,531.1657725037941,None,531.1657725037941,None,v,5.648460387862997,531.1657725037941,None,t,5.756006609266933,531.1657725037941,None,5.648460387862997,5.756006609266933,6.235366624604206,True,False,False,537.0138761246805,None,537.0138761246805,None,537.0138761246805,None,537.0138761246805,None,537.0138761246805,None,537.0138761246805,None,537.0138761246805,None,537.0138761246805,None,537.9993472210059,None,537.9993472210059,None,538.9966969703677,None,538.9966969703677,None,h,,,,,,,,,,,,,,,,,,,,,,,,,,,,,,,,,,,,,,,,,,,,,,,57_58Exp,001,2021_May_20_1100,ComputerHuman,2020.1.3,60.05553918085204,
Human.xlsx,h,Sychronize.jpg,Number9.jpg,9,Human,,,,,0,1,1,6,0,6,6,7,,,,,,,,,,,,,,,,,,,,,,,,,,,,,540.047735305977,None,540.047735305977,None,540.4970509465937,None,540.4970509465937,None,v,9.232112813041113,540.4970509465937,None,t,8.888147041114735,540.4970509465937,None,9.232112813041113,8.888147041114735,9.165775360288196,False,False,False,549.8116532117209,None,549.8116532117209,None,549.8116532117209,None,549.8116532117209,None,549.8116532117209,None,549.8116532117209,None,549.8116532117209,None,549.8116532117209,None,550.796224852371,None,550.796224852371,None,551.7934966531844,None,551.7934966531844,None,h,,,,,,,,,,,,,,,,,,,,,,,,,,,,,,,,,,,,,,,,,,,,,,,57_58Exp,001,2021_May_20_1100,ComputerHuman,2020.1.3,60.05553918085204,
Human.xlsx,h,Sychronize.jpg,Number8.jpg,8,Human,,,,,0,1,1,6,0,7,7,5,,,,,,,,,,,,,,,,,,,,,,,,,,,,,552.8604711364225,None,552.8604711364225,None,553.3103276052378,None,553.3103276052378,None,v,7.681940412023778,553.3103276052378,None,t,8.308800711865842,553.3103276052378,None,7.681940412023778,8.308800711865842,8.087917826484883,False,False,False,561.7077644773391,None,561.7077644773391,None,561.7077644773391,None,561.7077644773391,None,561.7077644773391,None,561.7077644773391,None,561.7077644773391,None,561.7077644773391,None,562.6931354915779,None,562.6931354915779,None,563.6739081830259,None,563.6739081830259,None,h,,,,,,,,,,,,,,,,,,,,,,,,,,,,,,,,,,,,,,,,,,,,,,,57_58Exp,001,2021_May_20_1100,ComputerHuman,2020.1.3,60.05553918085204,
Human.xlsx,h,Sychronize.jpg,Number6.jpg,6,Human,,,,,0,1,1,6,0,8,8,1,,,,,,,,,,,,,,,,,,,,,,,,,,,,,564.7404537888609,None,564.7404537888609,None,565.1737348036419,None,565.1737348036419,None,v,5.829724123086862,565.1737348036419,None,t,5.849013982943006,565.1737348036419,None,5.829724123086862,5.849013982943006,6.387510664329783,True,False,False,571.0905563248831,None,571.0905563248831,None,571.0905563248831,None,571.0905563248831,None,571.0905563248831,None,571.0905563248831,None,571.0905563248831,None,571.0905563248831,None,572.0906214423945,None,572.0906214423945,None,573.0881716767054,None,573.0881716767054,None,h,,,,,,,,,,,,,,,,,,,,,,,,,,,,,,,,,,,,,,,,,,,,,,,57_58Exp,001,2021_May_20_1100,ComputerHuman,2020.1.3,60.05553918085204,
Human.xlsx,h,Sychronize.jpg,Number7.jpg,7,Human,,,,,0,1,1,6,0,9,9,2,,,,,,,,,,,,,,,,,,,,,,,,,,,,,574.1386018211732,None,574.1386018211732,None,574.5884072866176,None,574.5884072866176,None,v,8.766041121548142,574.5884072866176,None,t,6.669936656379377,574.5884072866176,None,8.766041121548142,6.669936656379377,6.906319169154882,False,False,False,583.4358090497943,None,583.4358090497943,None,583.4358090497943,None,583.4358090497943,None,583.4358090497943,None,583.4358090497943,None,583.4358090497943,None,583.4358090497943,None,584.4214944244335,None,584.4214944244335,None,585.4184233157902,None,585.4184233157902,None,h,,,,,,,,,,,,,,,,,,,,,,,,,,,,,,,,,,,,,,,,,,,,,,,57_58Exp,001,2021_May_20_1100,ComputerHuman,2020.1.3,60.05553918085204,
Human.xlsx,h,,,,,,,,,0,1,1,6,,,,,,,,,,,,,,,,,,,,,,,,,,,,,,,,,,,,,,,,,,,,,,,,,,,,,,,,,,,,,,,,,,,,,,,,,,,,,,,h,586.4354151369665,None,586.4354151369665,None,q,1,10.905912894582343,586.4354151369665,None,o,0,7.381835935307208,586.4354151369665,None,h,h,597.4325284744765,None,597.4325284744765,None,599.4149323114697,None,None,None,None,None,None,None,None,,,,,,,,,,,,,,,,,,57_58Exp,001,2021_May_20_1100,ComputerHuman,2020.1.3,60.05553918085204,
Human.xlsx,h,Sychronize.jpg,Number8.jpg,8,Human,,,,,0,2,2,4,0,0,0,5,,,,,,,,,,,,,,,,,,,,,,,,,604.4331725925207,None,604.4331725925207,None,607.4967956089628,None,607.4967956089628,None,607.9468057294429,None,607.9468057294429,None,v,8.21295703751889,607.9468057294429,None,t,7.427896790989735,607.9468057294429,None,8.21295703751889,7.427896790989735,8.433717825564896,False,False,False,616.2282702383142,None,616.2282702383142,None,616.2282702383142,None,616.2282702383142,None,616.2282702383142,None,616.2282702383142,None,616.2282702383142,None,616.2282702383142,None,617.2298073965154,None,617.2298073965154,None,618.2269274703195,None,618.2269274703195,None,h,,,,,,,,,,,,,,,,,,,,,,,,,,,,,,,,,,,,,,,,,,,,,,,57_58Exp,001,2021_May_20_1100,ComputerHuman,2020.1.3,60.05553918085204,
Human.xlsx,h,Sychronize.jpg,Number10.jpg,10,Human,,,,,0,2,2,4,0,1,1,9,,,,,,,,,,,,,,,,,,,,,,,,,,,,,619.2933463696667,None,619.2933463696667,None,619.7437356472825,None,619.7437356472825,None,v,10.874862106452156,619.7437356472825,None,t,9.658703083715181,619.7437356472825,None,10.874862106452156,9.658703083715181,10.336734511270423,False,False,False,630.6917981767739,None,630.6917981767739,None,630.6917981767739,None,630.6917981767739,None,630.6917981767739,None,630.6917981767739,None,630.6917981767739,None,630.6917981767739,None,631.6749985003727,None,631.6749985003727,None,632.6733153891286,None,632.6733153891286,None,h,,,,,,,,,,,,,,,,,,,,,,,,,,,,,,,,,,,,,,,,,,,,,,,57_58Exp,001,2021_May_20_1100,ComputerHuman,2020.1.3,60.05553918085204,
Human.xlsx,h,Sychronize.jpg,Number9.jpg,9,Human,,,,,0,2,2,4,0,2,2,6,,,,,,,,,,,,,,,,,,,,,,,,,,,,,633.7401323713906,None,633.7401323713906,None,634.1734303872953,None,634.1734303872953,None,v,9.224130304310393,634.1734303872953,None,t,8.327788721582692,634.1734303872953,None,9.224130304310393,8.327788721582692,9.15120000589447,False,False,False,643.4872611863385,None,643.4872611863385,None,643.4872611863385,None,643.4872611863385,None,643.4872611863385,None,643.4872611863385,None,643.4872611863385,None,643.4872611863385,None,644.4726902610186,None,644.4726902610186,None,645.4534998416972,None,645.4534998416972,None,h,,,,,,,,,,,,,,,,,,,,,,,,,,,,,,,,,,,,,,,,,,,,,,,57_58Exp,001,2021_May_20_1100,ComputerHuman,2020.1.3,60.05553918085204,
Human.xlsx,h,Sychronize.jpg,Number8.jpg,8,Human,,,,,0,2,2,4,0,3,3,4,,,,,,,,,,,,,,,,,,,,,,,,,,,,,646.5208262161176,None,646.5208262161176,None,646.9537014493618,None,646.9537014493618,None,v,7.2389790215756875,646.9537014493618,None,t,9.101750442109505,646.9537014493618,None,7.2389790215756875,9.101750442109505,8.39326815449256,False,False,False,656.1507589077067,None,656.1507589077067,None,656.1507589077067,None,656.1507589077067,None,656.1507589077067,None,656.1507589077067,None,656.1507589077067,None,656.1507589077067,None,657.1362046627347,None,657.1362046627347,None,658.1335887351196,None,658.1335887351196,None,h,,,,,,,,,,,,,,,,,,,,,,,,,,,,,,,,,,,,,,,,,,,,,,,57_58Exp,001,2021_May_20_1100,ComputerHuman,2020.1.3,60.05553918085204,
Human.xlsx,h,Sychronize.jpg,Number9.jpg,9,Human,,,,,0,2,2,4,0,4,4,7,,,,,,,,,,,,,,,,,,,,,,,,,,,,,659.1838687564576,None,659.1838687564576,None,659.6337688507978,None,659.6337688507978,None,v,9.049727965982356,659.6337688507978,None,t,8.828766606970248,659.6337688507978,None,9.049727965982356,8.828766606970248,8.806258441343477,True,False,False,668.7809713158966,None,668.7809713158966,None,668.7809713158966,None,668.7809713158966,None,668.7809713158966,None,668.7809713158966,None,668.7809713158966,None,668.7809713158966,None,669.7665784212116,None,669.7665784212116,None,670.7638203898647,None,670.7638203898647,None,h,,,,,,,,,,,,,,,,,,,,,,,,,,,,,,,,,,,,,,,,,,,,,,,57_58Exp,001,2021_May_20_1100,ComputerHuman,2020.1.3,60.05553918085204,
Human.xlsx,h,Sychronize.jpg,Number6.jpg,6,Human,,,,,0,2,2,4,0,5,5,0,,,,,,,,,,,,,,,,,,,,,,,,,,,,,671.8137148385487,None,671.8137148385487,None,672.263850703189,None,672.263850703189,None,v,5.930915131994425,672.263850703189,None,t,5.666042436729413,672.263850703189,None,5.930915131994425,5.666042436729413,5.743095253374194,True,False,False,678.2785213898195,None,678.2785213898195,None,678.2785213898195,None,678.2785213898195,None,678.2785213898195,None,678.2785213898195,None,678.2785213898195,None,678.2785213898195,None,679.2638539109481,None,679.2638539109481,None,680.24477640475,None,680.24477640475,None,h,,,,,,,,,,,,,,,,,,,,,,,,,,,,,,,,,,,,,,,,,,,,,,,57_58Exp,001,2021_May_20_1100,ComputerHuman,2020.1.3,60.05553918085204,
Human.xlsx,h,Sychronize.jpg,Number7.jpg,7,Human,,,,,0,2,2,4,0,6,6,3,,,,,,,,,,,,,,,,,,,,,,,,,,,,,681.294895075801,None,681.294895075801,None,681.7449866733645,None,681.7449866733645,None,v,7.18891231622365,681.7449866733645,None,t,6.579993975828302,681.7449866733645,None,7.18891231622365,6.579993975828302,7.4219886394364245,False,False,False,689.0258173290209,None,689.0258173290209,None,689.0258173290209,None,689.0258173290209,None,689.0258173290209,None,689.0258173290209,None,689.0258173290209,None,689.0258173290209,None,690.0104694844266,None,690.0104694844266,None,691.0087315205004,None,691.0087315205004,None,h,,,,,,,,,,,,,,,,,,,,,,,,,,,,,,,,,,,,,,,,,,,,,,,57_58Exp,001,2021_May_20_1100,ComputerHuman,2020.1.3,60.05553918085204,
Human.xlsx,h,Sychronize.jpg,Number6.jpg,6,Human,,,,,0,2,2,4,0,7,7,1,,,,,,,,,,,,,,,,,,,,,,,,,,,,,692.0591648727274,None,692.0591648727274,None,692.5089725836032,None,692.5089725836032,None,v,6.1200901636950675,692.5089725836032,None,t,7.346895739165575,692.5089725836032,None,6.1200901636950675,7.346895739165575,5.675675152063195,False,False,False,699.9397643772569,None,699.9397643772569,None,699.9397643772569,None,699.9397643772569,None,699.9397643772569,None,699.9397643772569,None,699.9397643772569,None,699.9397643772569,None,700.9086770206719,None,700.9086770206719,None,701.905958123987,None,701.905958123987,None,h,,,,,,,,,,,,,,,,,,,,,,,,,,,,,,,,,,,,,,,,,,,,,,,57_58Exp,001,2021_May_20_1100,ComputerHuman,2020.1.3,60.05553918085204,
Human.xlsx,h,Sychronize.jpg,Number10.jpg,10,Human,,,,,0,2,2,4,0,8,8,8,,,,,,,,,,,,,,,,,,,,,,,,,,,,,702.9729380604157,None,702.9729380604157,None,703.4226784083484,None,703.4226784083484,None,v,11.537319230740877,703.4226784083484,None,t,0.5453267599930314,703.4226784083484,None,11.537319230740877,0.5453267599930314,9.413549348512934,False,False,False,715.036484732189,None,715.036484732189,None,715.036484732189,None,715.036484732189,None,715.036484732189,None,715.036484732189,None,715.036484732189,None,715.036484732189,None,716.0212549331328,None,716.0212549331328,None,717.0189049287541,None,717.0189049287541,None,h,,,,,,,,,,,,,,,,,,,,,,,,,,,,,,,,,,,,,,,,,,,,,,,57_58Exp,001,2021_May_20_1100,ComputerHuman,2020.1.3,60.05553918085204,
Human.xlsx,h,Sychronize.jpg,Number7.jpg,7,Human,,,,,0,2,2,4,0,9,9,2,,,,,,,,,,,,,,,,,,,,,,,,,,,,,718.0686454049973,None,718.0686454049973,None,718.5185766146016,None,718.5185766146016,None,v,6.508367279444883,718.5185766146016,None,t,7.107877903703638,718.5185766146016,None,6.508367279444883,7.107877903703638,6.893209167705458,False,False,False,725.7167215033099,None,725.7167215033099,None,725.7167215033099,None,725.7167215033099,None,725.7167215033099,None,725.7167215033099,None,725.7167215033099,None,725.7167215033099,None,726.7019590747669,None,726.7019590747669,None,727.6995461983082,None,727.6995461983082,None,h,,,,,,,,,,,,,,,,,,,,,,,,,,,,,,,,,,,,,,,,,,,,,,,57_58Exp,001,2021_May_20_1100,ComputerHuman,2020.1.3,60.05553918085204,
Human.xlsx,h,,,,,,,,,0,2,2,4,,,,,,,,,,,,,,,,,,,,,,,,,,,,,,,,,,,,,,,,,,,,,,,,,,,,,,,,,,,,,,,,,,,,,,,,,,,,,,,h,728.7002618493822,None,728.7002618493822,None,q,0,5.5658939495567665,728.7002618493822,None,o,1,10.936831202258418,728.7002618493822,None,h,h,739.7302399628414,None,739.7302399628414,None,741.729419097266,None,None,None,None,None,None,None,None,,,,,,,,,,,,,,,,,,57_58Exp,001,2021_May_20_1100,ComputerHuman,2020.1.3,60.05553918085204,
Human.xlsx,h,Sychronize.jpg,Number7.jpg,7,Human,,,,,0,3,3,2,0,0,0,3,,,,,,,,,,,,,,,,,,,,,,,,,746.7309533684839,None,746.7309533684839,None,749.7944269033479,None,749.7944269033479,None,750.227507753956,None,750.227507753956,None,v,6.4448177206882065,750.227507753956,None,t,6.811966289017164,750.227507753956,None,6.4448177206882065,6.811966289017164,6.732171799778781,False,False,False,757.1106048197865,None,757.1106048197865,None,757.1106048197865,None,757.1106048197865,None,757.1106048197865,None,757.1106048197865,None,757.1106048197865,None,757.1106048197865,None,758.1110593592631,None,758.1110593592631,None,759.1081624319435,None,759.1081624319435,None,h,,,,,,,,,,,,,,,,,,,,,,,,,,,,,,,,,,,,,,,,,,,,,,,57_58Exp,001,2021_May_20_1100,ComputerHuman,2020.1.3,60.05553918085204,
Human.xlsx,h,Sychronize.jpg,Number6.jpg,6,Human,,,,,0,3,3,2,0,1,1,0,,,,,,,,,,,,,,,,,,,,,,,,,,,,,760.1586750158223,None,760.1586750158223,None,760.6085683738683,None,760.6085683738683,None,v,5.5029817725499015,760.6085683738683,None,t,5.274042395669994,760.6085683738683,None,5.5029817725499015,5.274042395669994,6.262458173155357,True,False,False,766.2065861070026,None,766.2065861070026,None,766.2065861070026,None,766.2065861070026,None,766.2065861070026,None,766.2065861070026,None,766.2065861070026,None,766.2065861070026,None,767.1753059640904,None,767.1753059640904,None,768.1727570786423,None,768.1727570786423,None,h,,,,,,,,,,,,,,,,,,,,,,,,,,,,,,,,,,,,,,,,,,,,,,,57_58Exp,001,2021_May_20_1100,ComputerHuman,2020.1.3,60.05553918085204,
Human.xlsx,h,Sychronize.jpg,Number8.jpg,8,Human,,,,,0,3,3,2,0,2,2,5,,,,,,,,,,,,,,,,,,,,,,,,,,,,,769.2566573032176,None,769.2566573032176,None,769.6895864268162,None,769.6895864268162,None,v,7.425112776793412,769.6895864268162,None,t,7.291859894060508,769.6895864268162,None,7.425112776793412,7.291859894060508,8.206073199012232,True,False,False,777.203799205823,None,777.203799205823,None,777.203799205823,None,777.203799205823,None,777.203799205823,None,777.203799205823,None,777.203799205823,None,777.203799205823,None,778.1897225961935,None,778.1897225961935,None,779.170028879456,None,779.170028879456,None,h,,,,,,,,,,,,,,,,,,,,,,,,,,,,,,,,,,,,,,,,,,,,,,,57_58Exp,001,2021_May_20_1100,ComputerHuman,2020.1.3,60.05553918085204,
Human.xlsx,h,Sychronize.jpg,Number9.jpg,9,Human,,,,,0,3,3,2,0,3,3,6,,,,,,,,,,,,,,,,,,,,,,,,,,,,,780.2371268614226,None,780.2371268614226,None,780.6697339259989,None,780.6697339259989,None,v,7.544051034165477,780.6697339259989,None,t,8.322780126392217,780.6697339259989,None,7.544051034165477,8.322780126392217,8.914859023533158,False,False,False,789.0691281727546,None,789.0691281727546,None,789.0691281727546,None,789.0691281727546,None,789.0691281727546,None,789.0691281727546,None,789.0691281727546,None,789.0691281727546,None,790.0697806309728,None,790.0697806309728,None,791.0670412046292,None,791.0670412046292,None,h,,,,,,,,,,,,,,,,,,,,,,,,,,,,,,,,,,,,,,,,,,,,,,,57_58Exp,001,2021_May_20_1100,ComputerHuman,2020.1.3,60.05553918085204,
Human.xlsx,h,Sychronize.jpg,Number9.jpg,9,Human,,,,,0,3,3,2,0,4,4,7,,,,,,,,,,,,,,,,,,,,,,,,,,,,,792.1169369364169,None,792.1169369364169,None,792.5670580453649,None,792.5670580453649,None,v,9.133597396069263,792.5670580453649,None,t,8.792801210993275,792.5670580453649,None,9.133597396069263,8.792801210993275,8.362230221425365,False,False,False,801.7823577094163,None,801.7823577094163,None,801.7823577094163,None,801.7823577094163,None,801.7823577094163,None,801.7823577094163,None,801.7823577094163,None,801.7823577094163,None,802.7825572320374,None,802.7825572320374,None,803.7805344190957,None,803.7805344190957,None,h,,,,,,,,,,,,,,,,,,,,,,,,,,,,,,,,,,,,,,,,,,,,,,,57_58Exp,001,2021_May_20_1100,ComputerHuman,2020.1.3,60.05553918085204,
Human.xlsx,h,Sychronize.jpg,Number10.jpg,10,Human,,,,,0,3,3,2,0,5,5,9,,,,,,,,,,,,,,,,,,,,,,,,,,,,,804.830832724661,None,804.830832724661,None,805.2803555865211,None,805.2803555865211,None,v,10.063252841032181,805.2803555865211,None,t,9.562727570465768,805.2803555865211,None,10.063252841032181,9.562727570465768,9.453487280947902,False,False,False,815.4276308677535,None,815.4276308677535,None,815.4276308677535,None,815.4276308677535,None,815.4276308677535,None,815.4276308677535,None,815.4276308677535,None,815.4276308677535,None,816.3963885763998,None,816.3963885763998,None,817.3938486726773,None,817.3938486726773,None,h,,,,,,,,,,,,,,,,,,,,,,,,,,,,,,,,,,,,,,,,,,,,,,,57_58Exp,001,2021_May_20_1100,ComputerHuman,2020.1.3,60.05553918085204,
Human.xlsx,h,Sychronize.jpg,Number8.jpg,8,Human,,,,,0,3,3,2,0,6,6,4,,,,,,,,,,,,,,,,,,,,,,,,,,,,,818.4438730356084,None,818.4438730356084,None,818.8938401721156,None,818.8938401721156,None,v,6.700837000603997,818.8938401721156,None,t,7.255887761789381,818.8938401721156,None,6.700837000603997,7.255887761789381,7.881819717474027,False,False,False,826.2415301524553,None,826.2415301524553,None,826.2415301524553,None,826.2415301524553,None,826.2415301524553,None,826.2415301524553,None,826.2415301524553,None,826.2415301524553,None,827.2265656350834,None,827.2265656350834,None,828.2243987937542,None,828.2243987937542,None,h,,,,,,,,,,,,,,,,,,,,,,,,,,,,,,,,,,,,,,,,,,,,,,,57_58Exp,001,2021_May_20_1100,ComputerHuman,2020.1.3,60.05553918085204,
Human.xlsx,h,Sychronize.jpg,Number7.jpg,7,Human,,,,,0,3,3,2,0,7,7,2,,,,,,,,,,,,,,,,,,,,,,,,,,,,,829.2580295825968,None,829.2580295825968,None,829.7079383378867,None,829.7079383378867,None,v,6.685927335914357,829.7079383378867,None,t,6.101020356119079,829.7079383378867,None,6.685927335914357,6.101020356119079,6.895931762395765,False,False,False,836.4889337119772,None,836.4889337119772,None,836.4889337119772,None,836.4889337119772,None,836.4889337119772,None,836.4889337119772,None,836.4889337119772,None,836.4889337119772,None,837.47504475626,None,837.47504475626,None,838.4719348337306,None,838.4719348337306,None,h,,,,,,,,,,,,,,,,,,,,,,,,,,,,,,,,,,,,,,,,,,,,,,,57_58Exp,001,2021_May_20_1100,ComputerHuman,2020.1.3,60.05553918085204,
Human.xlsx,h,Sychronize.jpg,Number6.jpg,6,Human,,,,,0,3,3,2,0,8,8,1,,,,,,,,,,,,,,,,,,,,,,,,,,,,,839.5225914459969,None,839.5225914459969,None,839.9720559266399,None,839.9720559266399,None,v,5.745093170969312,839.9720559266399,None,t,5.212067846673108,839.9720559266399,None,5.745093170969312,5.212067846673108,5.682515746518684,False,False,False,845.7877149880302,None,845.7877149880302,None,845.7877149880302,None,845.7877149880302,None,845.7877149880302,None,845.7877149880302,None,845.7877149880302,None,845.7877149880302,None,846.7719350582737,None,846.7719350582737,None,847.7694634798221,None,847.7694634798221,None,h,,,,,,,,,,,,,,,,,,,,,,,,,,,,,,,,,,,,,,,,,,,,,,,57_58Exp,001,2021_May_20_1100,ComputerHuman,2020.1.3,60.05553918085204,
Human.xlsx,h,Sychronize.jpg,Number10.jpg,10,Human,,,,,0,3,3,2,0,9,9,8,,,,,,,,,,,,,,,,,,,,,,,,,,,,,848.8365303465247,None,848.8365303465247,None,849.2694145614945,None,849.2694145614945,None,v,8.890702983632991,849.2694145614945,None,t,9.733741231991416,849.2694145614945,None,8.890702983632991,9.733741231991416,10.135689691953477,False,False,False,859.1000108743036,None,859.1000108743036,None,859.1000108743036,None,859.1000108743036,None,859.1000108743036,None,859.1000108743036,None,859.1000108743036,None,859.1000108743036,None,860.085962492955,None,860.085962492955,None,861.0661613162848,None,861.0661613162848,None,h,,,,,,,,,,,,,,,,,,,,,,,,,,,,,,,,,,,,,,,,,,,,,,,57_58Exp,001,2021_May_20_1100,ComputerHuman,2020.1.3,60.05553918085204,
Human.xlsx,h,,,,,,,,,0,3,3,2,,,,,,,,,,,,,,,,,,,,,,,,,,,,,,,,,,,,,,,,,,,,,,,,,,,,,,,,,,,,,,,,,,,,,,,,,,,,,,,h,862.0830549800302,None,862.0830549800302,None,q,0,7.55211501997951,862.0830549800302,None,l,0,41.36810865065286,862.0830549800302,None,h,c,903.5227781375814,None,903.5227781375814,None,905.5384406633519,None,None,None,None,None,None,None,None,,,,,,,,,,,,,,,,,,57_58Exp,001,2021_May_20_1100,ComputerHuman,2020.1.3,60.05553918085204,
Computer.xlsx,c,Sychronize.jpg,Number7.jpg,7,Computer,,,,,0,4,4,5,0,0,0,2,,,,,,,,,,,,,,,,,,,,,,,,,910.5393619317896,None,910.5393619317896,None,913.6203886456873,None,913.6203886456873,None,914.0367551462883,None,914.0367551462883,None,v,8.714097235521194,914.0367551462883,None,t,5.37805559110825,914.0367551462883,None,8.714097235521194,5.37805559110825,7.225029339015799,False,False,False,922.8181636797618,None,922.8181636797618,None,922.8181636797618,None,922.8181636797618,None,922.8181636797618,None,922.8181636797618,None,922.8181636797618,None,922.8181636797618,None,923.8338364703615,None,923.8338364703615,None,924.8169549961011,None,924.8169549961011,None,c,,,,,,,,,,,,,,,,,,,,,,,,,,,,,,,,,,,,,,,,,,,,,,,57_58Exp,001,2021_May_20_1100,ComputerHuman,2020.1.3,60.05553918085204,
Computer.xlsx,c,Sychronize.jpg,Number8.jpg,8,Computer,,,,,0,4,4,5,0,1,1,5,,,,,,,,,,,,,,,,,,,,,,,,,,,,,925.8669771136007,None,925.8669771136007,None,926.3170991848764,None,926.3170991848764,None,v,8.956743367396712,926.3170991848764,None,t,7.011854274066536,926.3170991848764,None,8.956743367396712,7.011854274066536,8.439318921581666,False,False,False,935.3475767464405,None,935.3475767464405,None,935.3475767464405,None,935.3475767464405,None,935.3475767464405,None,935.3475767464405,None,935.3475767464405,None,935.3475767464405,None,936.3640222862279,None,936.3640222862279,None,937.3471600585225,None,937.3471600585225,None,c,,,,,,,,,,,,,,,,,,,,,,,,,,,,,,,,,,,,,,,,,,,,,,,57_58Exp,001,2021_May_20_1100,ComputerHuman,2020.1.3,60.05553918085204,
Computer.xlsx,c,Sychronize.jpg,Number9.jpg,9,Computer,,,,,0,4,4,5,0,2,2,6,,,,,,,,,,,,,,,,,,,,,,,,,,,,,938.397575447298,None,938.397575447298,None,938.8468070446241,None,938.8468070446241,None,v,9.558000616531217,938.8468070446241,None,t,9.309819816958907,938.8468070446241,None,9.558000616531217,9.309819816958907,9.014200994382756,False,False,True,948.4944019790593,None,948.4944019790593,None,948.4944019790593,None,948.4944019790593,None,948.4944019790593,None,948.4944019790593,None,948.4944019790593,None,948.4944019790593,None,949.4774255551268,None,949.4774255551268,None,950.4605309290538,None,950.4605309290538,None,c,,,,,,,,,,,,,,,,,,,,,,,,,,,,,,,,,,,,,,,,,,,,,,,57_58Exp,001,2021_May_20_1100,ComputerHuman,2020.1.3,60.05553918085204,
Computer.xlsx,c,Sychronize.jpg,Number6.jpg,6,Computer,,,,,0,4,4,5,0,3,3,0,,,,,,,,,,,,,,,,,,,,,,,,,,,,,951.5107843259906,None,951.5107843259906,None,951.9607700675009,None,951.9607700675009,None,v,5.975205946159122,951.9607700675009,None,t,5.597914764064626,951.9607700675009,None,5.975205946159122,5.597914764064626,6.229308209463548,False,True,False,958.0092704240434,None,958.0092704240434,None,958.0092704240434,None,958.0092704240434,None,958.0092704240434,None,958.0092704240434,None,958.0092704240434,None,958.0092704240434,None,959.0251783433913,None,959.0251783433913,None,960.0081483498806,None,960.0081483498806,None,c,,,,,,,,,,,,,,,,,,,,,,,,,,,,,,,,,,,,,,,,,,,,,,,57_58Exp,001,2021_May_20_1100,ComputerHuman,2020.1.3,60.05553918085204,
Computer.xlsx,c,Sychronize.jpg,Number9.jpg,9,Computer,,,,,0,4,4,5,0,4,4,7,,,,,,,,,,,,,,,,,,,,,,,,,,,,,961.0581977333333,None,961.0581977333333,None,961.5082344782146,None,961.5082344782146,None,v,9.674645646862245,961.5082344782146,None,t,8.909804548025022,961.5082344782146,None,9.674645646862245,8.909804548025022,8.696075916263272,False,False,True,971.2720619251496,None,971.2720619251496,None,971.2720619251496,None,971.2720619251496,None,971.2720619251496,None,971.2720619251496,None,971.2720619251496,None,971.2720619251496,None,972.2716368970576,None,972.2716368970576,None,973.2548221441881,None,973.2548221441881,None,c,,,,,,,,,,,,,,,,,,,,,,,,,,,,,,,,,,,,,,,,,,,,,,,57_58Exp,001,2021_May_20_1100,ComputerHuman,2020.1.3,60.05553918085204,
Computer.xlsx,c,Sychronize.jpg,Number7.jpg,7,Computer,,,,,0,4,4,5,0,5,5,3,,,,,,,,,,,,,,,,,,,,,,,,,,,,,974.3044772940372,None,974.3044772940372,None,974.7549615213248,None,974.7549615213248,None,v,8.167024171427784,974.7549615213248,None,t,6.761828050635131,974.7549615213248,None,8.167024171427784,6.761828050635131,7.432345656455688,False,False,False,983.0190730153355,None,983.0190730153355,None,983.0190730153355,None,983.0190730153355,None,983.0190730153355,None,983.0190730153355,None,983.0190730153355,None,983.0190730153355,None,984.0021164795099,None,984.0021164795099,None,984.9852497609419,None,984.9852497609419,None,c,,,,,,,,,,,,,,,,,,,,,,,,,,,,,,,,,,,,,,,,,,,,,,,57_58Exp,001,2021_May_20_1100,ComputerHuman,2020.1.3,60.05553918085204,
Computer.xlsx,c,Sychronize.jpg,Number10.jpg,10,Computer,,,,,0,4,4,5,0,6,6,8,,,,,,,,,,,,,,,,,,,,,,,,,,,,,986.0522697943603,None,986.0522697943603,None,986.5021621900784,None,986.5021621900784,None,v,8.84679613824278,986.5021621900784,None,t,10.417546955980924,986.5021621900784,None,8.84679613824278,10.417546955980924,9.693442518963538,False,False,False,996.9835137216711,None,996.9835137216711,None,996.9835137216711,None,996.9835137216711,None,996.9835137216711,None,996.9835137216711,None,996.9835137216711,None,996.9835137216711,None,997.9985427150026,None,997.9985427150026,None,998.9817369438589,None,998.9817369438589,None,c,,,,,,,,,,,,,,,,,,,,,,,,,,,,,,,,,,,,,,,,,,,,,,,57_58Exp,001,2021_May_20_1100,ComputerHuman,2020.1.3,60.05553918085204,
Computer.xlsx,c,Sychronize.jpg,Number10.jpg,10,Computer,,,,,0,4,4,5,0,7,7,9,,,,,,,,,,,,,,,,,,,,,,,,,,,,,1000.0320676477919,None,1000.0320676477919,None,1000.480760983127,None,1000.480760983127,None,v,10.558941452300132,1000.480760983127,None,t,9.126882593768414,1000.480760983127,None,10.558941452300132,9.126882593768414,10.40766363731307,False,True,False,1011.1125281921935,None,1011.1125281921935,None,1011.1125281921935,None,1011.1125281921935,None,1011.1125281921935,None,1011.1125281921935,None,1011.1125281921935,None,1011.1125281921935,None,1012.1282936870338,None,1012.1282936870338,None,1013.0949066878892,None,1013.0949066878892,None,c,,,,,,,,,,,,,,,,,,,,,,,,,,,,,,,,,,,,,,,,,,,,,,,57_58Exp,001,2021_May_20_1100,ComputerHuman,2020.1.3,60.05553918085204,
Computer.xlsx,c,Sychronize.jpg,Number6.jpg,6,Computer,,,,,0,4,4,5,0,8,8,1,,,,,,,,,,,,,,,,,,,,,,,,,,,,,1014.1618891905251,None,1014.1618891905251,None,1014.5946790973752,None,1014.5946790973752,None,v,6.460189623476481,1014.5946790973752,None,t,5.822987187247463,1014.5946790973752,None,6.460189623476481,5.822987187247463,6.057748485498026,False,False,True,1021.1266465026926,None,1021.1266465026926,None,1021.1266465026926,None,1021.1266465026926,None,1021.1266465026926,None,1021.1266465026926,None,1021.1266465026926,None,1021.1266465026926,None,1022.1425149666026,None,1022.1425149666026,None,1023.1257066292513,None,1023.1257066292513,None,c,,,,,,,,,,,,,,,,,,,,,,,,,,,,,,,,,,,,,,,,,,,,,,,57_58Exp,001,2021_May_20_1100,ComputerHuman,2020.1.3,60.05553918085204,
Computer.xlsx,c,Sychronize.jpg,Number8.jpg,8,Computer,,,,,0,4,4,5,0,9,9,4,,,,,,,,,,,,,,,,,,,,,,,,,,,,,1024.1751321035426,None,1024.1751321035426,None,1024.6259085576921,None,1024.6259085576921,None,v,9.288005450624496,1024.6259085576921,None,t,7.946788086767356,1024.6259085576921,None,9.288005450624496,7.946788086767356,7.723707895395309,False,False,True,1033.9896007654997,None,1033.9896007654997,None,1033.9896007654997,None,1033.9896007654997,None,1033.9896007654997,None,1033.9896007654997,None,1033.9896007654997,None,1033.9896007654997,None,1034.989213909742,None,1034.989213909742,None,1035.9724896156818,None,1035.9724896156818,None,c,,,,,,,,,,,,,,,,,,,,,,,,,,,,,,,,,,,,,,,,,,,,,,,57_58Exp,001,2021_May_20_1100,ComputerHuman,2020.1.3,60.05553918085204,
Computer.xlsx,c,,,,,,,,,0,4,4,5,,,,,,,,,,,,,,,,,,,,,,,,,,,,,,,,,,,,,,,,,,,,,,,,,,,,,,,,,,,,,,,,,,,,,,,,,,,,,,,c,1036.9901881062065,None,1036.9901881062065,None,q,0,3.56306727216338,1036.9901881062065,None,o,0,3.6421115908849515,1036.9901881062065,None,h,h,1040.7223867268058,None,1040.7223867268058,None,None,None,1042.7208389829993,None,1042.7208389829993,None,"['space', 'space']",1043.7038718615686,None,"[6.556598184216, 6.7846185380894894]",,,,,,,,,,,,,,,,,57_58Exp,001,2021_May_20_1100,ComputerHuman,2020.1.3,60.05553918085204,
Computer.xlsx,c,Sychronize.jpg,Number10.jpg,10,Computer,,,,,0,5,5,7,0,0,0,9,,,,,,,,,,,,,,,,,,,,,,,,,1050.5554918280732,None,1050.5554918280732,None,1053.6350185937763,None,1053.6350185937763,None,1054.0683008916608,None,1054.0683008916608,None,v,10.267047555992349,1054.0683008916608,None,t,9.598688154803767,1054.0683008916608,None,10.267047555992349,9.598688154803767,10.406020768747188,False,True,False,1064.4164864707946,None,1064.4164864707946,None,1064.4164864707946,None,1064.4164864707946,None,1064.4164864707946,None,1064.4164864707946,None,1064.4164864707946,None,1064.4164864707946,None,1065.4317691978772,None,1065.4317691978772,None,1066.4148665524062,None,1066.4148665524062,None,c,,,,,,,,,,,,,,,,,,,,,,,,,,,,,,,,,,,,,,,,,,,,,,,57_58Exp,001,2021_May_20_1100,ComputerHuman,2020.1.3,60.05553918085204,
Computer.xlsx,c,Sychronize.jpg,Number7.jpg,7,Computer,,,,,0,5,5,7,0,1,1,3,,,,,,,,,,,,,,,,,,,,,,,,,,,,,1067.464624350549,None,1067.464624350549,None,1067.9147829902795,None,1067.9147829902795,None,v,6.499704084215182,1067.9147829902795,None,t,6.162948392607859,1067.9147829902795,None,6.499704084215182,6.162948392607859,6.689702362899084,False,True,False,1074.4977694846511,None,1074.4977694846511,None,1074.4977694846511,None,1074.4977694846511,None,1074.4977694846511,None,1074.4977694846511,None,1074.4977694846511,None,1074.4977694846511,None,1075.512517799054,None,1075.512517799054,None,1076.4957117071344,None,1076.4957117071344,None,c,,,,,,,,,,,,,,,,,,,,,,,,,,,,,,,,,,,,,,,,,,,,,,,57_58Exp,001,2021_May_20_1100,ComputerHuman,2020.1.3,60.05553918085204,
Computer.xlsx,c,Sychronize.jpg,Number9.jpg,9,Computer,,,,,0,5,5,7,0,2,2,7,,,,,,,,,,,,,,,,,,,,,,,,,,,,,1077.545575040554,None,1077.545575040554,None,1077.9957574177024,None,1077.9957574177024,None,v,8.797706195562341,1077.9957574177024,None,t,8.860766250267488,1077.9957574177024,None,8.797706195562341,8.860766250267488,9.340929966778022,False,False,False,1086.9430953143942,None,1086.9430953143942,None,1086.9430953143942,None,1086.9430953143942,None,1086.9430953143942,None,1086.9430953143942,None,1086.9430953143942,None,1086.9430953143942,None,1087.9428293911578,None,1087.9428293911578,None,1088.9258478348106,None,1088.9258478348106,None,c,,,,,,,,,,,,,,,,,,,,,,,,,,,,,,,,,,,,,,,,,,,,,,,57_58Exp,001,2021_May_20_1100,ComputerHuman,2020.1.3,60.05553918085204,
Computer.xlsx,c,Sychronize.jpg,Number9.jpg,9,Computer,,,,,0,5,5,7,0,3,3,6,,,,,,,,,,,,,,,,,,,,,,,,,,,,,1089.9761727647774,None,1089.9761727647774,None,1090.425559617648,None,1090.425559617648,None,v,8.762895272115657,1090.425559617648,None,t,8.601678427915886,1090.425559617648,None,8.762895272115657,8.601678427915886,9.12014888180837,False,False,False,1099.273306856489,None,1099.273306856489,None,1099.273306856489,None,1099.273306856489,None,1099.273306856489,None,1099.273306856489,None,1099.273306856489,None,1099.273306856489,None,1100.2562614657345,None,1100.2562614657345,None,1101.23956892849,None,1101.23956892849,None,c,,,,,,,,,,,,,,,,,,,,,,,,,,,,,,,,,,,,,,,,,,,,,,,57_58Exp,001,2021_May_20_1100,ComputerHuman,2020.1.3,60.05553918085204,
Computer.xlsx,c,Sychronize.jpg,Number6.jpg,6,Computer,,,,,0,5,5,7,0,4,4,0,,,,,,,,,,,,,,,,,,,,,,,,,,,,,1102.306023113188,None,1102.306023113188,None,1102.7560245727186,None,1102.7560245727186,None,v,6.319686563434516,1102.7560245727186,None,t,5.711020673687017,1102.7560245727186,None,6.319686563434516,5.711020673687017,5.616954558335591,False,False,True,1109.1708760486567,None,1109.1708760486567,None,1109.1708760486567,None,1109.1708760486567,None,1109.1708760486567,None,1109.1708760486567,None,1109.1708760486567,None,1109.1708760486567,None,1110.1705857464503,None,1110.1705857464503,None,1111.1537100461564,None,1111.1537100461564,None,c,,,,,,,,,,,,,,,,,,,,,,,,,,,,,,,,,,,,,,,,,,,,,,,57_58Exp,001,2021_May_20_1100,ComputerHuman,2020.1.3,60.05553918085204,
Computer.xlsx,c,Sychronize.jpg,Number8.jpg,8,Computer,,,,,0,5,5,7,0,5,5,5,,,,,,,,,,,,,,,,,,,,,,,,,,,,,1112.2038810036825,None,1112.2038810036825,None,1112.6370125368853,None,1112.6370125368853,None,v,8.481690270962645,1112.6370125368853,None,t,7.312886113963259,1112.6370125368853,None,8.481690270962645,7.312886113963259,8.242608453482465,False,True,False,1121.186195985746,None,1121.186195985746,None,1121.186195985746,None,1121.186195985746,None,1121.186195985746,None,1121.186195985746,None,1121.186195985746,None,1121.186195985746,None,1122.200895862985,None,1122.200895862985,None,1123.1840147095004,None,1123.1840147095004,None,c,,,,,,,,,,,,,,,,,,,,,,,,,,,,,,,,,,,,,,,,,,,,,,,57_58Exp,001,2021_May_20_1100,ComputerHuman,2020.1.3,60.05553918085204,
Computer.xlsx,c,Sychronize.jpg,Number8.jpg,8,Computer,,,,,0,5,5,7,0,6,6,4,,,,,,,,,,,,,,,,,,,,,,,,,,,,,1124.2343595275743,None,1124.2343595275743,None,1124.684063948604,None,1124.684063948604,None,v,8.445672588510888,1124.684063948604,None,t,7.548847596474161,1124.684063948604,None,8.445672588510888,7.548847596474161,7.899167370810237,False,False,False,1133.2148525024213,None,1133.2148525024213,None,1133.2148525024213,None,1133.2148525024213,None,1133.2148525024213,None,1133.2148525024213,None,1133.2148525024213,None,1133.2148525024213,None,1134.1978526618468,None,1134.1978526618468,None,1135.1810369466498,None,1135.1810369466498,None,c,,,,,,,,,,,,,,,,,,,,,,,,,,,,,,,,,,,,,,,,,,,,,,,57_58Exp,001,2021_May_20_1100,ComputerHuman,2020.1.3,60.05553918085204,
Computer.xlsx,c,Sychronize.jpg,Number10.jpg,10,Computer,,,,,0,5,5,7,0,7,7,8,,,,,,,,,,,,,,,,,,,,,,,,,,,,,1136.2482853725219,None,1136.2482853725219,None,1136.6978929192246,None,1136.6978929192246,None,v,9.31076835134968,1136.6978929192246,None,t,10.26547350856049,1136.6978929192246,None,9.31076835134968,10.26547350856049,10.457765375302067,False,False,True,1147.0289715186268,None,1147.0289715186268,None,1147.0289715186268,None,1147.0289715186268,None,1147.0289715186268,None,1147.0289715186268,None,1147.0289715186268,None,1147.0289715186268,None,1148.0444605046255,None,1148.0444605046255,None,1149.0276322791674,None,1149.0276322791674,None,c,,,,,,,,,,,,,,,,,,,,,,,,,,,,,,,,,,,,,,,,,,,,,,,57_58Exp,001,2021_May_20_1100,ComputerHuman,2020.1.3,60.05553918085204,
Computer.xlsx,c,Sychronize.jpg,Number7.jpg,7,Computer,,,,,0,5,5,7,0,8,8,2,,,,,,,,,,,,,,,,,,,,,,,,,,,,,1150.0778532777367,None,1150.0778532777367,None,1150.527760749923,None,1150.527760749923,None,v,9.571805528957839,1150.527760749923,None,t,6.514929713184756,1150.527760749923,None,9.571805528957839,6.514929713184756,6.792575312204813,False,False,True,1160.1913518170832,None,1160.1913518170832,None,1160.1913518170832,None,1160.1913518170832,None,1160.1913518170832,None,1160.1913518170832,None,1160.1913518170832,None,1160.1913518170832,None,1161.1911753903282,None,1161.1911753903282,None,1162.1575927178733,None,1162.1575927178733,None,c,,,,,,,,,,,,,,,,,,,,,,,,,,,,,,,,,,,,,,,,,,,,,,,57_58Exp,001,2021_May_20_1100,ComputerHuman,2020.1.3,60.05553918085204,
Computer.xlsx,c,Sychronize.jpg,Number6.jpg,6,Computer,,,,,0,5,5,7,0,9,9,1,,,,,,,,,,,,,,,,,,,,,,,,,,,,,1163.2078643990376,None,1163.2078643990376,None,1163.6577972125215,None,1163.6577972125215,None,v,6.4209321042483225,1163.6577972125215,None,t,5.556073394813211,1163.6577972125215,None,6.4209321042483225,5.556073394813211,5.81361289996142,False,False,True,1170.1567882118702,None,1170.1567882118702,None,1170.1567882118702,None,1170.1567882118702,None,1170.1567882118702,None,1170.1567882118702,None,1170.1567882118702,None,1170.1567882118702,None,1171.172038219809,None,1171.172038219809,None,1172.1552321278896,None,1172.1552321278896,None,c,,,,,,,,,,,,,,,,,,,,,,,,,,,,,,,,,,,,,,,,,,,,,,,57_58Exp,001,2021_May_20_1100,ComputerHuman,2020.1.3,60.05553918085204,
Computer.xlsx,c,,,,,,,,,0,5,5,7,,,,,,,,,,,,,,,,,,,,,,,,,,,,,,,,,,,,,,,,,,,,,,,,,,,,,,,,,,,,,,,,,,,,,,,,,,,,,,,c,1173.1557046308176,None,1173.1557046308176,None,a,1,7.638255222793305,1173.1557046308176,None,l,0,2.934253767753944,1173.1557046308176,None,c,c,1180.8701829481297,None,1180.8701829481297,None,1182.8691263122541,None,None,None,None,None,None,None,None,,,,,,,,,,,,,,,,,,57_58Exp,001,2021_May_20_1100,ComputerHuman,2020.1.3,60.05553918085204,
Human.xlsx,h,Sychronize.jpg,Number10.jpg,10,Human,,,,,0,6,6,0,0,0,0,8,,,,,,,,,,,,,,,,,,,,,,,,,1187.8876552916317,None,1187.8876552916317,None,1190.950766670484,None,1190.950766670484,None,1191.4006423858546,None,1191.4006423858546,None,v,10.891486318425905,1191.4006423858546,None,t,9.226695549330316,1191.4006423858546,None,10.891486318425905,9.226695549330316,10.615661864244144,False,False,False,1202.3480335313484,None,1202.3480335313484,None,1202.3480335313484,None,1202.3480335313484,None,1202.3480335313484,None,1202.3480335313484,None,1202.3480335313484,None,1202.3480335313484,None,1203.3659228835445,None,1203.3659228835445,None,1204.3804155395405,None,1204.3804155395405,None,h,,,,,,,,,,,,,,,,,,,,,,,,,,,,,,,,,,,,,,,,,,,,,,,57_58Exp,001,2021_May_20_1100,ComputerHuman,2020.1.3,60.05553918085204,
Human.xlsx,h,Sychronize.jpg,Number9.jpg,9,Human,,,,,0,6,6,0,0,1,1,6,,,,,,,,,,,,,,,,,,,,,,,,,,,,,1205.4140322142425,None,1205.4140322142425,None,1205.8804420035535,None,1205.8804420035535,None,v,10.230580466478841,1205.8804420035535,None,t,9.413638301414494,1205.8804420035535,None,10.230580466478841,9.413638301414494,9.350873451196636,False,False,False,1216.1940861110124,None,1216.1940861110124,None,1216.1940861110124,None,1216.1940861110124,None,1216.1940861110124,None,1216.1940861110124,None,1216.1940861110124,None,1216.1940861110124,None,1217.1627148677394,None,1217.1627148677394,None,1218.1603379181838,None,1218.1603379181838,None,h,,,,,,,,,,,,,,,,,,,,,,,,,,,,,,,,,,,,,,,,,,,,,,,57_58Exp,001,2021_May_20_1100,ComputerHuman,2020.1.3,60.05553918085204,
Human.xlsx,h,Sychronize.jpg,Number8.jpg,8,Human,,,,,0,6,6,0,0,2,2,4,,,,,,,,,,,,,,,,,,,,,,,,,,,,,1219.2271911481243,None,1219.2271911481243,None,1219.6771509067853,None,1219.6771509067853,None,v,6.824957713714639,1219.6771509067853,None,t,8.171851207448753,1219.6771509067853,None,6.824957713714639,8.171851207448753,7.9080402578241085,False,False,False,1227.9262821654042,None,1227.9262821654042,None,1227.9262821654042,None,1227.9262821654042,None,1227.9262821654042,None,1227.9262821654042,None,1227.9262821654042,None,1227.9262821654042,None,1228.9258067754931,None,1228.9258067754931,None,1229.9073897469111,None,1229.9073897469111,None,h,,,,,,,,,,,,,,,,,,,,,,,,,,,,,,,,,,,,,,,,,,,,,,,57_58Exp,001,2021_May_20_1100,ComputerHuman,2020.1.3,60.05553918085204,
Human.xlsx,h,Sychronize.jpg,Number8.jpg,8,Human,,,,,0,6,6,0,0,3,3,5,,,,,,,,,,,,,,,,,,,,,,,,,,,,,1230.9576457100552,None,1230.9576457100552,None,1231.407248445119,None,1231.407248445119,None,v,9.10579029402652,1231.407248445119,None,t,7.892797650380771,1231.407248445119,None,9.10579029402652,7.892797650380771,8.110026842511505,False,False,False,1240.6045907524795,None,1240.6045907524795,None,1240.6045907524795,None,1240.6045907524795,None,1240.6045907524795,None,1240.6045907524795,None,1240.6045907524795,None,1240.6045907524795,None,1241.5899454071464,None,1241.5899454071464,None,1242.5875065478385,None,1242.5875065478385,None,h,,,,,,,,,,,,,,,,,,,,,,,,,,,,,,,,,,,,,,,,,,,,,,,57_58Exp,001,2021_May_20_1100,ComputerHuman,2020.1.3,60.05553918085204,
Human.xlsx,h,Sychronize.jpg,Number9.jpg,9,Human,,,,,0,6,6,0,0,4,4,7,,,,,,,,,,,,,,,,,,,,,,,,,,,,,1243.6371896051924,None,1243.6371896051924,None,1244.0874685358922,None,1244.0874685358922,None,v,8.15662878623857,1244.0874685358922,None,t,8.903927933199157,1244.0874685358922,None,8.15662878623857,8.903927933199157,9.517464511169637,False,False,False,1253.0684551848776,None,1253.0684551848776,None,1253.0684551848776,None,1253.0684551848776,None,1253.0684551848776,None,1253.0684551848776,None,1253.0684551848776,None,1253.0684551848776,None,1254.0711448909537,None,1254.0711448909537,None,1255.0677045692287,None,1255.0677045692287,None,h,,,,,,,,,,,,,,,,,,,,,,,,,,,,,,,,,,,,,,,,,,,,,,,57_58Exp,001,2021_May_20_1100,ComputerHuman,2020.1.3,60.05553918085204,
Human.xlsx,h,Sychronize.jpg,Number7.jpg,7,Human,,,,,0,6,6,0,0,5,5,2,,,,,,,,,,,,,,,,,,,,,,,,,,,,,1256.117643926541,None,1256.117643926541,None,1256.5679199702577,None,1256.5679199702577,None,v,8.367086017024803,1256.5679199702577,None,t,7.3148697922429164,1256.5679199702577,None,8.367086017024803,7.3148697922429164,7.469315998739785,False,False,False,1265.0169113064208,None,1265.0169113064208,None,1265.0169113064208,None,1265.0169113064208,None,1265.0169113064208,None,1265.0169113064208,None,1265.0169113064208,None,1265.0169113064208,None,1266.000547243717,None,1266.000547243717,None,1266.9980721367301,None,1266.9980721367301,None,h,,,,,,,,,,,,,,,,,,,,,,,,,,,,,,,,,,,,,,,,,,,,,,,57_58Exp,001,2021_May_20_1100,ComputerHuman,2020.1.3,60.05553918085204,
Human.xlsx,h,Sychronize.jpg,Number10.jpg,10,Human,,,,,0,6,6,0,0,6,6,9,,,,,,,,,,,,,,,,,,,,,,,,,,,,,1268.0482995508173,None,1268.0482995508173,None,1268.4979417413192,None,1268.4979417413192,None,v,11.291874649752799,1268.4979417413192,None,t,10.5316026830983,1268.4979417413192,None,11.291874649752799,10.5316026830983,10.326241852846385,False,False,False,1279.878201383763,None,1279.878201383763,None,1279.878201383763,None,1279.878201383763,None,1279.878201383763,None,1279.878201383763,None,1279.878201383763,None,1279.878201383763,None,1280.8468638219615,None,1280.8468638219615,None,1281.8443235974637,None,1281.8443235974637,None,h,,,,,,,,,,,,,,,,,,,,,,,,,,,,,,,,,,,,,,,,,,,,,,,57_58Exp,001,2021_May_20_1100,ComputerHuman,2020.1.3,60.05553918085204,
Human.xlsx,h,Sychronize.jpg,Number6.jpg,6,Human,,,,,0,6,6,0,0,7,7,1,,,,,,,,,,,,,,,,,,,,,,,,,,,,,1282.893972331794,None,1282.893972331794,None,1283.3442958503465,None,1283.3442958503465,None,v,5.2730017985907125,1283.3442958503465,None,t,6.291960617698805,1283.3442958503465,None,5.2730017985907125,6.291960617698805,5.683123191376827,False,False,False,1289.7257205509263,None,1289.7257205509263,None,1289.7257205509263,None,1289.7257205509263,None,1289.7257205509263,None,1289.7257205509263,None,1289.7257205509263,None,1289.7257205509263,None,1290.7107069548388,None,1290.7107069548388,None,1291.7085532653223,None,1291.7085532653223,None,h,,,,,,,,,,,,,,,,,,,,,,,,,,,,,,,,,,,,,,,,,,,,,,,57_58Exp,001,2021_May_20_1100,ComputerHuman,2020.1.3,60.05553918085204,
Human.xlsx,h,Sychronize.jpg,Number6.jpg,6,Human,,,,,0,6,6,0,0,8,8,0,,,,,,,,,,,,,,,,,,,,,,,,,,,,,1292.7590411494557,None,1292.7590411494557,None,1293.2085749176968,None,1293.2085749176968,None,v,6.619604669342607,1293.2085749176968,None,t,5.798987053804694,1293.2085749176968,None,6.619604669342607,5.798987053804694,5.8674356348866334,False,False,False,1299.9229932499125,None,1299.9229932499125,None,1299.9229932499125,None,1299.9229932499125,None,1299.9229932499125,None,1299.9229932499125,None,1299.9229932499125,None,1299.9229932499125,None,1300.8919145542773,None,1300.8919145542773,None,1301.889381386849,None,1301.889381386849,None,h,,,,,,,,,,,,,,,,,,,,,,,,,,,,,,,,,,,,,,,,,,,,,,,57_58Exp,001,2021_May_20_1100,ComputerHuman,2020.1.3,60.05553918085204,
Human.xlsx,h,Sychronize.jpg,Number7.jpg,7,Human,,,,,0,6,6,0,0,9,9,3,,,,,,,,,,,,,,,,,,,,,,,,,,,,,1302.9557855305043,None,1302.9557855305043,None,1303.4060166655922,None,1303.4060166655922,None,v,6.805698006794728,1303.4060166655922,None,t,6.268976381589937,1303.4060166655922,None,6.805698006794728,6.268976381589937,6.60850666634471,False,False,False,1310.3038469693574,None,1310.3038469693574,None,1310.3038469693574,None,1310.3038469693574,None,1310.3038469693574,None,1310.3038469693574,None,1310.3038469693574,None,1310.3038469693574,None,1311.2893873532812,None,1311.2893873532812,None,1312.2700865870438,None,1312.2700865870438,None,h,,,,,,,,,,,,,,,,,,,,,,,,,,,,,,,,,,,,,,,,,,,,,,,57_58Exp,001,2021_May_20_1100,ComputerHuman,2020.1.3,60.05553918085204,
Human.xlsx,h,,,,,,,,,0,6,6,0,,,,,,,,,,,,,,,,,,,,,,,,,,,,,,,,,,,,,,,,,,,,,,,,,,,,,,,,,,,,,,,,,,,,,,,,,,,,,,,h,1313.2708388065726,None,1313.2708388065726,None,q,0,3.399958170820355,1313.2708388065726,None,o,1,5.987128545496034,1313.2708388065726,None,h,h,1319.351721171307,None,1319.351721171307,None,1321.351154360259,None,None,None,None,None,None,None,None,,,,,,,,,,,,,,,,,,57_58Exp,001,2021_May_20_1100,ComputerHuman,2020.1.3,60.05553918085204,
Computer.xlsx,c,Sychronize.jpg,Number10.jpg,10,Computer,,,,,0,7,7,1,0,0,0,9,,,,,,,,,,,,,,,,,,,,,,,,,1326.3528393961587,None,1326.3528393961587,None,1329.416338593096,None,1329.416338593096,None,1329.849320965497,None,1329.849320965497,None,v,11.439486424923416,1329.849320965497,None,t,9.878610052283193,1329.849320965497,None,11.439486424923416,9.878610052283193,9.570811565810764,False,False,False,1341.3643071352435,None,1341.3643071352435,None,1341.3643071352435,None,1341.3643071352435,None,1341.3643071352435,None,1341.3643071352435,None,1341.3643071352435,None,1341.3643071352435,None,1342.3958028395728,None,1342.3958028395728,None,1343.3789877659274,None,1343.3789877659274,None,c,,,,,,,,,,,,,,,,,,,,,,,,,,,,,,,,,,,,,,,,,,,,,,,57_58Exp,001,2021_May_20_1100,ComputerHuman,2020.1.3,60.05553918085204,
Computer.xlsx,c,Sychronize.jpg,Number9.jpg,9,Computer,,,,,0,7,7,1,0,1,1,6,,,,,,,,,,,,,,,,,,,,,,,,,,,,,1344.4291102862894,None,1344.4291102862894,None,1344.8791210483214,None,1344.8791210483214,None,v,9.236659170133407,1344.8791210483214,None,t,9.291724205847231,1344.8791210483214,None,9.236659170133407,9.291724205847231,9.394069916049835,False,True,True,1354.243081745573,None,1354.243081745573,None,1354.243081745573,None,1354.243081745573,None,1354.243081745573,None,1354.243081745573,None,1354.243081745573,None,1354.243081745573,None,1355.2593357821365,None,1355.2593357821365,None,1356.2424247964918,None,1356.2424247964918,None,c,,,,,,,,,,,,,,,,,,,,,,,,,,,,,,,,,,,,,,,,,,,,,,,57_58Exp,001,2021_May_20_1100,ComputerHuman,2020.1.3,60.05553918085204,
Computer.xlsx,c,Sychronize.jpg,Number6.jpg,6,Computer,,,,,0,7,7,1,0,2,2,0,,,,,,,,,,,,,,,,,,,,,,,,,,,,,1357.2923904574295,None,1357.2923904574295,None,1357.7422639273686,None,1357.7422639273686,None,v,6.068728806735862,1357.7422639273686,None,t,5.852166889445471,1357.7422639273686,None,6.068728806735862,5.852166889445471,5.606426417777084,False,False,True,1363.8923171280549,None,1363.8923171280549,None,1363.8923171280549,None,1363.8923171280549,None,1363.8923171280549,None,1363.8923171280549,None,1363.8923171280549,None,1363.8923171280549,None,1364.8902349715681,None,1364.8902349715681,None,1365.8733490064446,None,1365.8733490064446,None,c,,,,,,,,,,,,,,,,,,,,,,,,,,,,,,,,,,,,,,,,,,,,,,,57_58Exp,001,2021_May_20_1100,ComputerHuman,2020.1.3,60.05553918085204,
Computer.xlsx,c,Sychronize.jpg,Number9.jpg,9,Computer,,,,,0,7,7,1,0,3,3,7,,,,,,,,,,,,,,,,,,,,,,,,,,,,,1366.9403026392479,None,1366.9403026392479,None,1367.373331524157,None,1367.373331524157,None,v,9.20063346828374,1367.373331524157,None,t,8.631771379153633,1367.373331524157,None,9.20063346828374,8.631771379153633,9.46185444320178,False,True,False,1376.6542365998266,None,1376.6542365998266,None,1376.6542365998266,None,1376.6542365998266,None,1376.6542365998266,None,1376.6542365998266,None,1376.6542365998266,None,1376.6542365998266,None,1377.6703815725782,None,1377.6703815725782,None,1378.636894812123,None,1378.636894812123,None,c,,,,,,,,,,,,,,,,,,,,,,,,,,,,,,,,,,,,,,,,,,,,,,,57_58Exp,001,2021_May_20_1100,ComputerHuman,2020.1.3,60.05553918085204,
Computer.xlsx,c,Sychronize.jpg,Number8.jpg,8,Computer,,,,,0,7,7,1,0,4,4,4,,,,,,,,,,,,,,,,,,,,,,,,,,,,,1379.7032527640458,None,1379.7032527640458,None,1380.1371169494469,None,1380.1371169494469,None,v,8.207881400161341,1380.1371169494469,None,t,8.054861984556965,1380.1371169494469,None,8.207881400161341,8.054861984556965,7.831987953600432,False,False,True,1388.4192717680944,None,1388.4192717680944,None,1388.4192717680944,None,1388.4192717680944,None,1388.4192717680944,None,1388.4192717680944,None,1388.4192717680944,None,1388.4192717680944,None,1389.434050876985,None,1389.434050876985,None,1390.4172685224835,None,1390.4172685224835,None,c,,,,,,,,,,,,,,,,,,,,,,,,,,,,,,,,,,,,,,,,,,,,,,,57_58Exp,001,2021_May_20_1100,ComputerHuman,2020.1.3,60.05553918085204,
Computer.xlsx,c,Sychronize.jpg,Number7.jpg,7,Computer,,,,,0,7,7,1,0,5,5,2,,,,,,,,,,,,,,,,,,,,,,,,,,,,,1391.4670747577902,None,1391.4670747577902,None,1391.9173360458144,None,1391.9173360458144,None,v,6.698795903434984,1391.9173360458144,None,t,7.054169750125311,1391.9173360458144,None,6.698795903434984,7.054169750125311,6.641879534200673,False,True,False,1399.0649702752994,None,1399.0649702752994,None,1399.0649702752994,None,1399.0649702752994,None,1399.0649702752994,None,1399.0649702752994,None,1399.0649702752994,None,1399.0649702752994,None,1400.0481956194199,None,1400.0481956194199,None,1401.0312342719558,None,1401.0312342719558,None,c,,,,,,,,,,,,,,,,,,,,,,,,,,,,,,,,,,,,,,,,,,,,,,,57_58Exp,001,2021_May_20_1100,ComputerHuman,2020.1.3,60.05553918085204,
Computer.xlsx,c,Sychronize.jpg,Number8.jpg,8,Computer,,,,,0,7,7,1,0,6,6,5,,,,,,,,,,,,,,,,,,,,,,,,,,,,,1402.097665040012,None,1402.097665040012,None,1402.5313816684902,None,1402.5313816684902,None,v,8.659706470788024,1402.5313816684902,None,t,8.454823683912764,1402.5313816684902,None,8.659706470788024,8.454823683912764,7.854939606657482,False,False,False,1411.278648737859,None,1411.278648737859,None,1411.278648737859,None,1411.278648737859,None,1411.278648737859,None,1411.278648737859,None,1411.278648737859,None,1411.278648737859,None,1412.2783706251375,None,1412.2783706251375,None,1413.2448161809639,None,1413.2448161809639,None,c,,,,,,,,,,,,,,,,,,,,,,,,,,,,,,,,,,,,,,,,,,,,,,,57_58Exp,001,2021_May_20_1100,ComputerHuman,2020.1.3,60.05553918085204,
Computer.xlsx,c,Sychronize.jpg,Number7.jpg,7,Computer,,,,,0,7,7,1,0,7,7,3,,,,,,,,,,,,,,,,,,,,,,,,,,,,,1414.294706138785,None,1414.294706138785,None,1414.7449122533512,None,1414.7449122533512,None,v,6.005681583067599,1414.7449122533512,None,t,7.0689033088356155,1414.7449122533512,None,6.005681583067599,7.0689033088356155,6.520203977418677,False,False,False,1421.8936076095747,None,1421.8936076095747,None,1421.8936076095747,None,1421.8936076095747,None,1421.8936076095747,None,1421.8936076095747,None,1421.8936076095747,None,1421.8936076095747,None,1422.9089378114936,None,1422.9089378114936,None,1423.8921766282024,None,1423.8921766282024,None,c,,,,,,,,,,,,,,,,,,,,,,,,,,,,,,,,,,,,,,,,,,,,,,,57_58Exp,001,2021_May_20_1100,ComputerHuman,2020.1.3,60.05553918085204,
Computer.xlsx,c,Sychronize.jpg,Number10.jpg,10,Computer,,,,,0,7,7,1,0,8,8,8,,,,,,,,,,,,,,,,,,,,,,,,,,,,,1424.9416999391487,None,1424.9416999391487,None,1425.392402614837,None,1425.392402614837,None,v,11.33663892917275,1425.392402614837,None,t,10.959604047037374,1425.392402614837,None,11.33663892917275,10.959604047037374,10.44287966745542,False,False,False,1436.8074359707207,None,1436.8074359707207,None,1436.8074359707207,None,1436.8074359707207,None,1436.8074359707207,None,1436.8074359707207,None,1436.8074359707207,None,1436.8074359707207,None,1437.8219959896596,None,1437.8219959896596,None,1438.8051347242817,None,1438.8051347242817,None,c,,,,,,,,,,,,,,,,,,,,,,,,,,,,,,,,,,,,,,,,,,,,,,,57_58Exp,001,2021_May_20_1100,ComputerHuman,2020.1.3,60.05553918085204,
Computer.xlsx,c,Sychronize.jpg,Number6.jpg,6,Computer,,,,,0,7,7,1,0,9,9,1,,,,,,,,,,,,,,,,,,,,,,,,,,,,,1439.8550150588253,None,1439.8550150588253,None,1440.3052628742612,None,1440.3052628742612,None,v,7.4788940672810895,1440.3052628742612,None,t,6.154375976963365,1440.3052628742612,None,7.4788940672810895,6.154375976963365,5.9233161400227266,False,False,True,1447.854391149664,None,1447.854391149664,None,1447.854391149664,None,1447.854391149664,None,1447.854391149664,None,1447.854391149664,None,1447.854391149664,None,1447.854391149664,None,1448.8525659346878,None,1448.8525659346878,None,1449.8357158964677,None,1449.8357158964677,None,c,,,,,,,,,,,,,,,,,,,,,,,,,,,,,,,,,,,,,,,,,,,,,,,57_58Exp,001,2021_May_20_1100,ComputerHuman,2020.1.3,60.05553918085204,
Computer.xlsx,c,,,,,,,,,0,7,7,1,,,,,,,,,,,,,,,,,,,,,,,,,,,,,,,,,,,,,,,,,,,,,,,,,,,,,,,,,,,,,,,,,,,,,,,,,,,,,,,c,1450.8365515177352,None,1450.8365515177352,None,q,0,2.9110841231640734,1450.8365515177352,None,l,1,16.65716785016957,1450.8365515177352,None,h,c,1467.5816802948316,None,1467.5816802948316,None,1469.580753893979,None,None,None,None,None,None,None,None,,,,,,,,,,,,,,,,,,57_58Exp,001,2021_May_20_1100,ComputerHuman,2020.1.3,60.05553918085204,
Computer.xlsx,c,Sychronize.jpg,Number7.jpg,7,Computer,,,,,0,8,8,3,0,0,0,3,,,,,,,,,,,,,,,,,,,,,,,,,1474.5828706942648,None,1474.5828706942648,None,1477.6454572837142,None,1477.6454572837142,None,1478.0790674145878,None,1478.0790674145878,None,v,7.722230508933535,1478.0790674145878,None,t,6.336897153787504,1478.0790674145878,None,7.722230508933535,6.336897153787504,6.712397125559896,False,False,False,1485.8781773255691,None,1485.8781773255691,None,1485.8781773255691,None,1485.8781773255691,None,1485.8781773255691,None,1485.8781773255691,None,1485.8781773255691,None,1485.8781773255691,None,1486.9097067113698,None,1486.9097067113698,None,1487.8928377473703,None,1487.8928377473703,None,c,,,,,,,,,,,,,,,,,,,,,,,,,,,,,,,,,,,,,,,,,,,,,,,57_58Exp,001,2021_May_20_1100,ComputerHuman,2020.1.3,60.05553918085204,
Computer.xlsx,c,Sychronize.jpg,Number9.jpg,9,Computer,,,,,0,8,8,3,0,1,1,7,,,,,,,,,,,,,,,,,,,,,,,,,,,,,1488.9423732478017,None,1488.9423732478017,None,1489.3928661360392,None,1489.3928661360392,None,v,9.11115751669422,1489.3928661360392,None,t,9.626612660832961,1489.3928661360392,None,9.11115751669422,9.626612660832961,8.737495039345573,False,False,False,1499.1067439608319,None,1499.1067439608319,None,1499.1067439608319,None,1499.1067439608319,None,1499.1067439608319,None,1499.1067439608319,None,1499.1067439608319,None,1499.1067439608319,None,1500.0896571899834,None,1500.0896571899834,None,1501.0728886288466,None,1501.0728886288466,None,c,,,,,,,,,,,,,,,,,,,,,,,,,,,,,,,,,,,,,,,,,,,,,,,57_58Exp,001,2021_May_20_1100,ComputerHuman,2020.1.3,60.05553918085204,
Computer.xlsx,c,Sychronize.jpg,Number8.jpg,8,Computer,,,,,0,8,8,3,0,2,2,5,,,,,,,,,,,,,,,,,,,,,,,,,,,,,1502.1569469959495,None,1502.1569469959495,None,1502.5731486177283,None,1502.5731486177283,None,v,8.453853978311145,1502.5731486177283,None,t,6.8089586940059235,1502.5731486177283,None,8.453853978311145,6.8089586940059235,8.4228186615746,False,True,False,1511.1042534566009,None,1511.1042534566009,None,1511.1042534566009,None,1511.1042534566009,None,1511.1042534566009,None,1511.1042534566009,None,1511.1042534566009,None,1511.1042534566009,None,1512.1201543188786,None,1512.1201543188786,None,1513.0863788600968,None,1513.0863788600968,None,c,,,,,,,,,,,,,,,,,,,,,,,,,,,,,,,,,,,,,,,,,,,,,,,57_58Exp,001,2021_May_20_1100,ComputerHuman,2020.1.3,60.05553918085204,
Computer.xlsx,c,Sychronize.jpg,Number6.jpg,6,Computer,,,,,0,8,8,3,0,3,3,1,,,,,,,,,,,,,,,,,,,,,,,,,,,,,1514.1531435558845,None,1514.1531435558845,None,1514.5866054882836,None,1514.5866054882836,None,v,5.283691656073188,1514.5866054882836,None,t,2.615422392917935,1514.5866054882836,None,5.283691656073188,2.615422392917935,5.807722816944809,False,False,False,1519.9679968281675,None,1519.9679968281675,None,1519.9679968281675,None,1519.9679968281675,None,1519.9679968281675,None,1519.9679968281675,None,1519.9679968281675,None,1519.9679968281675,None,1520.9679137472049,None,1520.9679137472049,None,1521.9510188003555,None,1521.9510188003555,None,c,,,,,,,,,,,,,,,,,,,,,,,,,,,,,,,,,,,,,,,,,,,,,,,57_58Exp,001,2021_May_20_1100,ComputerHuman,2020.1.3,60.05553918085204,
Computer.xlsx,c,Sychronize.jpg,Number9.jpg,9,Computer,,,,,0,8,8,3,0,4,4,6,,,,,,,,,,,,,,,,,,,,,,,,,,,,,1523.0008827753277,None,1523.0008827753277,None,1523.4510648317,None,1523.4510648317,None,v,9.394202809291073,1523.4510648317,None,t,9.3297108108859,1523.4510648317,None,9.394202809291073,9.3297108108859,9.092097996462533,False,False,True,1532.9166720396634,None,1532.9166720396634,None,1532.9166720396634,None,1532.9166720396634,None,1532.9166720396634,None,1532.9166720396634,None,1532.9166720396634,None,1532.9166720396634,None,1533.9146360749087,None,1533.9146360749087,None,1534.8977536383204,None,1534.8977536383204,None,c,,,,,,,,,,,,,,,,,,,,,,,,,,,,,,,,,,,,,,,,,,,,,,,57_58Exp,001,2021_May_20_1100,ComputerHuman,2020.1.3,60.05553918085204,
Computer.xlsx,c,Sychronize.jpg,Number10.jpg,10,Computer,,,,,0,8,8,3,0,5,5,8,,,,,,,,,,,,,,,,,,,,,,,,,,,,,1535.9642986026038,None,1535.9642986026038,None,1536.4144017481003,None,1536.4144017481003,None,v,10.905680332041356,1536.4144017481003,None,t,9.208691038579218,1536.4144017481003,None,10.905680332041356,9.208691038579218,10.017035443812663,False,False,False,1547.396532925563,None,1547.396532925563,None,1547.396532925563,None,1547.396532925563,None,1547.396532925563,None,1547.396532925563,None,1547.396532925563,None,1547.396532925563,None,1548.394309306896,None,1548.394309306896,None,1549.3774294365153,None,1549.3774294365153,None,c,,,,,,,,,,,,,,,,,,,,,,,,,,,,,,,,,,,,,,,,,,,,,,,57_58Exp,001,2021_May_20_1100,ComputerHuman,2020.1.3,60.05553918085204,
Computer.xlsx,c,Sychronize.jpg,Number6.jpg,6,Computer,,,,,0,8,8,3,0,6,6,0,,,,,,,,,,,,,,,,,,,,,,,,,,,,,1550.4273729639149,None,1550.4273729639149,None,1550.8772275080746,None,1550.8772275080746,None,v,6.038055251085552,1550.8772275080746,None,t,10.54859001341174,1550.8772275080746,None,6.038055251085552,10.54859001341174,6.3132719108472735,False,True,False,1561.5244246803709,None,1561.5244246803709,None,1561.5244246803709,None,1561.5244246803709,None,1561.5244246803709,None,1561.5244246803709,None,1561.5244246803709,None,1561.5244246803709,None,1562.507399177723,None,1562.507399177723,None,1563.4906033506327,None,1563.4906033506327,None,c,,,,,,,,,,,,,,,,,,,,,,,,,,,,,,,,,,,,,,,,,,,,,,,57_58Exp,001,2021_May_20_1100,ComputerHuman,2020.1.3,60.05553918085204,
Computer.xlsx,c,Sychronize.jpg,Number8.jpg,8,Computer,,,,,0,8,8,3,0,7,7,4,,,,,,,,,,,,,,,,,,,,,,,,,,,,,1564.5408134428203,None,1564.5408134428203,None,1564.9907606912207,None,1564.9907606912207,None,v,9.66304093646022,1564.9907606912207,None,t,7.922829333417667,1564.9907606912207,None,9.66304093646022,7.922829333417667,7.508728968225984,False,False,False,1574.7377688944234,None,1574.7377688944234,None,1574.7377688944234,None,1574.7377688944234,None,1574.7377688944234,None,1574.7377688944234,None,1574.7377688944234,None,1574.7377688944234,None,1575.7374728182504,None,1575.7374728182504,None,1576.7206962377154,None,1576.7206962377154,None,c,,,,,,,,,,,,,,,,,,,,,,,,,,,,,,,,,,,,,,,,,,,,,,,57_58Exp,001,2021_May_20_1100,ComputerHuman,2020.1.3,60.05553918085204,
Computer.xlsx,c,Sychronize.jpg,Number7.jpg,7,Computer,,,,,0,8,8,3,0,8,8,2,,,,,,,,,,,,,,,,,,,,,,,,,,,,,1577.771366964122,None,1577.771366964122,None,1578.220662395856,None,1578.220662395856,None,v,8.352232808896588,1578.220662395856,None,t,7.4398970180991455,1578.220662395856,None,8.352232808896588,7.4398970180991455,6.9715213896740345,False,False,False,1586.6533066704387,None,1586.6533066704387,None,1586.6533066704387,None,1586.6533066704387,None,1586.6533066704387,None,1586.6533066704387,None,1586.6533066704387,None,1586.6533066704387,None,1587.6679802440526,None,1587.6679802440526,None,1588.6509958007223,None,1588.6509958007223,None,c,,,,,,,,,,,,,,,,,,,,,,,,,,,,,,,,,,,,,,,,,,,,,,,57_58Exp,001,2021_May_20_1100,ComputerHuman,2020.1.3,60.05553918085204,
Computer.xlsx,c,Sychronize.jpg,Number10.jpg,10,Computer,,,,,0,8,8,3,0,9,9,9,,,,,,,,,,,,,,,,,,,,,,,,,,,,,1589.7011026030646,None,1589.7011026030646,None,1590.1507752672783,None,1590.1507752672783,None,v,9.968986421876252,1590.1507752672783,None,t,9.408699635373978,1590.1507752672783,None,9.968986421876252,9.408699635373978,9.565079370572986,False,False,True,1600.214778403184,None,1600.214778403184,None,1600.214778403184,None,1600.214778403184,None,1600.214778403184,None,1600.214778403184,None,1600.214778403184,None,1600.214778403184,None,1601.1978026208035,None,1601.1978026208035,None,1602.180963168188,None,1602.180963168188,None,c,,,,,,,,,,,,,,,,,,,,,,,,,,,,,,,,,,,,,,,,,,,,,,,57_58Exp,001,2021_May_20_1100,ComputerHuman,2020.1.3,60.05553918085204,
Computer.xlsx,c,,,,,,,,,0,8,8,3,,,,,,,,,,,,,,,,,,,,,,,,,,,,,,,,,,,,,,,,,,,,,,,,,,,,,,,,,,,,,,,,,,,,,,,,,,,,,,,c,1603.1805621982903,None,1603.1805621982903,None,q,0,2.470729357829441,1603.1805621982903,None,o,0,5.462147960458424,1603.1805621982903,None,h,h,1608.7295865422952,None,1608.7295865422952,None,1610.728853569322,None,None,None,None,None,None,None,None,,,,,,,,,,,,,,,,,,57_58Exp,001,2021_May_20_1100,ComputerHuman,2020.1.3,60.05553918085204,
Computer.xlsx,c,Sychronize.jpg,Number9.jpg,9,Computer,,,,,0,9,9,9,0,0,0,6,,,,,,,,,,,,,,,,,,,,,,,,,1615.7138489549602,None,1615.7138489549602,None,1618.7939351538648,None,1618.7939351538648,None,1619.2438692504525,None,1619.2438692504525,None,v,11.429422401257852,1619.2438692504525,None,t,1.4253825493406111,1619.2438692504525,None,11.429422401257852,1.4253825493406111,8.706622775989441,False,False,False,1630.7570706229885,None,1630.7570706229885,None,1630.7570706229885,None,1630.7570706229885,None,1630.7570706229885,None,1630.7570706229885,None,1630.7570706229885,None,1630.7570706229885,None,1631.7735389378659,None,1631.7735389378659,None,1632.7399411889432,None,1632.7399411889432,None,c,,,,,,,,,,,,,,,,,,,,,,,,,,,,,,,,,,,,,,,,,,,,,,,57_58Exp,001,2021_May_20_1100,ComputerHuman,2020.1.3,60.05553918085204,
Computer.xlsx,c,Sychronize.jpg,Number9.jpg,9,Computer,,,,,0,9,9,9,0,1,1,7,,,,,,,,,,,,,,,,,,,,,,,,,,,,,1633.7897538397679,None,1633.7897538397679,None,1634.24025186042,None,1634.24025186042,None,v,9.915925273324774,1634.24025186042,None,t,9.33574203970511,1634.24025186042,None,9.915925273324774,9.33574203970511,9.158641406610133,False,False,True,1644.2385289729618,None,1644.2385289729618,None,1644.2385289729618,None,1644.2385289729618,None,1644.2385289729618,None,1644.2385289729618,None,1644.2385289729618,None,1644.2385289729618,None,1645.2534152210096,None,1645.2534152210096,None,1646.2199300644343,None,1646.2199300644343,None,c,,,,,,,,,,,,,,,,,,,,,,,,,,,,,,,,,,,,,,,,,,,,,,,57_58Exp,001,2021_May_20_1100,ComputerHuman,2020.1.3,60.05553918085204,
Computer.xlsx,c,Sychronize.jpg,Number7.jpg,7,Computer,,,,,0,9,9,9,0,2,2,3,,,,,,,,,,,,,,,,,,,,,,,,,,,,,1647.2702197090498,None,1647.2702197090498,None,1647.720052119671,None,1647.720052119671,None,v,9.467054869683125,1647.720052119671,None,t,7.162868840180181,1647.720052119671,None,9.467054869683125,7.162868840180181,6.739060801940422,False,False,False,1657.2684198353713,None,1657.2684198353713,None,1657.2684198353713,None,1657.2684198353713,None,1657.2684198353713,None,1657.2684198353713,None,1657.2684198353713,None,1657.2684198353713,None,1658.2835469861338,None,1658.2835469861338,None,1659.2666392082479,None,1659.2666392082479,None,c,,,,,,,,,,,,,,,,,,,,,,,,,,,,,,,,,,,,,,,,,,,,,,,57_58Exp,001,2021_May_20_1100,ComputerHuman,2020.1.3,60.05553918085204,
Computer.xlsx,c,Sychronize.jpg,Number7.jpg,7,Computer,,,,,0,9,9,9,0,3,3,2,,,,,,,,,,,,,,,,,,,,,,,,,,,,,1660.299588027488,None,1660.299588027488,None,1660.7667936618527,None,1660.7667936618527,None,v,6.771737460308032,1660.7667936618527,None,t,7.166888483214279,1660.7667936618527,None,6.771737460308032,7.166888483214279,6.979291086990451,False,True,True,1667.998674233129,None,1667.998674233129,None,1667.998674233129,None,1667.998674233129,None,1667.998674233129,None,1667.998674233129,None,1667.998674233129,None,1667.998674233129,None,1669.0141317830876,None,1669.0141317830876,None,1670.0140256062582,None,1670.0140256062582,None,c,,,,,,,,,,,,,,,,,,,,,,,,,,,,,,,,,,,,,,,,,,,,,,,57_58Exp,001,2021_May_20_1100,ComputerHuman,2020.1.3,60.05553918085204,
Computer.xlsx,c,Sychronize.jpg,Number8.jpg,8,Computer,,,,,0,9,9,9,0,4,4,4,,,,,,,,,,,,,,,,,,,,,,,,,,,,,1671.0637391373243,None,1671.0637391373243,None,1671.5140610519975,None,1671.5140610519975,None,v,7.443295959731131,1671.5140610519975,None,t,7.742848701868297,1671.5140610519975,None,7.443295959731131,7.742848701868297,7.93332902229683,False,False,True,1679.3449364398557,None,1679.3449364398557,None,1679.3449364398557,None,1679.3449364398557,None,1679.3449364398557,None,1679.3449364398557,None,1679.3449364398557,None,1679.3449364398557,None,1680.3277313026933,None,1680.3277313026933,None,1681.3111776614214,None,1681.3111776614214,None,c,,,,,,,,,,,,,,,,,,,,,,,,,,,,,,,,,,,,,,,,,,,,,,,57_58Exp,001,2021_May_20_1100,ComputerHuman,2020.1.3,60.05553918085204,
Computer.xlsx,c,Sychronize.jpg,Number6.jpg,6,Computer,,,,,0,9,9,9,0,5,5,1,,,,,,,,,,,,,,,,,,,,,,,,,,,,,1682.3779009771156,None,1682.3779009771156,None,1682.8113863261565,None,1682.8113863261565,None,v,6.081214047033882,1682.8113863261565,None,t,6.267971390637285,1682.8113863261565,None,6.081214047033882,6.267971390637285,6.036574393955192,False,True,True,1689.1607837967103,None,1689.1607837967103,None,1689.1607837967103,None,1689.1607837967103,None,1689.1607837967103,None,1689.1607837967103,None,1689.1607837967103,None,1689.1607837967103,None,1690.1756504774266,None,1690.1756504774266,None,1691.158715754364,None,1691.158715754364,None,c,,,,,,,,,,,,,,,,,,,,,,,,,,,,,,,,,,,,,,,,,,,,,,,57_58Exp,001,2021_May_20_1100,ComputerHuman,2020.1.3,60.05553918085204,
Computer.xlsx,c,Sychronize.jpg,Number6.jpg,6,Computer,,,,,0,9,9,9,0,6,6,0,,,,,,,,,,,,,,,,,,,,,,,,,,,,,1692.1919378746861,None,1692.1919378746861,None,1692.6588329979622,None,1692.6588329979622,None,v,6.30885396066833,1692.6588329979622,None,t,5.871997577500679,1692.6588329979622,None,6.30885396066833,5.871997577500679,6.081061996937485,False,True,True,1699.05680139576,None,1699.05680139576,None,1699.05680139576,None,1699.05680139576,None,1699.05680139576,None,1699.05680139576,None,1699.05680139576,None,1699.05680139576,None,1700.0396751694739,None,1700.0396751694739,None,1701.0229948217143,None,1701.0229948217143,None,c,,,,,,,,,,,,,,,,,,,,,,,,,,,,,,,,,,,,,,,,,,,,,,,57_58Exp,001,2021_May_20_1100,ComputerHuman,2020.1.3,60.05553918085204,
Computer.xlsx,c,Sychronize.jpg,Number8.jpg,8,Computer,,,,,0,9,9,9,0,7,7,5,,,,,,,,,,,,,,,,,,,,,,,,,,,,,1702.106791114892,None,1702.106791114892,None,1702.5227467015416,None,1702.5227467015416,None,v,8.216018522884951,1702.5227467015416,None,t,8.162898993116414,1702.5227467015416,None,8.216018522884951,8.162898993116414,7.617787232780532,False,False,False,1710.8371160833517,None,1710.8371160833517,None,1710.8371160833517,None,1710.8371160833517,None,1710.8371160833517,None,1710.8371160833517,None,1710.8371160833517,None,1710.8371160833517,None,1711.8368851246905,None,1711.8368851246905,None,1712.80330918853,None,1712.80330918853,None,c,,,,,,,,,,,,,,,,,,,,,,,,,,,,,,,,,,,,,,,,,,,,,,,57_58Exp,001,2021_May_20_1100,ComputerHuman,2020.1.3,60.05553918085204,
Computer.xlsx,c,Sychronize.jpg,Number10.jpg,10,Computer,,,,,0,9,9,9,0,8,8,8,,,,,,,,,,,,,,,,,,,,,,,,,,,,,1713.8703173532394,None,1713.8703173532394,None,1714.3031220157814,None,1714.3031220157814,None,v,7.682702254830474,1714.3031220157814,None,t,10.53764225209079,1714.3031220157814,None,7.682702254830474,10.53764225209079,10.29765484577203,False,False,True,1724.9335493438366,None,1724.9335493438366,None,1724.9335493438366,None,1724.9335493438366,None,1724.9335493438366,None,1724.9335493438366,None,1724.9335493438366,None,1724.9335493438366,None,1725.9333248006938,None,1725.9333248006938,None,1726.9164391563463,None,1726.9164391563463,None,c,,,,,,,,,,,,,,,,,,,,,,,,,,,,,,,,,,,,,,,,,,,,,,,57_58Exp,001,2021_May_20_1100,ComputerHuman,2020.1.3,60.05553918085204,
Computer.xlsx,c,Sychronize.jpg,Number10.jpg,10,Computer,,,,,0,9,9,9,0,9,9,9,,,,,,,,,,,,,,,,,,,,,,,,,,,,,1727.9499156519723,None,1727.9499156519723,None,1728.3995905616175,None,1728.3995905616175,None,None,,1728.3995905616175,None,t,10.436722940386062,1728.3995905616175,None,13,10.436722940386062,9.440758810456163,False,False,False,1741.4646035001142,None,1741.4646035001142,None,1741.4646035001142,None,1741.4646035001142,None,1741.4646035001142,None,1741.4646035001142,None,1741.4646035001142,None,1741.4646035001142,None,1742.479175387762,None,1742.479175387762,None,1743.4623192547988,None,1743.4623192547988,None,c,,,,,,,,,,,,,,,,,,,,,,,,,,,,,,,,,,,,,,,,,,,,,,,57_58Exp,001,2021_May_20_1100,ComputerHuman,2020.1.3,60.05553918085204,
Computer.xlsx,c,,,,,,,,,0,9,9,9,,,,,,,,,,,,,,,,,,,,,,,,,,,,,,,,,,,,,,,,,,,,,,,,,,,,,,,,,,,,,,,,,,,,,,,,,,,,,,,c,1744.4624494898217,None,1744.4624494898217,None,q,0,3.8413137570205436,1744.4624494898217,None,l,0,3.5723880580258083,1744.4624494898217,None,h,c,1748.394568814614,None,1748.394568814614,None,None,None,1750.3772324801016,None,1750.3772324801016,None,"['space', 'space']",1751.3603288723025,None,"[248.64291000214598, 252.75856608032063]",,,,,,,,,,,,,,,,,57_58Exp,001,2021_May_20_1100,ComputerHuman,2020.1.3,60.05553918085204,
Human.xlsx,h,Sychronize.jpg,Number7.jpg,7,Human,,,,,1,0,10,8,0,0,0,3,,,,,,,,,,,,,,,,,,,,,,,,,2004.183465541128,None,2004.183465541128,None,2007.2467604038056,None,2007.2467604038056,None,2007.6964529561264,None,2007.6964529561264,None,v,6.401603430505929,2007.6964529561264,None,t,6.2449557184882,2007.6964529561264,None,6.401603430505929,6.2449557184882,6.945250967889983,True,False,False,2014.1792345067638,None,2014.1792345067638,None,2014.1792345067638,None,2014.1792345067638,None,2014.1792345067638,None,2014.1792345067638,None,2014.1792345067638,None,2014.1792345067638,None,2015.1971610689666,None,2015.1971610689666,None,2016.1774635029178,None,2016.1774635029178,None,h,,,,,,,,,,,,,,,,,,,,,,,,,,,,,,,,,,,,,,,,,,,,,,,57_58Exp,001,2021_May_20_1100,ComputerHuman,2020.1.3,60.05553918085204,
Human.xlsx,h,Sychronize.jpg,Number6.jpg,6,Human,,,,,1,0,10,8,0,1,1,0,,,,,,,,,,,,,,,,,,,,,,,,,,,,,2017.244244879053,None,2017.244244879053,None,2017.6771246031599,None,2017.6771246031599,None,v,6.2281768925217875,2017.6771246031599,None,t,4.995025727832399,2017.6771246031599,None,6.2281768925217875,4.995025727832399,6.25796442656008,False,False,False,2023.9920941567138,None,2023.9920941567138,None,2023.9920941567138,None,2023.9920941567138,None,2023.9920941567138,None,2023.9920941567138,None,2023.9920941567138,None,2023.9920941567138,None,2024.9765843202804,None,2024.9765843202804,None,2025.974993592501,None,2025.974993592501,None,h,,,,,,,,,,,,,,,,,,,,,,,,,,,,,,,,,,,,,,,,,,,,,,,57_58Exp,001,2021_May_20_1100,ComputerHuman,2020.1.3,60.05553918085204,
Human.xlsx,h,Sychronize.jpg,Number8.jpg,8,Human,,,,,1,0,10,8,0,2,2,5,,,,,,,,,,,,,,,,,,,,,,,,,,,,,2027.0245759262161,None,2027.0245759262161,None,2027.4750752299724,None,2027.4750752299724,None,v,7.945256702532333,2027.4750752299724,None,t,7.784875479600032,2027.4750752299724,None,7.945256702532333,7.784875479600032,8.348616651505031,True,False,False,2035.4732294853375,None,2035.4732294853375,None,2035.4732294853375,None,2035.4732294853375,None,2035.4732294853375,None,2035.4732294853375,None,2035.4732294853375,None,2035.4732294853375,None,2036.4914392926762,None,2036.4914392926762,None,2037.4888329883388,None,2037.4888329883388,None,h,,,,,,,,,,,,,,,,,,,,,,,,,,,,,,,,,,,,,,,,,,,,,,,57_58Exp,001,2021_May_20_1100,ComputerHuman,2020.1.3,60.05553918085204,
Human.xlsx,h,Sychronize.jpg,Number10.jpg,10,Human,,,,,1,0,10,8,0,3,3,8,,,,,,,,,,,,,,,,,,,,,,,,,,,,,2038.5386789998593,None,2038.5386789998593,None,2038.9886018692896,None,2038.9886018692896,None,v,9.610664644495046,2038.9886018692896,None,t,10.74964786823557,2038.9886018692896,None,9.610664644495046,10.74964786823557,9.837406458578442,False,False,False,2049.8356834981,None,2049.8356834981,None,2049.8356834981,None,2049.8356834981,None,2049.8356834981,None,2049.8356834981,None,2049.8356834981,None,2049.8356834981,None,2050.8041704718707,None,2050.8041704718707,None,2051.801896812161,None,2051.801896812161,None,h,,,,,,,,,,,,,,,,,,,,,,,,,,,,,,,,,,,,,,,,,,,,,,,57_58Exp,001,2021_May_20_1100,ComputerHuman,2020.1.3,60.05553918085204,
Human.xlsx,h,Sychronize.jpg,Number6.jpg,6,Human,,,,,1,0,10,8,0,4,4,1,,,,,,,,,,,,,,,,,,,,,,,,,,,,,2052.8689081846296,None,2052.8689081846296,None,2053.3184230270917,None,2053.3184230270917,None,v,7.167919457016069,2053.3184230270917,None,t,5.487408101709207,2053.3184230270917,None,7.167919457016069,5.487408101709207,6.358264072635901,False,False,False,2060.5829239430673,None,2060.5829239430673,None,2060.5829239430673,None,2060.5829239430673,None,2060.5829239430673,None,2060.5829239430673,None,2060.5829239430673,None,2060.5829239430673,None,2061.568209951688,None,2061.568209951688,None,2062.5492325275764,None,2062.5492325275764,None,h,,,,,,,,,,,,,,,,,,,,,,,,,,,,,,,,,,,,,,,,,,,,,,,57_58Exp,001,2021_May_20_1100,ComputerHuman,2020.1.3,60.05553918085204,
Human.xlsx,h,Sychronize.jpg,Number8.jpg,8,Human,,,,,1,0,10,8,0,5,5,4,,,,,,,,,,,,,,,,,,,,,,,,,,,,,2063.5989175095856,None,2063.5989175095856,None,2064.049434456017,None,2064.049434456017,None,v,10.623736583948357,2064.049434456017,None,t,8.334733520217014,2064.049434456017,None,10.623736583948357,8.334733520217014,7.676407790246817,False,False,False,2074.747426815776,None,2074.747426815776,None,2074.747426815776,None,2074.747426815776,None,2074.747426815776,None,2074.747426815776,None,2074.747426815776,None,2074.747426815776,None,2075.7478698073196,None,2075.7478698073196,None,2076.745660944345,None,2076.745660944345,None,h,,,,,,,,,,,,,,,,,,,,,,,,,,,,,,,,,,,,,,,,,,,,,,,57_58Exp,001,2021_May_20_1100,ComputerHuman,2020.1.3,60.05553918085204,
Human.xlsx,h,Sychronize.jpg,Number9.jpg,9,Human,,,,,1,0,10,8,0,6,6,6,,,,,,,,,,,,,,,,,,,,,,,,,,,,,2077.797240108153,None,2077.797240108153,None,2078.245255643972,None,2078.245255643972,None,v,10.982751237313096,2078.245255643972,None,t,9.605689089224143,2078.245255643972,None,10.982751237313096,9.605689089224143,8.890969795292278,False,False,False,2089.309818533855,None,2089.309818533855,None,2089.309818533855,None,2089.309818533855,None,2089.309818533855,None,2089.309818533855,None,2089.309818533855,None,2089.309818533855,None,2090.3109906490613,None,2090.3109906490613,None,2091.308717630903,None,2091.308717630903,None,h,,,,,,,,,,,,,,,,,,,,,,,,,,,,,,,,,,,,,,,,,,,,,,,57_58Exp,001,2021_May_20_1100,ComputerHuman,2020.1.3,60.05553918085204,
Human.xlsx,h,Sychronize.jpg,Number10.jpg,10,Human,,,,,1,0,10,8,0,7,7,9,,,,,,,,,,,,,,,,,,,,,,,,,,,,,2092.358277189528,None,2092.358277189528,None,2092.8087710400932,None,2092.8087710400932,None,v,12.621921633801776,2092.8087710400932,None,t,11.549573833153772,2092.8087710400932,None,12.621921633801776,11.549573833153772,10.673435608135655,False,False,False,2105.5217664103347,None,2105.5217664103347,None,2105.5217664103347,None,2105.5217664103347,None,2105.5217664103347,None,2105.5217664103347,None,2105.5217664103347,None,2105.5217664103347,None,2106.507559244906,None,2106.507559244906,None,2107.504622220597,None,2107.504622220597,None,h,,,,,,,,,,,,,,,,,,,,,,,,,,,,,,,,,,,,,,,,,,,,,,,57_58Exp,001,2021_May_20_1100,ComputerHuman,2020.1.3,60.05553918085204,
Human.xlsx,h,Sychronize.jpg,Number9.jpg,9,Human,,,,,1,0,10,8,0,8,8,7,,,,,,,,,,,,,,,,,,,,,,,,,,,,,2108.5548040845038,None,2108.5548040845038,None,2109.0048831718063,None,2109.0048831718063,None,v,10.500652297830129,2109.0048831718063,None,t,10.787593734733036,2109.0048831718063,None,10.500652297830129,10.787593734733036,9.559378393456733,True,False,False,2119.8698223959973,None,2119.8698223959973,None,2119.8698223959973,None,2119.8698223959973,None,2119.8698223959973,None,2119.8698223959973,None,2119.8698223959973,None,2119.8698223959973,None,2120.8702891249586,None,2120.8702891249586,None,2121.8677094450222,None,2121.8677094450222,None,h,,,,,,,,,,,,,,,,,,,,,,,,,,,,,,,,,,,,,,,,,,,,,,,57_58Exp,001,2021_May_20_1100,ComputerHuman,2020.1.3,60.05553918085204,
Human.xlsx,h,Sychronize.jpg,Number7.jpg,7,Human,,,,,1,0,10,8,0,9,9,2,,,,,,,,,,,,,,,,,,,,,,,,,,,,,2122.917951294026,None,2122.917951294026,None,2123.367839519657,None,2123.367839519657,None,v,8.388657876765137,2123.367839519657,None,t,7.747873977406471,2123.367839519657,None,8.388657876765137,7.747873977406471,7.339866384411582,False,False,False,2131.8485392345838,None,2131.8485392345838,None,2131.8485392345838,None,2131.8485392345838,None,2131.8485392345838,None,2131.8485392345838,None,2131.8485392345838,None,2131.8485392345838,None,2132.8175920570748,None,2132.8175920570748,None,2133.814739717608,None,2133.814739717608,None,h,,,,,,,,,,,,,,,,,,,,,,,,,,,,,,,,,,,,,,,,,,,,,,,57_58Exp,001,2021_May_20_1100,ComputerHuman,2020.1.3,60.05553918085204,
Human.xlsx,h,,,,,,,,,1,0,10,8,,,,,,,,,,,,,,,,,,,,,,,,,,,,,,,,,,,,,,,,,,,,,,,,,,,,,,,,,,,,,,,,,,,,,,,,,,,,,,,h,2134.815967006272,None,2134.815967006272,None,q,0,3.4520351788532935,2134.815967006272,None,o,1,15.05426630367674,2134.815967006272,None,h,h,2149.945471622398,None,2149.945471622398,None,2151.9434581119576,None,None,None,None,None,None,None,None,,,,,,,,,,,,,,,,,,57_58Exp,001,2021_May_20_1100,ComputerHuman,2020.1.3,60.05553918085204,
Computer.xlsx,c,Sychronize.jpg,Number6.jpg,6,Computer,,,,,1,1,11,1,0,0,0,0,,,,,,,,,,,,,,,,,,,,,,,,,2156.9608630925172,None,2156.9608630925172,None,2160.0250102568098,None,2160.0250102568098,None,2160.475324152085,None,2160.475324152085,None,v,7.158288480840383,2160.475324152085,None,t,5.793997705169204,2160.475324152085,None,7.158288480840383,5.793997705169204,6.399123619413113,False,False,False,2167.7229577079406,None,2167.7229577079406,None,2167.7229577079406,None,2167.7229577079406,None,2167.7229577079406,None,2167.7229577079406,None,2167.7229577079406,None,2167.7229577079406,None,2168.7227023703094,None,2168.7227023703094,None,2169.7224428625914,None,2169.7224428625914,None,c,,,,,,,,,,,,,,,,,,,,,,,,,,,,,,,,,,,,,,,,,,,,,,,57_58Exp,001,2021_May_20_1100,ComputerHuman,2020.1.3,60.05553918085204,
Computer.xlsx,c,Sychronize.jpg,Number8.jpg,8,Computer,,,,,1,1,11,1,0,1,1,4,,,,,,,,,,,,,,,,,,,,,,,,,,,,,2170.7894805386854,None,2170.7894805386854,None,2171.22278721554,None,2171.22278721554,None,v,7.7539100178637455,2171.22278721554,None,t,10.308692931157566,2171.22278721554,None,7.7539100178637455,10.308692931157566,7.579968632788385,False,True,False,2181.619405467497,None,2181.619405467497,None,2181.619405467497,None,2181.619405467497,None,2181.619405467497,None,2181.619405467497,None,2181.619405467497,None,2181.619405467497,None,2182.6025326541867,None,2182.6025326541867,None,2183.5856470098392,None,2183.5856470098392,None,c,,,,,,,,,,,,,,,,,,,,,,,,,,,,,,,,,,,,,,,,,,,,,,,57_58Exp,001,2021_May_20_1100,ComputerHuman,2020.1.3,60.05553918085204,
Computer.xlsx,c,Sychronize.jpg,Number7.jpg,7,Computer,,,,,1,1,11,1,0,2,2,2,,,,,,,,,,,,,,,,,,,,,,,,,,,,,2184.635800645465,None,2184.635800645465,None,2185.085839956554,None,2185.085839956554,None,v,8.029678829527256,2185.085839956554,None,t,6.632923285476863,2185.085839956554,None,8.029678829527256,6.632923285476863,6.753079039166445,False,False,True,2193.1846796779796,None,2193.1846796779796,None,2193.1846796779796,None,2193.1846796779796,None,2193.1846796779796,None,2193.1846796779796,None,2193.1846796779796,None,2193.1846796779796,None,2194.1995797193917,None,2194.1995797193917,None,2195.1654822015876,None,2195.1654822015876,None,c,,,,,,,,,,,,,,,,,,,,,,,,,,,,,,,,,,,,,,,,,,,,,,,57_58Exp,001,2021_May_20_1100,ComputerHuman,2020.1.3,60.05553918085204,
Computer.xlsx,c,Sychronize.jpg,Number7.jpg,7,Computer,,,,,1,1,11,1,0,3,3,3,,,,,,,,,,,,,,,,,,,,,,,,,,,,,2196.2158578141493,None,2196.2158578141493,None,2196.665879161787,None,2196.665879161787,None,v,8.57270723006468,2196.665879161787,None,t,7.319805571300094,2196.665879161787,None,8.57270723006468,7.319805571300094,7.487516475633455,False,False,True,2205.3138420262003,None,2205.3138420262003,None,2205.3138420262003,None,2205.3138420262003,None,2205.3138420262003,None,2205.3138420262003,None,2205.3138420262003,None,2205.3138420262003,None,2206.3298904454005,None,2206.3298904454005,None,2207.3130660692536,None,2207.3130660692536,None,c,,,,,,,,,,,,,,,,,,,,,,,,,,,,,,,,,,,,,,,,,,,,,,,57_58Exp,001,2021_May_20_1100,ComputerHuman,2020.1.3,60.05553918085204,
Computer.xlsx,c,Sychronize.jpg,Number10.jpg,10,Computer,,,,,1,1,11,1,0,4,4,8,,,,,,,,,,,,,,,,,,,,,,,,,,,,,2208.3631584366794,None,2208.3631584366794,None,2208.812926692117,None,2208.812926692117,None,v,11.60839451332049,2208.812926692117,None,t,10.111673645146766,2208.812926692117,None,11.60839451332049,10.111673645146766,9.404946041648083,False,False,False,2220.4947497001544,None,2220.4947497001544,None,2220.4947497001544,None,2220.4947497001544,None,2220.4947497001544,None,2220.4947497001544,None,2220.4947497001544,None,2220.4947497001544,None,2221.5094659369656,None,2221.5094659369656,None,2222.492591840551,None,2222.492591840551,None,c,,,,,,,,,,,,,,,,,,,,,,,,,,,,,,,,,,,,,,,,,,,,,,,57_58Exp,001,2021_May_20_1100,ComputerHuman,2020.1.3,60.05553918085204,
Computer.xlsx,c,Sychronize.jpg,Number8.jpg,8,Computer,,,,,1,1,11,1,0,5,5,5,,,,,,,,,,,,,,,,,,,,,,,,,,,,,2223.5425247823455,None,2223.5425247823455,None,2223.9927087633737,None,2223.9927087633737,None,v,8.967614784049147,2223.9927087633737,None,t,8.542793592565431,2223.9927087633737,None,8.967614784049147,8.542793592565431,8.076933883265928,False,False,False,2233.0415144985905,None,2233.0415144985905,None,2233.0415144985905,None,2233.0415144985905,None,2233.0415144985905,None,2233.0415144985905,None,2233.0415144985905,None,2233.0415144985905,None,2234.0396491866245,None,2234.0396491866245,None,2235.022779581073,None,2235.022779581073,None,c,,,,,,,,,,,,,,,,,,,,,,,,,,,,,,,,,,,,,,,,,,,,,,,57_58Exp,001,2021_May_20_1100,ComputerHuman,2020.1.3,60.05553918085204,
Computer.xlsx,c,Sychronize.jpg,Number6.jpg,6,Computer,,,,,1,1,11,1,0,6,6,1,,,,,,,,,,,,,,,,,,,,,,,,,,,,,2236.105929510775,None,2236.105929510775,None,2236.539294568847,None,2236.539294568847,None,v,6.672437746215564,2236.539294568847,None,t,6.360041777855713,2236.539294568847,None,6.672437746215564,6.360041777855713,6.29685131710281,False,False,True,2243.2882957528304,None,2243.2882957528304,None,2243.2882957528304,None,2243.2882957528304,None,2243.2882957528304,None,2243.2882957528304,None,2243.2882957528304,None,2243.2882957528304,None,2244.303670863378,None,2244.303670863378,None,2245.270175121197,None,2245.270175121197,None,c,,,,,,,,,,,,,,,,,,,,,,,,,,,,,,,,,,,,,,,,,,,,,,,57_58Exp,001,2021_May_20_1100,ComputerHuman,2020.1.3,60.05553918085204,
Computer.xlsx,c,Sychronize.jpg,Number10.jpg,10,Computer,,,,,1,1,11,1,0,7,7,9,,,,,,,,,,,,,,,,,,,,,,,,,,,,,2246.3366280227915,None,2246.3366280227915,None,2246.770021950696,None,2246.770021950696,None,v,9.300449310828753,2246.770021950696,None,t,10.475608038772862,2246.770021950696,None,9.300449310828753,10.475608038772862,9.525306729183422,False,True,False,2257.3184589539947,None,2257.3184589539947,None,2257.3184589539947,None,2257.3184589539947,None,2257.3184589539947,None,2257.3184589539947,None,2257.3184589539947,None,2257.3184589539947,None,2258.333558518028,None,2258.333558518028,None,2259.3167213108445,None,2259.3167213108445,None,c,,,,,,,,,,,,,,,,,,,,,,,,,,,,,,,,,,,,,,,,,,,,,,,57_58Exp,001,2021_May_20_1100,ComputerHuman,2020.1.3,60.05553918085204,
Computer.xlsx,c,Sychronize.jpg,Number9.jpg,9,Computer,,,,,1,1,11,1,0,8,8,7,,,,,,,,,,,,,,,,,,,,,,,,,,,,,2260.3669994075267,None,2260.3669994075267,None,2260.8166775249315,None,2260.8166775249315,None,v,11.504629919219042,2260.8166775249315,None,t,9.451707666640687,2260.8166775249315,None,11.504629919219042,9.451707666640687,9.396940439464,False,False,True,2272.3984418630534,None,2272.3984418630534,None,2272.3984418630534,None,2272.3984418630534,None,2272.3984418630534,None,2272.3984418630534,None,2272.3984418630534,None,2272.3984418630534,None,2273.413003165096,None,2273.413003165096,None,2274.396268606206,None,2274.396268606206,None,c,,,,,,,,,,,,,,,,,,,,,,,,,,,,,,,,,,,,,,,,,,,,,,,57_58Exp,001,2021_May_20_1100,ComputerHuman,2020.1.3,60.05553918085204,
Computer.xlsx,c,Sychronize.jpg,Number9.jpg,9,Computer,,,,,1,1,11,1,0,9,9,6,,,,,,,,,,,,,,,,,,,,,,,,,,,,,2275.4293332255525,None,2275.4293332255525,None,2275.8960583375915,None,2275.8960583375915,None,v,11.17188136038476,2275.8960583375915,None,t,9.551655668864441,2275.8960583375915,None,11.17188136038476,9.551655668864441,8.992816589703853,False,False,False,2287.15973935032,None,2287.15973935032,None,2287.15973935032,None,2287.15973935032,None,2287.15973935032,None,2287.15973935032,None,2287.15973935032,None,2287.15973935032,None,2288.159304378174,None,2288.159304378174,None,2289.1425807256655,None,2289.1425807256655,None,c,,,,,,,,,,,,,,,,,,,,,,,,,,,,,,,,,,,,,,,,,,,,,,,57_58Exp,001,2021_May_20_1100,ComputerHuman,2020.1.3,60.05553918085204,
Computer.xlsx,c,,,,,,,,,1,1,11,1,,,,,,,,,,,,,,,,,,,,,,,,,,,,,,,,,,,,,,,,,,,,,,,,,,,,,,,,,,,,,,,,,,,,,,,,,,,,,,,c,2290.1432508265593,None,2290.1432508265593,None,a,0,2.316155141348645,2290.1432508265593,None,l,1,2.931242002655381,2290.1432508265593,None,c,c,2293.1584780594085,None,2293.1584780594085,None,2295.157767861525,None,None,None,None,None,None,None,None,,,,,,,,,,,,,,,,,,57_58Exp,001,2021_May_20_1100,ComputerHuman,2020.1.3,60.05553918085204,
