Condition,CorrectTuringReply,Sychronize,NumberImage,Number,Partner,trials.thisRepN,trials.thisTrialN,trials.thisN,trials.thisIndex,Block.thisRepN,Block.thisTrialN,Block.thisN,Block.thisIndex,trials_loop.thisRepN,trials_loop.thisTrialN,trials_loop.thisN,trials_loop.thisIndex,key_resp_Istr.keys,key_resp_Istr.rt,key_resp_Istr.started,key_resp_Istr.stopped,key_respPrLeft.keys,key_respPrLeft.rt,key_respPrRight.keys,key_respPrRight.rt,RTPrLeft,RTPrRight,CompPr,SychronizedRTsPr,SychronizedRTsLeftCPr,SychronizedRTsRightCPr,CreditLeftPr.started,CreditLeftPr.stopped,CreditRightPr.started,CreditRightPr.stopped,text_StartExp.started,text_StartExp.stopped,key_startExp.keys,key_startExp.rt,key_startExp.started,key_startExp.stopped,SychroLeft.started,SychroLeft.stopped,SychroRight.started,SychroRight.stopped,NumberLeft.started,NumberLeft.stopped,NumberRight.started,NumberRight.stopped,CrossLeft.started,CrossLeft.stopped,CrossRight.started,CrossRight.stopped,key_respLeft.keys,key_respLeft.rt,key_respLeft.started,key_respLeft.stopped,key_respRight.keys,key_respRight.rt,key_respRight.started,key_respRight.stopped,RTLeft,RTRight,Comp,SychronizedRTs,SychronizedRTsLeftC,SychronizedRTsRightC,FeedbackLeftLeft.started,FeedbackLeftLeft.stopped,FeedbackLeftRight.started,FeedbackLeftRight.stopped,FeedbackRightLeft.started,FeedbackRightLeft.stopped,FeedbackRightRight.started,FeedbackRightRight.stopped,textLeftLeft.started,textLeftLeft.stopped,textLeftRight.started,textLeftRight.stopped,textRightLeft.started,textRightLeft.stopped,textRightRight.started,textRightRight.stopped,CreditLeft.started,CreditLeft.stopped,CreditRight.started,CreditRight.stopped,BlankLeft.started,BlankLeft.stopped,BlankRight.started,BlankRight.stopped,CorrectTuringReply,TuringtextLeft.started,TuringtextLeft.stopped,TuringtextRight.started,TuringtextRight.stopped,keyTuringLeft.keys,keyTuringLeft.corr,keyTuringLeft.rt,keyTuringLeft.started,keyTuringLeft.stopped,keyTuringRight.keys,keyTuringRight.corr,keyTuringRight.rt,keyTuringRight.started,keyTuringRight.stopped,RespTuringLeft,RespTuringRight,ScoreLeft.started,ScoreLeft.stopped,ScoreRight.started,ScoreRight.stopped,BlockText.started,BlockText.stopped,text_Pause.started,text_Pause.stopped,text_LongPause.started,text_LongPause.stopped,key_respPause.keys,key_respPause.started,key_respPause.stopped,key_respPause.rt,QuestImageLeft.started,QuestImageLeft.stopped,QuestImageRight.started,QuestImageRight.stopped,respQuestLeft.keys,respQuestLeft.rt,respQuestLeft.started,respQuestLeft.stopped,respQuestRight.keys,respQuestRight.rt,respQuestRight.started,respQuestRight.stopped,RespInclusionLeft,RespInclusionRight,EndText.started,EndText.stopped,participant,session,date,expName,psychopyVersion,frameRate,
,,,,,,,,,,,,,,,,,,"['v', 't']","[278.4769915453089, 279.4730068668505]",16.69224950849093,None,,,,,,,,,,,,,,,,,,,,,,,,,,,,,,,,,,,,,,,,,,,,,,,,,,,,,,,,,,,,,,,,,,,,,,,,,,,,,,,,,,,,,,,,,,,,,,,,,,,,,,,,,,,,,,,,,,,,,,59_60Exp,001,2021_May_20_1503,ComputerHuman,2020.1.3,60.01830905909413,
,,,,,,,,,,,,,,,,,,,,,,v,6.743219839605445,t,6.218957471850445,6.743219839605445,6.218957471850445,7,False,True,False,357.32372224526443,None,357.32372224526443,None,358.3235275342813,None,"['space', 'space']","[4.689099809747859, 53.281114863119]",359.3065488649172,None,,,,,,,,,,,,,,,,,,,,,,,,,,,,,,,,,,,,,,,,,,,,,,,,,,,,,,,,,,,,,,,,,,,,,,,,,,,,,,,,,,,,,,,,,,,,,,,,,,59_60Exp,001,2021_May_20_1503,ComputerHuman,2020.1.3,60.01830905909413,
Computer.xlsx,c,Sychronize.jpg,Number7.jpg,7,Computer,,,,,0,0,0,1,0,0,0,2,,,,,,,,,,,,,,,,,,,,,,,,,412.662189276396,None,412.662189276396,None,415.7091460592201,None,415.7091460592201,None,416.1595802454631,None,416.1595802454631,None,v,5.291412090879021,416.1595802454631,None,t,5.351074487056394,416.1595802454631,None,5.291412090879021,5.351074487056394,6.758952788693429,False,False,False,421.607592573524,None,421.607592573524,None,421.607592573524,None,421.607592573524,None,421.607592573524,None,421.607592573524,None,421.607592573524,None,421.607592573524,None,422.6073635395187,None,422.6073635395187,None,423.60713193930496,None,423.60713193930496,None,c,,,,,,,,,,,,,,,,,,,,,,,,,,,,,,,,,,,,,,,,,,,,,,,59_60Exp,001,2021_May_20_1503,ComputerHuman,2020.1.3,60.01830905909413,
Computer.xlsx,c,Sychronize.jpg,Number9.jpg,9,Computer,,,,,0,0,0,1,0,1,1,7,,,,,,,,,,,,,,,,,,,,,,,,,,,,,424.6570520500627,None,424.6570520500627,None,425.10730179015445,None,425.10730179015445,None,v,7.586726420804553,425.10730179015445,None,t,9.489751369794249,425.10730179015445,None,7.586726420804553,9.489751369794249,9.312168545866305,False,False,True,434.6728874740529,None,434.6728874740529,None,434.6728874740529,None,434.6728874740529,None,434.6728874740529,None,434.6728874740529,None,434.6728874740529,None,434.6728874740529,None,435.670741803935,None,435.670741803935,None,436.6539203147713,None,436.6539203147713,None,c,,,,,,,,,,,,,,,,,,,,,,,,,,,,,,,,,,,,,,,,,,,,,,,59_60Exp,001,2021_May_20_1503,ComputerHuman,2020.1.3,60.01830905909413,
Computer.xlsx,c,Sychronize.jpg,Number10.jpg,10,Computer,,,,,0,0,0,1,0,2,2,9,,,,,,,,,,,,,,,,,,,,,,,,,,,,,437.7041291238547,None,437.7041291238547,None,438.1541212808843,None,438.1541212808843,None,v,8.198797346925858,438.1541212808843,None,t,11.221556398340908,438.1541212808843,None,8.198797346925858,11.221556398340908,9.517516891419035,False,False,False,449.46740002457045,None,449.46740002457045,None,449.46740002457045,None,449.46740002457045,None,449.46740002457045,None,449.46740002457045,None,449.46740002457045,None,449.46740002457045,None,450.4503642570944,None,450.4503642570944,None,451.43359120509376,None,451.43359120509376,None,c,,,,,,,,,,,,,,,,,,,,,,,,,,,,,,,,,,,,,,,,,,,,,,,59_60Exp,001,2021_May_20_1503,ComputerHuman,2020.1.3,60.01830905909413,
Computer.xlsx,c,Sychronize.jpg,Number6.jpg,6,Computer,,,,,0,0,0,1,0,3,3,1,,,,,,,,,,,,,,,,,,,,,,,,,,,,,452.50127749009516,None,452.50127749009516,None,452.933653275235,None,452.933653275235,None,v,4.9983569857449766,452.933653275235,None,t,6.9178579482340865,452.933653275235,None,4.9983569857449766,6.9178579482340865,6.038811160705849,False,False,False,459.9480330181068,None,459.9480330181068,None,459.9480330181068,None,459.9480330181068,None,459.9480330181068,None,459.9480330181068,None,459.9480330181068,None,459.9480330181068,None,460.9477959647029,None,460.9477959647029,None,461.93097415476404,None,461.93097415476404,None,c,,,,,,,,,,,,,,,,,,,,,,,,,,,,,,,,,,,,,,,,,,,,,,,59_60Exp,001,2021_May_20_1503,ComputerHuman,2020.1.3,60.01830905909413,
Computer.xlsx,c,Sychronize.jpg,Number7.jpg,7,Computer,,,,,0,0,0,1,0,4,4,3,,,,,,,,,,,,,,,,,,,,,,,,,,,,,462.9809513636337,None,462.9809513636337,None,463.4308318906442,None,463.4308318906442,None,v,6.512184512874228,463.4308318906442,None,t,7.630830864160089,463.4308318906442,None,6.512184512874228,7.630830864160089,6.504751187220181,False,True,False,471.11219169825563,None,471.11219169825563,None,471.11219169825563,None,471.11219169825563,None,471.11219169825563,None,471.11219169825563,None,471.11219169825563,None,471.11219169825563,None,472.12822183322714,None,472.12822183322714,None,473.1281047500179,None,473.1281047500179,None,c,,,,,,,,,,,,,,,,,,,,,,,,,,,,,,,,,,,,,,,,,,,,,,,59_60Exp,001,2021_May_20_1503,ComputerHuman,2020.1.3,60.01830905909413,
Computer.xlsx,c,Sychronize.jpg,Number8.jpg,8,Computer,,,,,0,0,0,1,0,5,5,5,,,,,,,,,,,,,,,,,,,,,,,,,,,,,474.1781226974308,None,474.1781226974308,None,474.62798461943567,None,474.62798461943567,None,v,6.674145877981573,474.62798461943567,None,t,7.9329802873580775,474.62798461943567,None,6.674145877981573,7.9329802873580775,8.333117352966932,False,False,False,482.6590848070573,None,482.6590848070573,None,482.6590848070573,None,482.6590848070573,None,482.6590848070573,None,482.6590848070573,None,482.6590848070573,None,482.6590848070573,None,483.64217317986186,None,483.64217317986186,None,484.6252686097341,None,484.6252686097341,None,c,,,,,,,,,,,,,,,,,,,,,,,,,,,,,,,,,,,,,,,,,,,,,,,59_60Exp,001,2021_May_20_1503,ComputerHuman,2020.1.3,60.01830905909413,
Computer.xlsx,c,Sychronize.jpg,Number10.jpg,10,Computer,,,,,0,0,0,1,0,6,6,8,,,,,,,,,,,,,,,,,,,,,,,,,,,,,485.67555472581444,None,485.67555472581444,None,486.12530822556073,None,486.12530822556073,None,v,10.867486184983136,486.12530822556073,None,t,10.126679863387835,486.12530822556073,None,10.867486184983136,10.126679863387835,10.42737393550489,False,False,False,497.0887628667224,None,497.0887628667224,None,497.0887628667224,None,497.0887628667224,None,497.0887628667224,None,497.0887628667224,None,497.0887628667224,None,497.0887628667224,None,498.08849437727986,None,498.08849437727986,None,499.0549870871655,None,499.0549870871655,None,c,,,,,,,,,,,,,,,,,,,,,,,,,,,,,,,,,,,,,,,,,,,,,,,59_60Exp,001,2021_May_20_1503,ComputerHuman,2020.1.3,60.01830905909413,
Computer.xlsx,c,Sychronize.jpg,Number9.jpg,9,Computer,,,,,0,0,0,1,0,7,7,6,,,,,,,,,,,,,,,,,,,,,,,,,,,,,500.0881055968657,None,500.0881055968657,None,500.55470881405563,None,500.55470881405563,None,v,7.6851680593154015,500.55470881405563,None,t,9.612699967698063,500.55470881405563,None,7.6851680593154015,9.612699967698063,8.45271066279,False,False,False,510.23688627948286,None,510.23688627948286,None,510.23688627948286,None,510.23688627948286,None,510.23688627948286,None,510.23688627948286,None,510.23688627948286,None,510.23688627948286,None,511.25199482524295,None,511.25199482524295,None,512.2350206467418,None,512.2350206467418,None,c,,,,,,,,,,,,,,,,,,,,,,,,,,,,,,,,,,,,,,,,,,,,,,,59_60Exp,001,2021_May_20_1503,ComputerHuman,2020.1.3,60.01830905909413,
Computer.xlsx,c,Sychronize.jpg,Number8.jpg,8,Computer,,,,,0,0,0,1,0,8,8,4,,,,,,,,,,,,,,,,,,,,,,,,,,,,,513.2847749163502,None,513.2847749163502,None,513.7349617843611,None,513.7349617843611,None,v,7.011922920113648,513.7349617843611,None,t,8.446797228882133,513.7349617843611,None,7.011922920113648,8.446797228882133,7.968960164061369,False,False,False,522.2340977744243,None,522.2340977744243,None,522.2340977744243,None,522.2340977744243,None,522.2340977744243,None,522.2340977744243,None,522.2340977744243,None,522.2340977744243,None,523.2655719867671,None,523.2655719867671,None,524.2486642088807,None,524.2486642088807,None,c,,,,,,,,,,,,,,,,,,,,,,,,,,,,,,,,,,,,,,,,,,,,,,,59_60Exp,001,2021_May_20_1503,ComputerHuman,2020.1.3,60.01830905909413,
Computer.xlsx,c,Sychronize.jpg,Number6.jpg,6,Computer,,,,,0,0,0,1,0,9,9,0,,,,,,,,,,,,,,,,,,,,,,,,,,,,,525.2983293027828,None,525.2983293027828,None,525.7488837799974,None,525.7488837799974,None,v,5.329162604841258,525.7488837799974,None,t,6.171977593159681,525.7488837799974,None,5.329162604841258,6.171977593159681,5.5944825344528795,False,True,False,531.9980208125835,None,531.9980208125835,None,531.9980208125835,None,531.9980208125835,None,531.9980208125835,None,531.9980208125835,None,531.9980208125835,None,531.9980208125835,None,533.0130969599741,None,533.0130969599741,None,533.9797118854858,None,533.9797118854858,None,c,,,,,,,,,,,,,,,,,,,,,,,,,,,,,,,,,,,,,,,,,,,,,,,59_60Exp,001,2021_May_20_1503,ComputerHuman,2020.1.3,60.01830905909413,
Computer.xlsx,c,,,,,,,,,0,0,0,1,,,,,,,,,,,,,,,,,,,,,,,,,,,,,,,,,,,,,,,,,,,,,,,,,,,,,,,,,,,,,,,,,,,,,,,,,,,,,,,c,534.9788265439511,None,534.9788265439511,None,q,0,12.349932204009747,534.9788265439511,None,l,1,12.701596918755968,534.9788265439511,None,h,c,547.7759113965585,None,547.7759113965585,None,549.7756502849606,None,None,None,None,None,None,None,None,,,,,,,,,,,,,,,,,,59_60Exp,001,2021_May_20_1503,ComputerHuman,2020.1.3,60.01830905909413,
Human.xlsx,h,Sychronize.jpg,Number8.jpg,8,Human,,,,,0,1,1,0,0,0,0,5,,,,,,,,,,,,,,,,,,,,,,,,,554.7609494453936,None,554.7609494453936,None,557.8574786178797,None,557.8574786178797,None,558.2903859287144,None,558.2903859287144,None,v,6.424941482453505,558.2903859287144,None,t,8.179952403268544,558.2903859287144,None,6.424941482453505,8.179952403268544,8.225395610260598,False,False,False,566.5386273549357,None,566.5386273549357,None,566.5386273549357,None,566.5386273549357,None,566.5386273549357,None,566.5386273549357,None,566.5386273549357,None,566.5386273549357,None,567.5556663301722,None,567.5556663301722,None,568.5376178731203,None,568.5376178731203,None,h,,,,,,,,,,,,,,,,,,,,,,,,,,,,,,,,,,,,,,,,,,,,,,,59_60Exp,001,2021_May_20_1503,ComputerHuman,2020.1.3,60.01830905909413,
Human.xlsx,h,Sychronize.jpg,Number10.jpg,10,Human,,,,,0,1,1,0,0,1,1,8,,,,,,,,,,,,,,,,,,,,,,,,,,,,,569.604525314191,None,569.604525314191,None,570.0375012710738,None,570.0375012710738,None,v,10.308544091130898,570.0375012710738,None,t,9.883699803782292,570.0375012710738,None,10.308544091130898,9.883699803782292,10.53548781647919,False,False,False,580.434663238213,None,580.434663238213,None,580.434663238213,None,580.434663238213,None,580.434663238213,None,580.434663238213,None,580.434663238213,None,580.434663238213,None,581.4201208619506,None,581.4201208619506,None,582.4008419084748,None,582.4008419084748,None,h,,,,,,,,,,,,,,,,,,,,,,,,,,,,,,,,,,,,,,,,,,,,,,,59_60Exp,001,2021_May_20_1503,ComputerHuman,2020.1.3,60.01830905909413,
Human.xlsx,h,Sychronize.jpg,Number8.jpg,8,Human,,,,,0,1,1,0,0,2,2,4,,,,,,,,,,,,,,,,,,,,,,,,,,,,,583.4672547130795,None,583.4672547130795,None,583.900816727566,None,583.900816727566,None,v,7.016352193995772,583.900816727566,None,t,7.983782211114885,583.900816727566,None,7.016352193995772,7.983782211114885,7.548281862390177,False,False,False,591.9653715980512,None,591.9653715980512,None,591.9653715980512,None,591.9653715980512,None,591.9653715980512,None,591.9653715980512,None,591.9653715980512,None,591.9653715980512,None,592.96722087122,None,592.96722087122,None,593.9645715829101,None,593.9645715829101,None,h,,,,,,,,,,,,,,,,,,,,,,,,,,,,,,,,,,,,,,,,,,,,,,,59_60Exp,001,2021_May_20_1503,ComputerHuman,2020.1.3,60.01830905909413,
Human.xlsx,h,Sychronize.jpg,Number9.jpg,9,Human,,,,,0,1,1,0,0,3,3,7,,,,,,,,,,,,,,,,,,,,,,,,,,,,,595.014555207299,None,595.014555207299,None,595.4644136007701,None,595.4644136007701,None,v,8.487706744088428,595.4644136007701,None,t,9.070957237041512,595.4644136007701,None,8.487706744088428,9.070957237041512,8.937123121054,False,False,False,604.5969726451913,None,604.5969726451913,None,604.5969726451913,None,604.5969726451913,None,604.5969726451913,None,604.5969726451913,None,604.5969726451913,None,604.5969726451913,None,605.5968815448305,None,605.5968815448305,None,606.611453753254,None,606.611453753254,None,h,,,,,,,,,,,,,,,,,,,,,,,,,,,,,,,,,,,,,,,,,,,,,,,59_60Exp,001,2021_May_20_1503,ComputerHuman,2020.1.3,60.01830905909413,
Human.xlsx,h,Sychronize.jpg,Number10.jpg,10,Human,,,,,0,1,1,0,0,4,4,9,,,,,,,,,,,,,,,,,,,,,,,,,,,,,607.6615470830075,None,607.6615470830075,None,608.1114141374292,None,608.1114141374292,None,v,10.25953819174174,608.1114141374292,None,t,9.858613843854982,608.1114141374292,None,10.25953819174174,9.858613843854982,10.63003568372064,False,False,False,618.4430726996907,None,618.4430726996907,None,618.4430726996907,None,618.4430726996907,None,618.4430726996907,None,618.4430726996907,None,618.4430726996907,None,618.4430726996907,None,619.426668539998,None,619.426668539998,None,620.424642519296,None,620.424642519296,None,h,,,,,,,,,,,,,,,,,,,,,,,,,,,,,,,,,,,,,,,,,,,,,,,59_60Exp,001,2021_May_20_1503,ComputerHuman,2020.1.3,60.01830905909413,
Human.xlsx,h,Sychronize.jpg,Number7.jpg,7,Human,,,,,0,1,1,0,0,5,5,3,,,,,,,,,,,,,,,,,,,,,,,,,,,,,621.4928356302498,None,621.4928356302498,None,621.9246827766747,None,621.9246827766747,None,v,6.497462502096823,621.9246827766747,None,t,7.224919733846036,621.9246827766747,None,6.497462502096823,7.224919733846036,7.4535074636169885,False,False,False,629.2229196959943,None,629.2229196959943,None,629.2229196959943,None,629.2229196959943,None,629.2229196959943,None,629.2229196959943,None,629.2229196959943,None,629.2229196959943,None,630.2237302967405,None,630.2237302967405,None,631.2219708408265,None,631.2219708408265,None,h,,,,,,,,,,,,,,,,,,,,,,,,,,,,,,,,,,,,,,,,,,,,,,,59_60Exp,001,2021_May_20_1503,ComputerHuman,2020.1.3,60.01830905909413,
Human.xlsx,h,Sychronize.jpg,Number9.jpg,9,Human,,,,,0,1,1,0,0,6,6,6,,,,,,,,,,,,,,,,,,,,,,,,,,,,,632.2721604033559,None,632.2721604033559,None,632.7051302654963,None,632.7051302654963,None,v,9.10791864224484,632.7051302654963,None,t,9.67473386023994,632.7051302654963,None,9.10791864224484,9.67473386023994,8.768674760024362,False,False,False,642.4540310466182,None,642.4540310466182,None,642.4540310466182,None,642.4540310466182,None,642.4540310466182,None,642.4540310466182,None,642.4540310466182,None,642.4540310466182,None,643.4550270558448,None,643.4550270558448,None,644.4520075921246,None,644.4520075921246,None,h,,,,,,,,,,,,,,,,,,,,,,,,,,,,,,,,,,,,,,,,,,,,,,,59_60Exp,001,2021_May_20_1503,ComputerHuman,2020.1.3,60.01830905909413,
Human.xlsx,h,Sychronize.jpg,Number6.jpg,6,Human,,,,,0,1,1,0,0,7,7,0,,,,,,,,,,,,,,,,,,,,,,,,,,,,,645.5026619589589,None,645.5026619589589,None,645.9521453653815,None,645.9521453653815,None,v,8.78813777069081,645.9521453653815,None,t,6.37498865255111,645.9521453653815,None,8.78813777069081,6.37498865255111,6.151212777896993,False,False,False,654.8325155151288,None,654.8325155151288,None,654.8325155151288,None,654.8325155151288,None,654.8325155151288,None,654.8325155151288,None,654.8325155151288,None,654.8325155151288,None,655.800910426211,None,655.800910426211,None,656.8155281848158,None,656.8155281848158,None,h,,,,,,,,,,,,,,,,,,,,,,,,,,,,,,,,,,,,,,,,,,,,,,,59_60Exp,001,2021_May_20_1503,ComputerHuman,2020.1.3,60.01830905909413,
Human.xlsx,h,Sychronize.jpg,Number7.jpg,7,Human,,,,,0,1,1,0,0,8,8,2,,,,,,,,,,,,,,,,,,,,,,,,,,,,,657.8830104563331,None,657.8830104563331,None,658.3153390874122,None,658.3153390874122,None,v,6.527822018122606,658.3153390874122,None,t,8.006850169738755,658.3153390874122,None,6.527822018122606,8.006850169738755,7.513070732511574,False,False,False,666.3982577376755,None,666.3982577376755,None,666.3982577376755,None,666.3982577376755,None,666.3982577376755,None,666.3982577376755,None,666.3982577376755,None,666.3982577376755,None,667.3818766738477,None,667.3818766738477,None,668.3793521673706,None,668.3793521673706,None,h,,,,,,,,,,,,,,,,,,,,,,,,,,,,,,,,,,,,,,,,,,,,,,,59_60Exp,001,2021_May_20_1503,ComputerHuman,2020.1.3,60.01830905909413,
Human.xlsx,h,Sychronize.jpg,Number6.jpg,6,Human,,,,,0,1,1,0,0,9,9,1,,,,,,,,,,,,,,,,,,,,,,,,,,,,,669.429532106622,None,669.429532106622,None,669.8793504031037,None,669.8793504031037,None,v,5.715207120198102,669.8793504031037,None,t,6.405983946448032,669.8793504031037,None,5.715207120198102,6.405983946448032,5.693754816267544,False,False,False,676.3772417826021,None,676.3772417826021,None,676.3772417826021,None,676.3772417826021,None,676.3772417826021,None,676.3772417826021,None,676.3772417826021,None,676.3772417826021,None,677.3630933191671,None,677.3630933191671,None,678.3602133929726,None,678.3602133929726,None,h,,,,,,,,,,,,,,,,,,,,,,,,,,,,,,,,,,,,,,,,,,,,,,,59_60Exp,001,2021_May_20_1503,ComputerHuman,2020.1.3,60.01830905909413,
Human.xlsx,h,,,,,,,,,0,1,1,0,,,,,,,,,,,,,,,,,,,,,,,,,,,,,,,,,,,,,,,,,,,,,,,,,,,,,,,,,,,,,,,,,,,,,,,,,,,,,,,h,679.360588059244,None,679.360588059244,None,q,1,9.98899642366996,679.360588059244,None,o,0,6.988241958708386,679.360588059244,None,h,h,689.4408808378412,None,689.4408808378412,None,691.4402155485859,None,None,None,None,None,None,None,None,,,,,,,,,,,,,,,,,,59_60Exp,001,2021_May_20_1503,ComputerHuman,2020.1.3,60.01830905909413,
Human.xlsx,h,Sychronize.jpg,Number8.jpg,8,Human,,,,,0,2,2,8,0,0,0,4,,,,,,,,,,,,,,,,,,,,,,,,,696.4425613828771,None,696.4425613828771,None,699.5049016164212,None,699.5049016164212,None,699.9384151937429,None,699.9384151937429,None,v,9.11714929007394,699.9384151937429,None,t,8.688781920813199,699.9384151937429,None,9.11714929007394,8.688781920813199,7.774878306186697,False,False,False,709.1360189334773,None,709.1360189334773,None,709.1360189334773,None,709.1360189334773,None,709.1360189334773,None,709.1360189334773,None,709.1360189334773,None,709.1360189334773,None,710.1546072563997,None,710.1546072563997,None,711.1519220411865,None,711.1519220411865,None,h,,,,,,,,,,,,,,,,,,,,,,,,,,,,,,,,,,,,,,,,,,,,,,,59_60Exp,001,2021_May_20_1503,ComputerHuman,2020.1.3,60.01830905909413,
Human.xlsx,h,Sychronize.jpg,Number10.jpg,10,Human,,,,,0,2,2,8,0,1,1,9,,,,,,,,,,,,,,,,,,,,,,,,,,,,,712.2017305219251,None,712.2017305219251,None,712.6516649392888,None,712.6516649392888,None,v,9.230895147653428,712.6516649392888,None,t,11.23351171682225,712.6516649392888,None,9.230895147653428,11.23351171682225,9.635304111412092,False,False,False,723.9820352654624,None,723.9820352654624,None,723.9820352654624,None,723.9820352654624,None,723.9820352654624,None,723.9820352654624,None,723.9820352654624,None,723.9820352654624,None,724.9674672271267,None,724.9674672271267,None,725.964944003752,None,725.964944003752,None,h,,,,,,,,,,,,,,,,,,,,,,,,,,,,,,,,,,,,,,,,,,,,,,,59_60Exp,001,2021_May_20_1503,ComputerHuman,2020.1.3,60.01830905909413,
Human.xlsx,h,Sychronize.jpg,Number7.jpg,7,Human,,,,,0,2,2,8,0,2,2,2,,,,,,,,,,,,,,,,,,,,,,,,,,,,,727.0145032416003,None,727.0145032416003,None,727.4646987705619,None,727.4646987705619,None,v,8.23670536186728,727.4646987705619,None,t,7.535889532471629,727.4646987705619,None,8.23670536186728,7.535889532471629,7.029850201842961,False,False,False,735.7807227145604,None,735.7807227145604,None,735.7807227145604,None,735.7807227145604,None,735.7807227145604,None,735.7807227145604,None,735.7807227145604,None,735.7807227145604,None,736.7644536015268,None,736.7644536015268,None,737.7619544363461,None,737.7619544363461,None,h,,,,,,,,,,,,,,,,,,,,,,,,,,,,,,,,,,,,,,,,,,,,,,,59_60Exp,001,2021_May_20_1503,ComputerHuman,2020.1.3,60.01830905909413,
Human.xlsx,h,Sychronize.jpg,Number6.jpg,6,Human,,,,,0,2,2,8,0,3,3,0,,,,,,,,,,,,,,,,,,,,,,,,,,,,,738.8284753424359,None,738.8284753424359,None,739.2619388787152,None,739.2619388787152,None,v,5.910716513961233,739.2619388787152,None,t,6.345983773229818,739.2619388787152,None,5.910716513961233,6.345983773229818,6.1148569958821675,False,False,False,745.6778242154378,None,745.6778242154378,None,745.6778242154378,None,745.6778242154378,None,745.6778242154378,None,745.6778242154378,None,745.6778242154378,None,745.6778242154378,None,746.6787942418159,None,746.6787942418159,None,747.6761471989357,None,747.6761471989357,None,h,,,,,,,,,,,,,,,,,,,,,,,,,,,,,,,,,,,,,,,,,,,,,,,59_60Exp,001,2021_May_20_1503,ComputerHuman,2020.1.3,60.01830905909413,
Human.xlsx,h,Sychronize.jpg,Number6.jpg,6,Human,,,,,0,2,2,8,0,4,4,1,,,,,,,,,,,,,,,,,,,,,,,,,,,,,748.709755533464,None,748.709755533464,None,749.1594416702665,None,749.1594416702665,None,v,6.312379929564486,749.1594416702665,None,t,5.915989107732457,749.1594416702665,None,6.312379929564486,5.915989107732457,6.092040080808316,False,False,False,755.5246399210118,None,755.5246399210118,None,755.5246399210118,None,755.5246399210118,None,755.5246399210118,None,755.5246399210118,None,755.5246399210118,None,755.5246399210118,None,756.5428522945585,None,756.5428522945585,None,757.5403242595439,None,757.5403242595439,None,h,,,,,,,,,,,,,,,,,,,,,,,,,,,,,,,,,,,,,,,,,,,,,,,59_60Exp,001,2021_May_20_1503,ComputerHuman,2020.1.3,60.01830905909413,
Human.xlsx,h,Sychronize.jpg,Number10.jpg,10,Human,,,,,0,2,2,8,0,5,5,8,,,,,,,,,,,,,,,,,,,,,,,,,,,,,758.5903951349846,None,758.5903951349846,None,759.04058392765,None,759.04058392765,None,v,10.41008025492738,759.04058392765,None,t,10.321682431198496,759.04058392765,None,10.41008025492738,10.321682431198496,9.881342437578533,True,False,False,769.5213044930115,None,769.5213044930115,None,769.5213044930115,None,769.5213044930115,None,769.5213044930115,None,769.5213044930115,None,769.5213044930115,None,769.5213044930115,None,770.5067319638129,None,770.5067319638129,None,771.5036409670629,None,771.5036409670629,None,h,,,,,,,,,,,,,,,,,,,,,,,,,,,,,,,,,,,,,,,,,,,,,,,59_60Exp,001,2021_May_20_1503,ComputerHuman,2020.1.3,60.01830905909413,
Human.xlsx,h,Sychronize.jpg,Number9.jpg,9,Human,,,,,0,2,2,8,0,6,6,7,,,,,,,,,,,,,,,,,,,,,,,,,,,,,772.5700669234793,None,772.5700669234793,None,773.0200202666219,None,773.0200202666219,None,v,9.6415752535504,773.0200202666219,None,t,9.597020761579188,773.0200202666219,None,9.6415752535504,9.597020761579188,8.674972694391215,True,False,False,782.7506701810871,None,782.7506701810871,None,782.7506701810871,None,782.7506701810871,None,782.7506701810871,None,782.7506701810871,None,782.7506701810871,None,782.7506701810871,None,783.7366699161266,None,783.7366699161266,None,784.7169021001519,None,784.7169021001519,None,h,,,,,,,,,,,,,,,,,,,,,,,,,,,,,,,,,,,,,,,,,,,,,,,59_60Exp,001,2021_May_20_1503,ComputerHuman,2020.1.3,60.01830905909413,
Human.xlsx,h,Sychronize.jpg,Number7.jpg,7,Human,,,,,0,2,2,8,0,7,7,3,,,,,,,,,,,,,,,,,,,,,,,,,,,,,785.7838923014097,None,785.7838923014097,None,786.2168477286341,None,786.2168477286341,None,v,8.71569052950872,786.2168477286341,None,t,7.610882772120021,786.2168477286341,None,8.71569052950872,7.610882772120021,7.132092822185104,False,False,False,795.0158116865714,None,795.0158116865714,None,795.0158116865714,None,795.0158116865714,None,795.0158116865714,None,795.0158116865714,None,795.0158116865714,None,795.0158116865714,None,796.0161209145572,None,796.0161209145572,None,797.0138533495901,None,797.0138533495901,None,h,,,,,,,,,,,,,,,,,,,,,,,,,,,,,,,,,,,,,,,,,,,,,,,59_60Exp,001,2021_May_20_1503,ComputerHuman,2020.1.3,60.01830905909413,
Human.xlsx,h,Sychronize.jpg,Number8.jpg,8,Human,,,,,0,2,2,8,0,8,8,5,,,,,,,,,,,,,,,,,,,,,,,,,,,,,798.063880920281,None,798.063880920281,None,798.4969694695101,None,798.4969694695101,None,v,7.678683894899223,798.4969694695101,None,t,9.18172597332159,798.4969694695101,None,7.678683894899223,9.18172597332159,8.241665580594356,False,False,False,807.7448394372168,None,807.7448394372168,None,807.7448394372168,None,807.7448394372168,None,807.7448394372168,None,807.7448394372168,None,807.7448394372168,None,807.7448394372168,None,808.746629046067,None,808.746629046067,None,809.7440371766461,None,809.7440371766461,None,h,,,,,,,,,,,,,,,,,,,,,,,,,,,,,,,,,,,,,,,,,,,,,,,59_60Exp,001,2021_May_20_1503,ComputerHuman,2020.1.3,60.01830905909413,
Human.xlsx,h,Sychronize.jpg,Number9.jpg,9,Human,,,,,0,2,2,8,0,9,9,6,,,,,,,,,,,,,,,,,,,,,,,,,,,,,810.793777973664,None,810.793777973664,None,811.243888497007,None,811.243888497007,None,v,9.774571515546995,811.243888497007,None,t,9.281744546247864,811.243888497007,None,9.774571515546995,9.281744546247864,9.208931307891572,False,False,False,821.0926827484454,None,821.0926827484454,None,821.0926827484454,None,821.0926827484454,None,821.0926827484454,None,821.0926827484454,None,821.0926827484454,None,821.0926827484454,None,822.0762407371949,None,822.0762407371949,None,823.0906535199865,None,823.0906535199865,None,h,,,,,,,,,,,,,,,,,,,,,,,,,,,,,,,,,,,,,,,,,,,,,,,59_60Exp,001,2021_May_20_1503,ComputerHuman,2020.1.3,60.01830905909413,
Human.xlsx,h,,,,,,,,,0,2,2,8,,,,,,,,,,,,,,,,,,,,,,,,,,,,,,,,,,,,,,,,,,,,,,,,,,,,,,,,,,,,,,,,,,,,,,,,,,,,,,,h,824.0911696484382,None,824.0911696484382,None,a,0,2.478825742009576,824.0911696484382,None,o,1,3.566198365902892,824.0911696484382,None,c,h,827.7400492904271,None,827.7400492904271,None,829.739011901107,None,None,None,None,None,None,None,None,,,,,,,,,,,,,,,,,,59_60Exp,001,2021_May_20_1503,ComputerHuman,2020.1.3,60.01830905909413,
Human.xlsx,h,Sychronize.jpg,Number10.jpg,10,Human,,,,,0,3,3,4,0,0,0,8,,,,,,,,,,,,,,,,,,,,,,,,,834.7241622215133,None,834.7241622215133,None,837.8038169768079,None,837.8038169768079,None,838.2373799536217,None,838.2373799536217,None,v,10.038878362092873,838.2373799536217,None,t,10.69360831528138,838.2373799536217,None,10.038878362092873,10.69360831528138,9.648992739657697,False,False,False,849.0175079496294,None,849.0175079496294,None,849.0175079496294,None,849.0175079496294,None,849.0175079496294,None,849.0175079496294,None,849.0175079496294,None,849.0175079496294,None,850.0192590653678,None,850.0192590653678,None,851.0003275122126,None,851.0003275122126,None,h,,,,,,,,,,,,,,,,,,,,,,,,,,,,,,,,,,,,,,,,,,,,,,,59_60Exp,001,2021_May_20_1503,ComputerHuman,2020.1.3,60.01830905909413,
Human.xlsx,h,Sychronize.jpg,Number6.jpg,6,Human,,,,,0,3,3,4,0,1,1,0,,,,,,,,,,,,,,,,,,,,,,,,,,,,,852.0664686196142,None,852.0664686196142,None,852.5001762663669,None,852.5001762663669,None,v,6.235237491262524,852.5001762663669,None,None,,852.5001762663669,None,6.235237491262524,13,5.9746908394428875,False,False,False,865.5651465416668,None,865.5651465416668,None,865.5651465416668,None,865.5651465416668,None,865.5651465416668,None,865.5651465416668,None,865.5651465416668,None,865.5651465416668,None,866.5488636352693,None,866.5488636352693,None,867.5461707214345,None,867.5461707214345,None,h,,,,,,,,,,,,,,,,,,,,,,,,,,,,,,,,,,,,,,,,,,,,,,,59_60Exp,001,2021_May_20_1503,ComputerHuman,2020.1.3,60.01830905909413,
Human.xlsx,h,Sychronize.jpg,Number8.jpg,8,Human,,,,,0,3,3,4,0,2,2,5,,,,,,,,,,,,,,,,,,,,,,,,,,,,,868.6133296508251,None,868.6133296508251,None,869.0461846751859,None,869.0461846751859,None,v,9.859555641951374,869.0461846751859,None,t,8.050780431771273,869.0461846751859,None,9.859555641951374,8.050780431771273,7.427472295510741,False,False,False,878.9780467376931,None,878.9780467376931,None,878.9780467376931,None,878.9780467376931,None,878.9780467376931,None,878.9780467376931,None,878.9780467376931,None,878.9780467376931,None,879.9782234852228,None,879.9782234852228,None,880.9761034771782,None,880.9761034771782,None,h,,,,,,,,,,,,,,,,,,,,,,,,,,,,,,,,,,,,,,,,,,,,,,,59_60Exp,001,2021_May_20_1503,ComputerHuman,2020.1.3,60.01830905909413,
Human.xlsx,h,Sychronize.jpg,Number7.jpg,7,Human,,,,,0,3,3,4,0,3,3,3,,,,,,,,,,,,,,,,,,,,,,,,,,,,,882.0261079520023,None,882.0261079520023,None,882.4597735771094,None,882.4597735771094,None,v,6.809164311369386,882.4597735771094,None,t,7.720144823912051,882.4597735771094,None,6.809164311369386,7.720144823912051,6.900283034361438,False,False,False,890.2737809632963,None,890.2737809632963,None,890.2737809632963,None,890.2737809632963,None,890.2737809632963,None,890.2737809632963,None,890.2737809632963,None,890.2737809632963,None,891.2585559758791,None,891.2585559758791,None,892.2566983625347,None,892.2566983625347,None,h,,,,,,,,,,,,,,,,,,,,,,,,,,,,,,,,,,,,,,,,,,,,,,,59_60Exp,001,2021_May_20_1503,ComputerHuman,2020.1.3,60.01830905909413,
Human.xlsx,h,Sychronize.jpg,Number9.jpg,9,Human,,,,,0,3,3,4,0,4,4,7,,,,,,,,,,,,,,,,,,,,,,,,,,,,,893.306964911284,None,893.306964911284,None,893.7568871391632,None,893.7568871391632,None,v,8.642961967843803,893.7568871391632,None,t,8.44981380561876,893.7568871391632,None,8.642961967843803,8.44981380561876,9.489301668387423,True,False,False,902.4711389886761,None,902.4711389886761,None,902.4711389886761,None,902.4711389886761,None,902.4711389886761,None,902.4711389886761,None,902.4711389886761,None,902.4711389886761,None,903.4557427069194,None,903.4557427069194,None,904.453642266204,None,904.453642266204,None,h,,,,,,,,,,,,,,,,,,,,,,,,,,,,,,,,,,,,,,,,,,,,,,,59_60Exp,001,2021_May_20_1503,ComputerHuman,2020.1.3,60.01830905909413,
Human.xlsx,h,Sychronize.jpg,Number8.jpg,8,Human,,,,,0,3,3,4,0,5,5,4,,,,,,,,,,,,,,,,,,,,,,,,,,,,,905.5371376715702,None,905.5371376715702,None,905.9536437096958,None,905.9536437096958,None,v,8.901175675817285,905.9536437096958,None,t,8.312864301200534,905.9536437096958,None,8.901175675817285,8.312864301200534,7.909324464870588,False,False,False,914.9361203628232,None,914.9361203628232,None,914.9361203628232,None,914.9361203628232,None,914.9361203628232,None,914.9361203628232,None,914.9361203628232,None,914.9361203628232,None,915.9370178938425,None,915.9370178938425,None,916.9171663553534,None,916.9171663553534,None,h,,,,,,,,,,,,,,,,,,,,,,,,,,,,,,,,,,,,,,,,,,,,,,,59_60Exp,001,2021_May_20_1503,ComputerHuman,2020.1.3,60.01830905909413,
Human.xlsx,h,Sychronize.jpg,Number9.jpg,9,Human,,,,,0,3,3,4,0,6,6,6,,,,,,,,,,,,,,,,,,,,,,,,,,,,,917.9839612040778,None,917.9839612040778,None,918.4171347589254,None,918.4171347589254,None,v,9.432634330529254,918.4171347589254,None,t,8.435770556683565,918.4171347589254,None,9.432634330529254,8.435770556683565,9.27191493035279,False,False,False,927.9477661325418,None,927.9477661325418,None,927.9477661325418,None,927.9477661325418,None,927.9477661325418,None,927.9477661325418,None,927.9477661325418,None,927.9477661325418,None,928.9328551847484,None,928.9328551847484,None,929.9306742292792,None,929.9306742292792,None,h,,,,,,,,,,,,,,,,,,,,,,,,,,,,,,,,,,,,,,,,,,,,,,,59_60Exp,001,2021_May_20_1503,ComputerHuman,2020.1.3,60.01830905909413,
Human.xlsx,h,Sychronize.jpg,Number7.jpg,7,Human,,,,,0,3,3,4,0,7,7,2,,,,,,,,,,,,,,,,,,,,,,,,,,,,,930.9801561601325,None,930.9801561601325,None,931.4307234683838,None,931.4307234683838,None,v,6.4622400231473875,931.4307234683838,None,t,7.405907281003238,931.4307234683838,None,6.4622400231473875,7.405907281003238,7.433212078997509,False,False,False,938.8961763831285,None,938.8961763831285,None,938.8961763831285,None,938.8961763831285,None,938.8961763831285,None,938.8961763831285,None,938.8961763831285,None,938.8961763831285,None,939.9136496889587,None,939.9136496889587,None,940.9111902999921,None,940.9111902999921,None,h,,,,,,,,,,,,,,,,,,,,,,,,,,,,,,,,,,,,,,,,,,,,,,,59_60Exp,001,2021_May_20_1503,ComputerHuman,2020.1.3,60.01830905909413,
Human.xlsx,h,Sychronize.jpg,Number6.jpg,6,Human,,,,,0,3,3,4,0,8,8,1,,,,,,,,,,,,,,,,,,,,,,,,,,,,,941.9611335066165,None,941.9611335066165,None,942.4111724969298,None,942.4111724969298,None,v,5.800941541474458,942.4111724969298,None,t,6.25998310794057,942.4111724969298,None,5.800941541474458,6.25998310794057,5.711900799486876,False,False,False,948.7593365840767,None,948.7593365840767,None,948.7593365840767,None,948.7593365840767,None,948.7593365840767,None,948.7593365840767,None,948.7593365840767,None,948.7593365840767,None,949.7279666239065,None,949.7279666239065,None,950.7253827738841,None,950.7253827738841,None,h,,,,,,,,,,,,,,,,,,,,,,,,,,,,,,,,,,,,,,,,,,,,,,,59_60Exp,001,2021_May_20_1503,ComputerHuman,2020.1.3,60.01830905909413,
Human.xlsx,h,Sychronize.jpg,Number10.jpg,10,Human,,,,,0,3,3,4,0,9,9,9,,,,,,,,,,,,,,,,,,,,,,,,,,,,,951.7924066566138,None,951.7924066566138,None,952.2253620838364,None,952.2253620838364,None,v,9.70967983034825,952.2253620838364,None,t,9.672730935406435,952.2253620838364,None,9.70967983034825,9.672730935406435,9.311535417603118,True,False,False,962.007161643156,None,962.007161643156,None,962.007161643156,None,962.007161643156,None,962.007161643156,None,962.007161643156,None,962.007161643156,None,962.007161643156,None,963.0078346310329,None,963.0078346310329,None,964.0053431644737,None,964.0053431644737,None,h,,,,,,,,,,,,,,,,,,,,,,,,,,,,,,,,,,,,,,,,,,,,,,,59_60Exp,001,2021_May_20_1503,ComputerHuman,2020.1.3,60.01830905909413,
Human.xlsx,h,,,,,,,,,0,3,3,4,,,,,,,,,,,,,,,,,,,,,,,,,,,,,,,,,,,,,,,,,,,,,,,,,,,,,,,,,,,,,,,,,,,,,,,,,,,,,,,h,965.0064257831982,None,965.0064257831982,None,q,0,7.3077466421982535,965.0064257831982,None,o,1,11.350583379124146,965.0064257831982,None,h,h,976.4357776137549,None,976.4357776137549,None,978.4518192966607,None,None,None,None,None,None,None,None,,,,,,,,,,,,,,,,,,59_60Exp,001,2021_May_20_1503,ComputerHuman,2020.1.3,60.01830905909413,
Human.xlsx,h,Sychronize.jpg,Number9.jpg,9,Human,,,,,0,4,4,2,0,0,0,6,,,,,,,,,,,,,,,,,,,,,,,,,983.4541237508583,None,983.4541237508583,None,986.5165143462218,None,986.5165143462218,None,986.9502219929745,None,986.9502219929745,None,v,9.085985588821131,986.9502219929745,None,t,8.777758424297645,986.9502219929745,None,9.085985588821131,8.777758424297645,9.263754423852138,False,False,False,996.1145888566934,None,996.1145888566934,None,996.1145888566934,None,996.1145888566934,None,996.1145888566934,None,996.1145888566934,None,996.1145888566934,None,996.1145888566934,None,997.115958569866,None,997.115958569866,None,998.1135626945306,None,998.1135626945306,None,h,,,,,,,,,,,,,,,,,,,,,,,,,,,,,,,,,,,,,,,,,,,,,,,59_60Exp,001,2021_May_20_1503,ComputerHuman,2020.1.3,60.01830905909413,
Human.xlsx,h,Sychronize.jpg,Number8.jpg,8,Human,,,,,0,4,4,2,0,1,1,4,,,,,,,,,,,,,,,,,,,,,,,,,,,,,999.1640637304754,None,999.1640637304754,None,999.5967497059282,None,999.5967497059282,None,v,7.02662375968066,999.5967497059282,None,t,8.41411625753426,999.5967497059282,None,7.02662375968066,8.41411625753426,7.4213959585793265,False,False,False,1008.0794950088875,None,1008.0794950088875,None,1008.0794950088875,None,1008.0794950088875,None,1008.0794950088875,None,1008.0794950088875,None,1008.0794950088875,None,1008.0794950088875,None,1009.0802571724689,None,1009.0802571724689,None,1010.0772697863413,None,1010.0772697863413,None,h,,,,,,,,,,,,,,,,,,,,,,,,,,,,,,,,,,,,,,,,,,,,,,,59_60Exp,001,2021_May_20_1503,ComputerHuman,2020.1.3,60.01830905909413,
Human.xlsx,h,Sychronize.jpg,Number8.jpg,8,Human,,,,,0,4,4,2,0,2,2,5,,,,,,,,,,,,,,,,,,,,,,,,,,,,,1011.1104989637333,None,1011.1104989637333,None,1011.5771583167079,None,1011.5771583167079,None,v,8.497143330057952,1011.5771583167079,None,t,8.06077035620001,1011.5771583167079,None,8.497143330057952,8.06077035620001,7.775126475651046,False,False,False,1020.1252113512328,None,1020.1252113512328,None,1020.1252113512328,None,1020.1252113512328,None,1020.1252113512328,None,1020.1252113512328,None,1020.1252113512328,None,1020.1252113512328,None,1021.126021951979,None,1021.126021951979,None,1022.124228814595,None,1022.124228814595,None,h,,,,,,,,,,,,,,,,,,,,,,,,,,,,,,,,,,,,,,,,,,,,,,,59_60Exp,001,2021_May_20_1503,ComputerHuman,2020.1.3,60.01830905909413,
Human.xlsx,h,Sychronize.jpg,Number10.jpg,10,Human,,,,,0,4,4,2,0,3,3,8,,,,,,,,,,,,,,,,,,,,,,,,,,,,,1023.1911654462747,None,1023.1911654462747,None,1023.6410248020729,None,1023.6410248020729,None,v,12.123976363945985,1023.6410248020729,None,t,9.879858191383391,1023.6410248020729,None,12.123976363945985,9.879858191383391,9.427508724281271,False,False,False,1035.8213499469603,None,1035.8213499469603,None,1035.8213499469603,None,1035.8213499469603,None,1035.8213499469603,None,1035.8213499469603,None,1035.8213499469603,None,1035.8213499469603,None,1036.8227132446136,None,1036.8227132446136,None,1037.8202926695321,None,1037.8202926695321,None,h,,,,,,,,,,,,,,,,,,,,,,,,,,,,,,,,,,,,,,,,,,,,,,,59_60Exp,001,2021_May_20_1503,ComputerHuman,2020.1.3,60.01830905909413,
Human.xlsx,h,Sychronize.jpg,Number7.jpg,7,Human,,,,,0,4,4,2,0,4,4,3,,,,,,,,,,,,,,,,,,,,,,,,,,,,,1038.8872908901885,None,1038.8872908901885,None,1039.3371685302136,None,1039.3371685302136,None,v,7.931092521077517,1039.3371685302136,None,t,7.425914075038236,1039.3371685302136,None,7.931092521077517,7.425914075038236,6.997666308774216,False,False,False,1047.335091506142,None,1047.335091506142,None,1047.335091506142,None,1047.335091506142,None,1047.335091506142,None,1047.335091506142,None,1047.335091506142,None,1047.335091506142,None,1048.337127470897,None,1048.337127470897,None,1049.3174372826943,None,1049.3174372826943,None,h,,,,,,,,,,,,,,,,,,,,,,,,,,,,,,,,,,,,,,,,,,,,,,,59_60Exp,001,2021_May_20_1503,ComputerHuman,2020.1.3,60.01830905909413,
Human.xlsx,h,Sychronize.jpg,Number7.jpg,7,Human,,,,,0,4,4,2,0,5,5,2,,,,,,,,,,,,,,,,,,,,,,,,,,,,,1050.367289068181,None,1050.367289068181,None,1050.8171092893172,None,1050.8171092893172,None,v,7.6460234532114555,1050.8171092893172,None,t,7.012892946489956,1050.8171092893172,None,7.6460234532114555,7.012892946489956,7.227521731744216,False,False,False,1058.5332286962293,None,1058.5332286962293,None,1058.5332286962293,None,1058.5332286962293,None,1058.5332286962293,None,1058.5332286962293,None,1058.5332286962293,None,1058.5332286962293,None,1059.5343087487454,None,1059.5343087487454,None,1060.5313434961554,None,1060.5313434961554,None,h,,,,,,,,,,,,,,,,,,,,,,,,,,,,,,,,,,,,,,,,,,,,,,,59_60Exp,001,2021_May_20_1503,ComputerHuman,2020.1.3,60.01830905909413,
Human.xlsx,h,Sychronize.jpg,Number9.jpg,9,Human,,,,,0,4,4,2,0,6,6,7,,,,,,,,,,,,,,,,,,,,,,,,,,,,,1061.5813806901242,None,1061.5813806901242,None,1062.03112617047,None,1062.03112617047,None,v,9.034965537439348,1062.03112617047,None,t,9.126752679521815,1062.03112617047,None,9.034965537439348,9.126752679521815,8.640131997374793,True,False,False,1071.2452286987955,None,1071.2452286987955,None,1071.2452286987955,None,1071.2452286987955,None,1071.2452286987955,None,1071.2452286987955,None,1071.2452286987955,None,1071.2452286987955,None,1072.2142144791196,None,1072.2142144791196,None,1073.2281310215658,None,1073.2281310215658,None,h,,,,,,,,,,,,,,,,,,,,,,,,,,,,,,,,,,,,,,,,,,,,,,,59_60Exp,001,2021_May_20_1503,ComputerHuman,2020.1.3,60.01830905909413,
Human.xlsx,h,Sychronize.jpg,Number10.jpg,10,Human,,,,,0,4,4,2,0,7,7,9,,,,,,,,,,,,,,,,,,,,,,,,,,,,,1074.278382493847,None,1074.278382493847,None,1074.7283464225948,None,1074.7283464225948,None,v,9.92098455111045,1074.7283464225948,None,t,10.471650305491494,1074.7283464225948,None,9.92098455111045,10.471650305491494,10.59629416527485,False,False,False,1085.275630236467,None,1085.275630236467,None,1085.275630236467,None,1085.275630236467,None,1085.275630236467,None,1085.275630236467,None,1085.275630236467,None,1085.275630236467,None,1086.261045517782,None,1086.261045517782,None,1087.2579724844836,None,1087.2579724844836,None,h,,,,,,,,,,,,,,,,,,,,,,,,,,,,,,,,,,,,,,,,,,,,,,,59_60Exp,001,2021_May_20_1503,ComputerHuman,2020.1.3,60.01830905909413,
Human.xlsx,h,Sychronize.jpg,Number6.jpg,6,Human,,,,,0,4,4,2,0,8,8,1,,,,,,,,,,,,,,,,,,,,,,,,,,,,,1088.3081970115873,None,1088.3081970115873,None,1088.7580557258334,None,1088.7580557258334,None,v,5.534158625616328,1088.7580557258334,None,t,5.957008007530021,1088.7580557258334,None,5.534158625616328,5.957008007530021,6.080353713518251,False,False,False,1094.8059578352877,None,1094.8059578352877,None,1094.8059578352877,None,1094.8059578352877,None,1094.8059578352877,None,1094.8059578352877,None,1094.8059578352877,None,1094.8059578352877,None,1095.791292601849,None,1095.791292601849,None,1096.7888931979778,None,1096.7888931979778,None,h,,,,,,,,,,,,,,,,,,,,,,,,,,,,,,,,,,,,,,,,,,,,,,,59_60Exp,001,2021_May_20_1503,ComputerHuman,2020.1.3,60.01830905909413,
Human.xlsx,h,Sychronize.jpg,Number6.jpg,6,Human,,,,,0,4,4,2,0,9,9,0,,,,,,,,,,,,,,,,,,,,,,,,,,,,,1097.8223773922255,None,1097.8223773922255,None,1098.2889286437166,None,1098.2889286437166,None,v,6.258463592414046,1098.2889286437166,None,t,5.926017525271163,1098.2889286437166,None,6.258463592414046,5.926017525271163,6.0343597669442595,False,False,False,1104.6041775930953,None,1104.6041775930953,None,1104.6041775930953,None,1104.6041775930953,None,1104.6041775930953,None,1104.6041775930953,None,1104.6041775930953,None,1104.6041775930953,None,1105.6054626214263,None,1105.6054626214263,None,1106.619803229636,None,1106.619803229636,None,h,,,,,,,,,,,,,,,,,,,,,,,,,,,,,,,,,,,,,,,,,,,,,,,59_60Exp,001,2021_May_20_1503,ComputerHuman,2020.1.3,60.01830905909413,
Human.xlsx,h,,,,,,,,,0,4,4,2,,,,,,,,,,,,,,,,,,,,,,,,,,,,,,,,,,,,,,,,,,,,,,,,,,,,,,,,,,,,,,,,,,,,,,,,,,,,,,,h,1107.6208216931773,None,1107.6208216931773,None,q,0,5.6258902734643925,1107.6208216931773,None,l,0,8.144872348828358,1107.6208216931773,None,h,c,1115.8506181833109,None,1115.8506181833109,None,None,None,1117.83366998766,None,1117.83366998766,None,"['space', 'space']",1118.8167580396876,None,"[9.080808586273633, 11.744547851907555]",,,,,,,,,,,,,,,,,59_60Exp,001,2021_May_20_1503,ComputerHuman,2020.1.3,60.01830905909413,
Computer.xlsx,c,Sychronize.jpg,Number8.jpg,8,Computer,,,,,0,5,5,3,0,0,0,4,,,,,,,,,,,,,,,,,,,,,,,,,1130.6170763135524,None,1130.6170763135524,None,1133.6797960250078,None,1133.6797960250078,None,1134.113521314437,None,1134.113521314437,None,v,8.438792907387324,1134.113521314437,None,t,7.769867657480063,1134.113521314437,None,8.438792907387324,7.769867657480063,8.4710780235908,False,True,False,1142.6275871780726,None,1142.6275871780726,None,1142.6275871780726,None,1142.6275871780726,None,1142.6275871780726,None,1142.6275871780726,None,1142.6275871780726,None,1142.6275871780726,None,1143.6438084954934,None,1143.6438084954934,None,1144.6435951795083,None,1144.6435951795083,None,c,,,,,,,,,,,,,,,,,,,,,,,,,,,,,,,,,,,,,,,,,,,,,,,59_60Exp,001,2021_May_20_1503,ComputerHuman,2020.1.3,60.01830905909413,
Computer.xlsx,c,Sychronize.jpg,Number9.jpg,9,Computer,,,,,0,5,5,3,0,1,1,6,,,,,,,,,,,,,,,,,,,,,,,,,,,,,1145.6765645284067,None,1145.6765645284067,None,1146.143590528256,None,1146.143590528256,None,v,9.572056054950735,1146.143590528256,None,t,9.334715556766241,1146.143590528256,None,9.572056054950735,9.334715556766241,8.667526828197332,False,False,False,1155.7743838616352,None,1155.7743838616352,None,1155.7743838616352,None,1155.7743838616352,None,1155.7743838616352,None,1155.7743838616352,None,1155.7743838616352,None,1155.7743838616352,None,1156.8072717334508,None,1156.8072717334508,None,1157.7903164807285,None,1157.7903164807285,None,c,,,,,,,,,,,,,,,,,,,,,,,,,,,,,,,,,,,,,,,,,,,,,,,59_60Exp,001,2021_May_20_1503,ComputerHuman,2020.1.3,60.01830905909413,
Computer.xlsx,c,Sychronize.jpg,Number8.jpg,8,Computer,,,,,0,5,5,3,0,2,2,5,,,,,,,,,,,,,,,,,,,,,,,,,,,,,1158.840574047752,None,1158.840574047752,None,1159.2904786329545,None,1159.2904786329545,None,v,8.259794812474865,1159.2904786329545,None,t,8.358824112470757,1159.2904786329545,None,8.259794812474865,8.358824112470757,7.933992356679679,False,False,False,1167.722595872705,None,1167.722595872705,None,1167.722595872705,None,1167.722595872705,None,1167.722595872705,None,1167.722595872705,None,1167.722595872705,None,1167.722595872705,None,1168.7209409897423,None,1168.7209409897423,None,1169.7040454013386,None,1169.7040454013386,None,c,,,,,,,,,,,,,,,,,,,,,,,,,,,,,,,,,,,,,,,,,,,,,,,59_60Exp,001,2021_May_20_1503,ComputerHuman,2020.1.3,60.01830905909413,
Computer.xlsx,c,Sychronize.jpg,Number10.jpg,10,Computer,,,,,0,5,5,3,0,3,3,8,,,,,,,,,,,,,,,,,,,,,,,,,,,,,1170.7705307013039,None,1170.7705307013039,None,1171.2042255170181,None,1171.2042255170181,None,v,10.724881721900601,1171.2042255170181,None,t,11.208584220199555,1171.2042255170181,None,10.724881721900601,11.208584220199555,10.480544303581064,False,True,False,1182.50082038441,None,1182.50082038441,None,1182.50082038441,None,1182.50082038441,None,1182.50082038441,None,1182.50082038441,None,1182.50082038441,None,1182.50082038441,None,1183.4838298463383,None,1183.4838298463383,None,1184.466972109496,None,1184.466972109496,None,c,,,,,,,,,,,,,,,,,,,,,,,,,,,,,,,,,,,,,,,,,,,,,,,59_60Exp,001,2021_May_20_1503,ComputerHuman,2020.1.3,60.01830905909413,
Computer.xlsx,c,Sychronize.jpg,Number9.jpg,9,Computer,,,,,0,5,5,3,0,4,4,7,,,,,,,,,,,,,,,,,,,,,,,,,,,,,1185.5336088156928,None,1185.5336088156928,None,1185.9671602445724,None,1185.9671602445724,None,v,9.31683999793313,1185.9671602445724,None,t,9.687775646754744,1185.9671602445724,None,9.31683999793313,9.687775646754744,9.115311533566441,False,True,False,1195.7322592472465,None,1195.7322592472465,None,1195.7322592472465,None,1195.7322592472465,None,1195.7322592472465,None,1195.7322592472465,None,1195.7322592472465,None,1195.7322592472465,None,1196.7471820637493,None,1196.7471820637493,None,1197.7296086758342,None,1197.7296086758342,None,c,,,,,,,,,,,,,,,,,,,,,,,,,,,,,,,,,,,,,,,,,,,,,,,59_60Exp,001,2021_May_20_1503,ComputerHuman,2020.1.3,60.01830905909413,
Computer.xlsx,c,Sychronize.jpg,Number6.jpg,6,Computer,,,,,0,5,5,3,0,5,5,1,,,,,,,,,,,,,,,,,,,,,,,,,,,,,1198.7634357795378,None,1198.7634357795378,None,1199.2137217673098,None,1199.2137217673098,None,v,5.86152777229654,1199.2137217673098,None,t,6.3609797266399255,1199.2137217673098,None,5.86152777229654,6.3609797266399255,5.9997552806771886,False,True,False,1205.6292574582822,None,1205.6292574582822,None,1205.6292574582822,None,1205.6292574582822,None,1205.6292574582822,None,1205.6292574582822,None,1205.6292574582822,None,1205.6292574582822,None,1206.6613908651361,None,1206.6613908651361,None,1207.6445170894967,None,1207.6445170894967,None,c,,,,,,,,,,,,,,,,,,,,,,,,,,,,,,,,,,,,,,,,,,,,,,,59_60Exp,001,2021_May_20_1503,ComputerHuman,2020.1.3,60.01830905909413,
Computer.xlsx,c,Sychronize.jpg,Number7.jpg,7,Computer,,,,,0,5,5,3,0,6,6,3,,,,,,,,,,,,,,,,,,,,,,,,,,,,,1208.6943996694736,None,1208.6943996694736,None,1209.144496399449,None,1209.144496399449,None,v,6.981825157236017,1209.144496399449,None,t,7.144913087366149,1209.144496399449,None,6.981825157236017,7.144913087366149,6.882821945166955,False,True,True,1216.3604773915522,None,1216.3604773915522,None,1216.3604773915522,None,1216.3604773915522,None,1216.3604773915522,None,1216.3604773915522,None,1216.3604773915522,None,1216.3604773915522,None,1217.3585710202697,None,1217.3585710202697,None,1218.3418140070662,None,1218.3418140070662,None,c,,,,,,,,,,,,,,,,,,,,,,,,,,,,,,,,,,,,,,,,,,,,,,,59_60Exp,001,2021_May_20_1503,ComputerHuman,2020.1.3,60.01830905909413,
Computer.xlsx,c,Sychronize.jpg,Number10.jpg,10,Computer,,,,,0,5,5,3,0,7,7,9,,,,,,,,,,,,,,,,,,,,,,,,,,,,,1219.3929370275164,None,1219.3929370275164,None,1219.8416794415662,None,1219.8416794415662,None,v,9.911552456003847,1219.8416794415662,None,t,10.154690658138861,1219.8416794415662,None,9.911552456003847,10.154690658138861,10.687405995768582,False,False,False,1230.0724677708404,None,1230.0724677708404,None,1230.0724677708404,None,1230.0724677708404,None,1230.0724677708404,None,1230.0724677708404,None,1230.0724677708404,None,1230.0724677708404,None,1231.0886271785075,None,1231.0886271785075,None,1232.0551141144297,None,1232.0551141144297,None,c,,,,,,,,,,,,,,,,,,,,,,,,,,,,,,,,,,,,,,,,,,,,,,,59_60Exp,001,2021_May_20_1503,ComputerHuman,2020.1.3,60.01830905909413,
Computer.xlsx,c,Sychronize.jpg,Number6.jpg,6,Computer,,,,,0,5,5,3,0,8,8,0,,,,,,,,,,,,,,,,,,,,,,,,,,,,,1233.1214505743646,None,1233.1214505743646,None,1233.5552114699185,None,1233.5552114699185,None,v,5.845247432109318,1233.5552114699185,None,t,5.956031886409619,1233.5552114699185,None,5.845247432109318,5.956031886409619,6.134546207745231,False,True,True,1239.5867030041609,None,1239.5867030041609,None,1239.5867030041609,None,1239.5867030041609,None,1239.5867030041609,None,1239.5867030041609,None,1239.5867030041609,None,1239.5867030041609,None,1240.6027921619043,None,1240.6027921619043,None,1241.585973238949,None,1241.585973238949,None,c,,,,,,,,,,,,,,,,,,,,,,,,,,,,,,,,,,,,,,,,,,,,,,,59_60Exp,001,2021_May_20_1503,ComputerHuman,2020.1.3,60.01830905909413,
Computer.xlsx,c,Sychronize.jpg,Number7.jpg,7,Computer,,,,,0,5,5,3,0,9,9,2,,,,,,,,,,,,,,,,,,,,,,,,,,,,,1242.6357140359669,None,1242.6357140359669,None,1243.086144372899,None,1243.086144372899,None,v,6.597528549857088,1243.086144372899,None,t,7.0009154944709735,1243.086144372899,None,6.597528549857088,7.0009154944709735,6.949591344321265,False,False,True,1250.1686338249874,None,1250.1686338249874,None,1250.1686338249874,None,1250.1686338249874,None,1250.1686338249874,None,1250.1686338249874,None,1250.1686338249874,None,1250.1686338249874,None,1251.166848707,None,1251.166848707,None,1252.1500779004327,None,1252.1500779004327,None,c,,,,,,,,,,,,,,,,,,,,,,,,,,,,,,,,,,,,,,,,,,,,,,,59_60Exp,001,2021_May_20_1503,ComputerHuman,2020.1.3,60.01830905909413,
Computer.xlsx,c,,,,,,,,,0,5,5,3,,,,,,,,,,,,,,,,,,,,,,,,,,,,,,,,,,,,,,,,,,,,,,,,,,,,,,,,,,,,,,,,,,,,,,,,,,,,,,,c,1253.1505013246442,None,1253.1505013246442,None,a,1,7.3042527508951025,1253.1505013246442,None,o,0,3.3801913171737397,1253.1505013246442,None,c,h,1260.547728409294,None,1260.547728409294,None,1262.5474223890687,None,None,None,None,None,None,None,None,,,,,,,,,,,,,,,,,,59_60Exp,001,2021_May_20_1503,ComputerHuman,2020.1.3,60.01830905909413,
Computer.xlsx,c,Sychronize.jpg,Number8.jpg,8,Computer,,,,,0,6,6,7,0,0,0,5,,,,,,,,,,,,,,,,,,,,,,,,,1267.5329114488468,None,1267.5329114488468,None,1270.6123615491033,None,1270.6123615491033,None,1271.0456146563793,None,1271.0456146563793,None,v,7.623643879705924,1271.0456146563793,None,t,7.734830266235804,1271.0456146563793,None,7.623643879705924,7.734830266235804,8.095485313438976,False,False,False,1278.8608320093317,None,1278.8608320093317,None,1278.8608320093317,None,1278.8608320093317,None,1278.8608320093317,None,1278.8608320093317,None,1278.8608320093317,None,1278.8608320093317,None,1279.8931052744865,None,1279.8931052744865,None,1280.876226366434,None,1280.876226366434,None,c,,,,,,,,,,,,,,,,,,,,,,,,,,,,,,,,,,,,,,,,,,,,,,,59_60Exp,001,2021_May_20_1503,ComputerHuman,2020.1.3,60.01830905909413,
Computer.xlsx,c,Sychronize.jpg,Number6.jpg,6,Computer,,,,,0,6,6,7,0,1,1,0,,,,,,,,,,,,,,,,,,,,,,,,,,,,,1281.9265249927757,None,1281.9265249927757,None,1282.3594964587955,None,1282.3594964587955,None,v,6.376938328583492,1282.3594964587955,None,t,5.96789899151554,1282.3594964587955,None,6.376938328583492,5.96789899151554,5.6457396038333805,False,False,False,1288.791243843907,None,1288.791243843907,None,1288.791243843907,None,1288.791243843907,None,1288.791243843907,None,1288.791243843907,None,1288.791243843907,None,1288.791243843907,None,1289.8239844795771,None,1289.8239844795771,None,1290.8071103831626,None,1290.8071103831626,None,c,,,,,,,,,,,,,,,,,,,,,,,,,,,,,,,,,,,,,,,,,,,,,,,59_60Exp,001,2021_May_20_1503,ComputerHuman,2020.1.3,60.01830905909413,
Computer.xlsx,c,Sychronize.jpg,Number9.jpg,9,Computer,,,,,0,6,6,7,0,2,2,6,,,,,,,,,,,,,,,,,,,,,,,,,,,,,1291.8568312920743,None,1291.8568312920743,None,1292.3072888949628,None,1292.3072888949628,None,v,8.336142047275644,1292.3072888949628,None,t,8.76775791426553,1292.3072888949628,None,8.336142047275644,8.76775791426553,9.620647800951405,False,False,False,1301.1709876786754,None,1301.1709876786754,None,1301.1709876786754,None,1301.1709876786754,None,1301.1709876786754,None,1301.1709876786754,None,1301.1709876786754,None,1301.1709876786754,None,1302.1542008333108,None,1302.1542008333108,None,1303.1373421341395,None,1303.1373421341395,None,c,,,,,,,,,,,,,,,,,,,,,,,,,,,,,,,,,,,,,,,,,,,,,,,59_60Exp,001,2021_May_20_1503,ComputerHuman,2020.1.3,60.01830905909413,
Computer.xlsx,c,Sychronize.jpg,Number9.jpg,9,Computer,,,,,0,6,6,7,0,3,3,7,,,,,,,,,,,,,,,,,,,,,,,,,,,,,1304.187537149859,None,1304.187537149859,None,1304.637496908521,None,1304.637496908521,None,v,9.792829760048335,1304.637496908521,None,t,9.391752081275627,1304.637496908521,None,9.792829760048335,9.391752081275627,9.492592518775503,False,False,True,1314.5026590719772,None,1314.5026590719772,None,1314.5026590719772,None,1314.5026590719772,None,1314.5026590719772,None,1314.5026590719772,None,1314.5026590719772,None,1314.5026590719772,None,1315.517493033547,None,1315.517493033547,None,1316.4840053107673,None,1316.4840053107673,None,c,,,,,,,,,,,,,,,,,,,,,,,,,,,,,,,,,,,,,,,,,,,,,,,59_60Exp,001,2021_May_20_1503,ComputerHuman,2020.1.3,60.01830905909413,
Computer.xlsx,c,Sychronize.jpg,Number10.jpg,10,Computer,,,,,0,6,6,7,0,4,4,9,,,,,,,,,,,,,,,,,,,,,,,,,,,,,1317.5338872491902,None,1317.5338872491902,None,1317.983885180185,None,1317.983885180185,None,v,9.961340086305427,1317.983885180185,None,t,10.840635957505583,1317.983885180185,None,9.961340086305427,10.840635957505583,10.085102723005644,False,True,False,1328.9141776861197,None,1328.9141776861197,None,1328.9141776861197,None,1328.9141776861197,None,1328.9141776861197,None,1328.9141776861197,None,1328.9141776861197,None,1328.9141776861197,None,1329.9137991705375,None,1329.9137991705375,None,1330.8970418365589,None,1330.8970418365589,None,c,,,,,,,,,,,,,,,,,,,,,,,,,,,,,,,,,,,,,,,,,,,,,,,59_60Exp,001,2021_May_20_1503,ComputerHuman,2020.1.3,60.01830905909413,
Computer.xlsx,c,Sychronize.jpg,Number10.jpg,10,Computer,,,,,0,6,6,7,0,5,5,8,,,,,,,,,,,,,,,,,,,,,,,,,,,,,1331.9473109515147,None,1331.9473109515147,None,1332.3801278035407,None,1332.3801278035407,None,v,10.171924344358558,1332.3801278035407,None,t,10.479700818716083,1332.3801278035407,None,10.171924344358558,10.479700818716083,10.633872573855605,False,False,True,1342.9293513493922,None,1342.9293513493922,None,1342.9293513493922,None,1342.9293513493922,None,1342.9293513493922,None,1342.9293513493922,None,1342.9293513493922,None,1342.9293513493922,None,1343.9436980523442,None,1343.9436980523442,None,1344.926907999221,None,1344.926907999221,None,c,,,,,,,,,,,,,,,,,,,,,,,,,,,,,,,,,,,,,,,,,,,,,,,59_60Exp,001,2021_May_20_1503,ComputerHuman,2020.1.3,60.01830905909413,
Computer.xlsx,c,Sychronize.jpg,Number6.jpg,6,Computer,,,,,0,6,6,7,0,6,6,1,,,,,,,,,,,,,,,,,,,,,,,,,,,,,1345.9770856930427,None,1345.9770856930427,None,1346.426993486004,None,1346.426993486004,None,v,6.184224817727227,1346.426993486004,None,t,5.896046148107416,1346.426993486004,None,6.184224817727227,5.896046148107416,6.303787906008378,False,True,False,1352.708238263369,None,1352.708238263369,None,1352.708238263369,None,1352.708238263369,None,1352.708238263369,None,1352.708238263369,None,1352.708238263369,None,1352.708238263369,None,1353.6913125220326,None,1353.6913125220326,None,1354.6744268776874,None,1354.6744268776874,None,c,,,,,,,,,,,,,,,,,,,,,,,,,,,,,,,,,,,,,,,,,,,,,,,59_60Exp,001,2021_May_20_1503,ComputerHuman,2020.1.3,60.01830905909413,
Computer.xlsx,c,Sychronize.jpg,Number8.jpg,8,Computer,,,,,0,6,6,7,0,7,7,4,,,,,,,,,,,,,,,,,,,,,,,,,,,,,1355.7413843597988,None,1355.7413843597988,None,1356.1911291985944,None,1356.1911291985944,None,v,7.61517571623699,1356.1911291985944,None,t,8.062716824471863,1356.1911291985944,None,7.61517571623699,8.062716824471863,8.451842027323417,False,False,False,1364.3226668924926,None,1364.3226668924926,None,1364.3226668924926,None,1364.3226668924926,None,1364.3226668924926,None,1364.3226668924926,None,1364.3226668924926,None,1364.3226668924926,None,1365.3382347893657,None,1365.3382347893657,None,1366.3047088942494,None,1366.3047088942494,None,c,,,,,,,,,,,,,,,,,,,,,,,,,,,,,,,,,,,,,,,,,,,,,,,59_60Exp,001,2021_May_20_1503,ComputerHuman,2020.1.3,60.01830905909413,
Computer.xlsx,c,Sychronize.jpg,Number7.jpg,7,Computer,,,,,0,6,6,7,0,8,8,3,,,,,,,,,,,,,,,,,,,,,,,,,,,,,1367.3546113623324,None,1367.3546113623324,None,1367.8047363205897,None,1367.8047363205897,None,v,6.976660023396107,1367.8047363205897,None,t,7.163944081057707,1367.8047363205897,None,6.976660023396107,7.163944081057707,6.498218144942627,False,False,False,1375.052692897798,None,1375.052692897798,None,1375.052692897798,None,1375.052692897798,None,1375.052692897798,None,1375.052692897798,None,1375.052692897798,None,1375.052692897798,None,1376.052456485946,None,1376.052456485946,None,1377.035511177275,None,1377.035511177275,None,c,,,,,,,,,,,,,,,,,,,,,,,,,,,,,,,,,,,,,,,,,,,,,,,59_60Exp,001,2021_May_20_1503,ComputerHuman,2020.1.3,60.01830905909413,
Computer.xlsx,c,Sychronize.jpg,Number7.jpg,7,Computer,,,,,0,6,6,7,0,9,9,2,,,,,,,,,,,,,,,,,,,,,,,,,,,,,1378.0857183824792,None,1378.0857183824792,None,1378.535349345826,None,1378.535349345826,None,v,6.305412997389794,1378.535349345826,None,t,7.3889808981148235,1378.535349345826,None,6.305412997389794,7.3889808981148235,7.111292575901392,False,False,True,1386.0165501127358,None,1386.0165501127358,None,1386.0165501127358,None,1386.0165501127358,None,1386.0165501127358,None,1386.0165501127358,None,1386.0165501127358,None,1386.0165501127358,None,1386.999665109941,None,1386.999665109941,None,1387.9827788240418,None,1387.9827788240418,None,c,,,,,,,,,,,,,,,,,,,,,,,,,,,,,,,,,,,,,,,,,,,,,,,59_60Exp,001,2021_May_20_1503,ComputerHuman,2020.1.3,60.01830905909413,
Computer.xlsx,c,,,,,,,,,0,6,6,7,,,,,,,,,,,,,,,,,,,,,,,,,,,,,,,,,,,,,,,,,,,,,,,,,,,,,,,,,,,,,,,,,,,,,,,,,,,,,,,c,1388.983816213362,None,1388.983816213362,None,q,0,5.728016344175558,1388.983816213362,None,l,0,2.4753158119128784,1388.983816213362,None,h,c,1394.7979913653526,None,1394.7979913653526,None,1396.7972404289267,None,None,None,None,None,None,None,None,,,,,,,,,,,,,,,,,,59_60Exp,001,2021_May_20_1503,ComputerHuman,2020.1.3,60.01830905909413,
Human.xlsx,h,Sychronize.jpg,Number6.jpg,6,Human,,,,,0,7,7,6,0,0,0,1,,,,,,,,,,,,,,,,,,,,,,,,,1401.7820099883193,None,1401.7820099883193,None,1404.8621022819661,None,1404.8621022819661,None,1405.2952479293108,None,1405.2952479293108,None,v,6.643166622878198,1405.2952479293108,None,t,6.157980215182761,1405.2952479293108,None,6.643166622878198,6.157980215182761,6.4280297048100135,False,False,False,1412.011353542859,None,1412.011353542859,None,1412.011353542859,None,1412.011353542859,None,1412.011353542859,None,1412.011353542859,None,1412.011353542859,None,1412.011353542859,None,1413.0294969495826,None,1413.0294969495826,None,1414.0263033045358,None,1414.0263033045358,None,h,,,,,,,,,,,,,,,,,,,,,,,,,,,,,,,,,,,,,,,,,,,,,,,59_60Exp,001,2021_May_20_1503,ComputerHuman,2020.1.3,60.01830905909413,
Human.xlsx,h,Sychronize.jpg,Number7.jpg,7,Human,,,,,0,7,7,6,0,1,1,3,,,,,,,,,,,,,,,,,,,,,,,,,,,,,1415.076608346395,None,1415.076608346395,None,1415.50973121865,None,1415.50973121865,None,v,7.007826290857338,1415.50973121865,None,t,7.410893101103284,1415.50973121865,None,7.007826290857338,7.410893101103284,7.380451779766079,False,False,False,1422.99092974013,None,1422.99092974013,None,1422.99092974013,None,1422.99092974013,None,1422.99092974013,None,1422.99092974013,None,1422.99092974013,None,1422.99092974013,None,1423.9936300318095,None,1423.9936300318095,None,1424.9902230707794,None,1424.9902230707794,None,h,,,,,,,,,,,,,,,,,,,,,,,,,,,,,,,,,,,,,,,,,,,,,,,59_60Exp,001,2021_May_20_1503,ComputerHuman,2020.1.3,60.01830905909413,
Human.xlsx,h,Sychronize.jpg,Number8.jpg,8,Human,,,,,0,7,7,6,0,2,2,5,,,,,,,,,,,,,,,,,,,,,,,,,,,,,1426.0396960199087,None,1426.0396960199087,None,1426.4901799264208,None,1426.4901799264208,None,v,9.00631639860876,1426.4901799264208,None,t,8.281826985657972,1426.4901799264208,None,9.00631639860876,8.281826985657972,7.5576675165276646,False,False,False,1435.5875203412015,None,1435.5875203412015,None,1435.5875203412015,None,1435.5875203412015,None,1435.5875203412015,None,1435.5875203412015,None,1435.5875203412015,None,1435.5875203412015,None,1436.5562703512278,None,1436.5562703512278,None,1437.553654102836,None,1437.553654102836,None,h,,,,,,,,,,,,,,,,,,,,,,,,,,,,,,,,,,,,,,,,,,,,,,,59_60Exp,001,2021_May_20_1503,ComputerHuman,2020.1.3,60.01830905909413,
Human.xlsx,h,Sychronize.jpg,Number10.jpg,10,Human,,,,,0,7,7,6,0,3,3,8,,,,,,,,,,,,,,,,,,,,,,,,,,,,,1438.6037827179407,None,1438.6037827179407,None,1439.0533241848043,None,1439.0533241848043,None,v,10.10203144181287,1439.0533241848043,None,t,10.481752501491428,1439.0533241848043,None,10.10203144181287,10.481752501491428,9.748262010194791,False,False,False,1449.617370144295,None,1449.617370144295,None,1449.617370144295,None,1449.617370144295,None,1449.617370144295,None,1449.617370144295,None,1449.617370144295,None,1449.617370144295,None,1450.5861596097548,None,1450.5861596097548,None,1451.5835494561088,None,1451.5835494561088,None,h,,,,,,,,,,,,,,,,,,,,,,,,,,,,,,,,,,,,,,,,,,,,,,,59_60Exp,001,2021_May_20_1503,ComputerHuman,2020.1.3,60.01830905909413,
Human.xlsx,h,Sychronize.jpg,Number7.jpg,7,Human,,,,,0,7,7,6,0,4,4,2,,,,,,,,,,,,,,,,,,,,,,,,,,,,,1452.6506445510913,None,1452.6506445510913,None,1453.0832849763628,None,1453.0832849763628,None,v,7.6071861504387925,1453.0832849763628,None,t,6.830958148046193,1453.0832849763628,None,7.6071861504387925,6.830958148046193,6.697491271097174,False,False,False,1460.7650759068074,None,1460.7650759068074,None,1460.7650759068074,None,1460.7650759068074,None,1460.7650759068074,None,1460.7650759068074,None,1460.7650759068074,None,1460.7650759068074,None,1461.7664975856806,None,1461.7664975856806,None,1462.7640609718019,None,1462.7640609718019,None,h,,,,,,,,,,,,,,,,,,,,,,,,,,,,,,,,,,,,,,,,,,,,,,,59_60Exp,001,2021_May_20_1503,ComputerHuman,2020.1.3,60.01830905909413,
Human.xlsx,h,Sychronize.jpg,Number8.jpg,8,Human,,,,,0,7,7,6,0,5,5,4,,,,,,,,,,,,,,,,,,,,,,,,,,,,,1463.814182529839,None,1463.814182529839,None,1464.2642722027467,None,1464.2642722027467,None,v,7.845249677538959,1464.2642722027467,None,t,8.128883593948558,1464.2642722027467,None,7.845249677538959,8.128883593948558,7.549511709417266,True,False,False,1472.4466615406654,None,1472.4466615406654,None,1472.4466615406654,None,1472.4466615406654,None,1472.4466615406654,None,1472.4466615406654,None,1472.4466615406654,None,1472.4466615406654,None,1473.4633415676526,None,1473.4633415676526,None,1474.4610861921665,None,1474.4610861921665,None,h,,,,,,,,,,,,,,,,,,,,,,,,,,,,,,,,,,,,,,,,,,,,,,,59_60Exp,001,2021_May_20_1503,ComputerHuman,2020.1.3,60.01830905909413,
Human.xlsx,h,Sychronize.jpg,Number9.jpg,9,Human,,,,,0,7,7,6,0,6,6,7,,,,,,,,,,,,,,,,,,,,,,,,,,,,,1475.5107727780578,None,1475.5107727780578,None,1475.961004233921,None,1475.961004233921,None,v,9.679425849597465,1475.961004233921,None,t,9.16268054471584,1475.961004233921,None,9.679425849597465,9.16268054471584,8.991254398852282,False,False,False,1485.7098408598595,None,1485.7098408598595,None,1485.7098408598595,None,1485.7098408598595,None,1485.7098408598595,None,1485.7098408598595,None,1485.7098408598595,None,1485.7098408598595,None,1486.693442474132,None,1486.693442474132,None,1487.6910658453507,None,1487.6910658453507,None,h,,,,,,,,,,,,,,,,,,,,,,,,,,,,,,,,,,,,,,,,,,,,,,,59_60Exp,001,2021_May_20_1503,ComputerHuman,2020.1.3,60.01830905909413,
Human.xlsx,h,Sychronize.jpg,Number10.jpg,10,Human,,,,,0,7,7,6,0,7,7,9,,,,,,,,,,,,,,,,,,,,,,,,,,,,,1488.7577208357743,None,1488.7577208357743,None,1489.1913784414846,None,1489.1913784414846,None,v,9.788202246651053,1489.1913784414846,None,t,10.355677942261536,1489.1913784414846,None,9.788202246651053,10.355677942261536,9.700815045055606,False,False,False,1499.6380704558633,None,1499.6380704558633,None,1499.6380704558633,None,1499.6380704558633,None,1499.6380704558633,None,1499.6380704558633,None,1499.6380704558633,None,1499.6380704558633,None,1500.6058834794294,None,1500.6058834794294,None,1501.604361718475,None,1501.604361718475,None,h,,,,,,,,,,,,,,,,,,,,,,,,,,,,,,,,,,,,,,,,,,,,,,,59_60Exp,001,2021_May_20_1503,ComputerHuman,2020.1.3,60.01830905909413,
Human.xlsx,h,Sychronize.jpg,Number9.jpg,9,Human,,,,,0,7,7,6,0,8,8,6,,,,,,,,,,,,,,,,,,,,,,,,,,,,,1502.6547344440532,None,1502.6547344440532,None,1503.1044420728413,None,1503.1044420728413,None,v,9.729793442762457,1503.1044420728413,None,t,9.560732023477613,1503.1044420728413,None,9.729793442762457,9.560732023477613,8.86547084658597,True,False,False,1512.9182342183867,None,1512.9182342183867,None,1512.9182342183867,None,1512.9182342183867,None,1512.9182342183867,None,1512.9182342183867,None,1512.9182342183867,None,1512.9182342183867,None,1513.9029498874243,None,1513.9029498874243,None,1514.9010524978676,None,1514.9010524978676,None,h,,,,,,,,,,,,,,,,,,,,,,,,,,,,,,,,,,,,,,,,,,,,,,,59_60Exp,001,2021_May_20_1503,ComputerHuman,2020.1.3,60.01830905909413,
Human.xlsx,h,Sychronize.jpg,Number6.jpg,6,Human,,,,,0,7,7,6,0,9,9,0,,,,,,,,,,,,,,,,,,,,,,,,,,,,,1515.9343416603533,None,1515.9343416603533,None,1516.3845278868157,None,1516.3845278868157,None,v,5.9009094318062125,1516.3845278868157,None,t,6.180097073207435,1516.3845278868157,None,5.9009094318062125,6.180097073207435,6.442537263634888,True,False,False,1522.6165633928595,None,1522.6165633928595,None,1522.6165633928595,None,1522.6165633928595,None,1522.6165633928595,None,1522.6165633928595,None,1522.6165633928595,None,1522.6165633928595,None,1523.6344851434242,None,1523.6344851434242,None,1524.6319263139212,None,1524.6319263139212,None,h,,,,,,,,,,,,,,,,,,,,,,,,,,,,,,,,,,,,,,,,,,,,,,,59_60Exp,001,2021_May_20_1503,ComputerHuman,2020.1.3,60.01830905909413,
Human.xlsx,h,,,,,,,,,0,7,7,6,,,,,,,,,,,,,,,,,,,,,,,,,,,,,,,,,,,,,,,,,,,,,,,,,,,,,,,,,,,,,,,,,,,,,,,,,,,,,,,h,1525.6327808609694,None,1525.6327808609694,None,q,1,5.435979061032413,1525.6327808609694,None,o,0,3.315230344374868,1525.6327808609694,None,h,h,1531.146840629861,None,1531.146840629861,None,1533.1465522523122,None,None,None,None,None,None,None,None,,,,,,,,,,,,,,,,,,59_60Exp,001,2021_May_20_1503,ComputerHuman,2020.1.3,60.01830905909413,
Computer.xlsx,c,Sychronize.jpg,Number7.jpg,7,Computer,,,,,0,8,8,9,0,0,0,2,,,,,,,,,,,,,,,,,,,,,,,,,1538.1475229202424,None,1538.1475229202424,None,1541.2451517125755,None,1541.2451517125755,None,1541.678237054044,None,1541.678237054044,None,v,7.684973348332278,1541.678237054044,None,t,6.491985894841491,1541.678237054044,None,7.684973348332278,6.491985894841491,6.977809206123182,False,False,False,1549.4589697126594,None,1549.4589697126594,None,1549.4589697126594,None,1549.4589697126594,None,1549.4589697126594,None,1549.4589697126594,None,1549.4589697126594,None,1549.4589697126594,None,1550.4754649727129,None,1550.4754649727129,None,1551.4418813379289,None,1551.4418813379289,None,c,,,,,,,,,,,,,,,,,,,,,,,,,,,,,,,,,,,,,,,,,,,,,,,59_60Exp,001,2021_May_20_1503,ComputerHuman,2020.1.3,60.01830905909413,
Computer.xlsx,c,Sychronize.jpg,Number8.jpg,8,Computer,,,,,0,8,8,9,0,1,1,5,,,,,,,,,,,,,,,,,,,,,,,,,,,,,1552.508509383175,None,1552.508509383175,None,1552.9419610507448,None,1552.9419610507448,None,v,8.052272039793024,1552.9419610507448,None,t,8.427798954333412,1552.9419610507448,None,8.052272039793024,8.427798954333412,8.302595196823994,False,True,True,1561.4560182534315,None,1561.4560182534315,None,1561.4560182534315,None,1561.4560182534315,None,1561.4560182534315,None,1561.4560182534315,None,1561.4560182534315,None,1561.4560182534315,None,1562.4556557766464,None,1562.4556557766464,None,1563.4389545784488,None,1563.4389545784488,None,c,,,,,,,,,,,,,,,,,,,,,,,,,,,,,,,,,,,,,,,,,,,,,,,59_60Exp,001,2021_May_20_1503,ComputerHuman,2020.1.3,60.01830905909413,
Computer.xlsx,c,Sychronize.jpg,Number8.jpg,8,Computer,,,,,0,8,8,9,0,2,2,4,,,,,,,,,,,,,,,,,,,,,,,,,,,,,1564.4724897760698,None,1564.4724897760698,None,1564.939182168966,None,1564.939182168966,None,v,7.330217316059134,1564.939182168966,None,t,8.505826734173752,1564.939182168966,None,7.330217316059134,8.505826734173752,8.308242347576298,False,False,True,1573.5206417699646,None,1573.5206417699646,None,1573.5206417699646,None,1573.5206417699646,None,1573.5206417699646,None,1573.5206417699646,None,1573.5206417699646,None,1573.5206417699646,None,1574.536040938705,None,1574.536040938705,None,1575.5191482372884,None,1575.5191482372884,None,c,,,,,,,,,,,,,,,,,,,,,,,,,,,,,,,,,,,,,,,,,,,,,,,59_60Exp,001,2021_May_20_1503,ComputerHuman,2020.1.3,60.01830905909413,
Computer.xlsx,c,Sychronize.jpg,Number7.jpg,7,Computer,,,,,0,8,8,9,0,3,3,3,,,,,,,,,,,,,,,,,,,,,,,,,,,,,1576.5696133463298,None,1576.5696133463298,None,1577.0194768722158,None,1577.0194768722158,None,v,7.740891968762298,1577.0194768722158,None,t,7.411925678785337,1577.0194768722158,None,7.740891968762298,7.411925678785337,6.947949885239563,False,False,False,1584.834857179334,None,1584.834857179334,None,1584.834857179334,None,1584.834857179334,None,1584.834857179334,None,1584.834857179334,None,1584.834857179334,None,1584.834857179334,None,1585.8332975668181,None,1585.8332975668181,None,1586.8163955629007,None,1586.8163955629007,None,c,,,,,,,,,,,,,,,,,,,,,,,,,,,,,,,,,,,,,,,,,,,,,,,59_60Exp,001,2021_May_20_1503,ComputerHuman,2020.1.3,60.01830905909413,
Computer.xlsx,c,Sychronize.jpg,Number10.jpg,10,Computer,,,,,0,8,8,9,0,4,4,8,,,,,,,,,,,,,,,,,,,,,,,,,,,,,1587.8663737340994,None,1587.8663737340994,None,1588.3165763201305,None,1588.3165763201305,None,v,10.438662672364444,1588.3165763201305,None,t,10.653853272604465,1588.3165763201305,None,10.438662672364444,10.653853272604465,9.377092671641593,False,False,False,1599.0472288008004,None,1599.0472288008004,None,1599.0472288008004,None,1599.0472288008004,None,1599.0472288008004,None,1599.0472288008004,None,1599.0472288008004,None,1599.0472288008004,None,1600.0464117845386,None,1600.0464117845386,None,1601.0295341595865,None,1601.0295341595865,None,c,,,,,,,,,,,,,,,,,,,,,,,,,,,,,,,,,,,,,,,,,,,,,,,59_60Exp,001,2021_May_20_1503,ComputerHuman,2020.1.3,60.01830905909413,
Computer.xlsx,c,Sychronize.jpg,Number9.jpg,9,Computer,,,,,0,8,8,9,0,5,5,6,,,,,,,,,,,,,,,,,,,,,,,,,,,,,1602.0794709506936,None,1602.0794709506936,None,1602.529243376217,None,1602.529243376217,None,v,8.17700126481941,1602.529243376217,None,t,8.883771978365985,1602.529243376217,None,8.17700126481941,8.883771978365985,8.695986340476656,False,False,True,1611.494105902888,None,1611.494105902888,None,1611.494105902888,None,1611.494105902888,None,1611.494105902888,None,1611.494105902888,None,1611.494105902888,None,1611.494105902888,None,1612.5100388427545,None,1612.5100388427545,None,1613.4930335489898,None,1613.4930335489898,None,c,,,,,,,,,,,,,,,,,,,,,,,,,,,,,,,,,,,,,,,,,,,,,,,59_60Exp,001,2021_May_20_1503,ComputerHuman,2020.1.3,60.01830905909413,
Computer.xlsx,c,Sychronize.jpg,Number10.jpg,10,Computer,,,,,0,8,8,9,0,6,6,9,,,,,,,,,,,,,,,,,,,,,,,,,,,,,1614.5433045886039,None,1614.5433045886039,None,1614.9932255333788,None,1614.9932255333788,None,v,9.739895959537535,1614.9932255333788,None,t,9.71072299363368,1614.9932255333788,None,9.739895959537535,9.71072299363368,10.18705116664568,False,False,False,1624.8082074368049,None,1624.8082074368049,None,1624.8082074368049,None,1624.8082074368049,None,1624.8082074368049,None,1624.8082074368049,None,1624.8082074368049,None,1624.8082074368049,None,1625.823490163888,None,1625.823490163888,None,1626.80639537364,None,1626.80639537364,None,c,,,,,,,,,,,,,,,,,,,,,,,,,,,,,,,,,,,,,,,,,,,,,,,59_60Exp,001,2021_May_20_1503,ComputerHuman,2020.1.3,60.01830905909413,
Computer.xlsx,c,Sychronize.jpg,Number6.jpg,6,Computer,,,,,0,8,8,9,0,7,7,0,,,,,,,,,,,,,,,,,,,,,,,,,,,,,1627.856307785778,None,1627.856307785778,None,1628.3063583240237,None,1628.3063583240237,None,v,5.174036974560295,1628.3063583240237,None,t,5.757037903844321,1628.3063583240237,None,5.174036974560295,5.757037903844321,5.947537113495319,False,False,True,1634.1396042459182,None,1634.1396042459182,None,1634.1396042459182,None,1634.1396042459182,None,1634.1396042459182,None,1634.1396042459182,None,1634.1396042459182,None,1634.1396042459182,None,1635.1375493553842,None,1635.1375493553842,None,1636.1206845614706,None,1636.1206845614706,None,c,,,,,,,,,,,,,,,,,,,,,,,,,,,,,,,,,,,,,,,,,,,,,,,59_60Exp,001,2021_May_20_1503,ComputerHuman,2020.1.3,60.01830905909413,
Computer.xlsx,c,Sychronize.jpg,Number6.jpg,6,Computer,,,,,0,8,8,9,0,8,8,1,,,,,,,,,,,,,,,,,,,,,,,,,,,,,1637.1706553548229,None,1637.1706553548229,None,1637.6205512790784,None,1637.6205512790784,None,v,6.371027711513307,1637.6205512790784,None,t,5.814071220593178,1637.6205512790784,None,6.371027711513307,5.814071220593178,5.807619678930591,False,False,True,1644.0693716416772,None,1644.0693716416772,None,1644.0693716416772,None,1644.0693716416772,None,1644.0693716416772,None,1644.0693716416772,None,1644.0693716416772,None,1644.0693716416772,None,1645.0851490052246,None,1645.0851490052246,None,1646.068245076649,None,1646.068245076649,None,c,,,,,,,,,,,,,,,,,,,,,,,,,,,,,,,,,,,,,,,,,,,,,,,59_60Exp,001,2021_May_20_1503,ComputerHuman,2020.1.3,60.01830905909413,
Computer.xlsx,c,Sychronize.jpg,Number9.jpg,9,Computer,,,,,0,8,8,9,0,9,9,7,,,,,,,,,,,,,,,,,,,,,,,,,,,,,1647.1180423302303,None,1647.1180423302303,None,1647.5685249536382,None,1647.5685249536382,None,v,8.881997766755376,1647.5685249536382,None,t,8.228796310821053,1647.5685249536382,None,8.881997766755376,8.228796310821053,9.41843652597451,False,False,False,1656.5336947836386,None,1656.5336947836386,None,1656.5336947836386,None,1656.5336947836386,None,1656.5336947836386,None,1656.5336947836386,None,1656.5336947836386,None,1656.5336947836386,None,1657.5487455897328,None,1657.5487455897328,None,1658.531781996835,None,1658.531781996835,None,c,,,,,,,,,,,,,,,,,,,,,,,,,,,,,,,,,,,,,,,,,,,,,,,59_60Exp,001,2021_May_20_1503,ComputerHuman,2020.1.3,60.01830905909413,
Computer.xlsx,c,,,,,,,,,0,8,8,9,,,,,,,,,,,,,,,,,,,,,,,,,,,,,,,,,,,,,,,,,,,,,,,,,,,,,,,,,,,,,,,,,,,,,,,,,,,,,,,c,1659.5328575584917,None,1659.5328575584917,None,q,0,4.357046051554789,1659.5328575584917,None,o,0,7.763868827030819,1659.5328575584917,None,h,h,1667.3797348530406,None,1667.3797348530406,None,1669.3624533712118,None,None,None,None,None,None,None,None,,,,,,,,,,,,,,,,,,59_60Exp,001,2021_May_20_1503,ComputerHuman,2020.1.3,60.01830905909413,
Computer.xlsx,c,Sychronize.jpg,Number7.jpg,7,Computer,,,,,0,9,9,5,0,0,0,2,,,,,,,,,,,,,,,,,,,,,,,,,1674.3807934135712,None,1674.3807934135712,None,1677.4442961390432,None,1677.4442961390432,None,1677.8941705713096,None,1677.8941705713096,None,v,6.2142083843791625,1677.8941705713096,None,t,6.02134378806295,1677.8941705713096,None,6.2142083843791625,6.02134378806295,7.156581547368994,False,False,False,1684.1757332376128,None,1684.1757332376128,None,1684.1757332376128,None,1684.1757332376128,None,1684.1757332376128,None,1684.1757332376128,None,1684.1757332376128,None,1684.1757332376128,None,1685.19181565906,None,1685.19181565906,None,1686.1582365151426,None,1686.1582365151426,None,c,,,,,,,,,,,,,,,,,,,,,,,,,,,,,,,,,,,,,,,,,,,,,,,59_60Exp,001,2021_May_20_1503,ComputerHuman,2020.1.3,60.01830905909413,
Computer.xlsx,c,Sychronize.jpg,Number6.jpg,6,Computer,,,,,0,9,9,5,0,1,1,1,,,,,,,,,,,,,,,,,,,,,,,,,,,,,1687.2245774659405,None,1687.2245774659405,None,1687.6746988956638,None,1687.6746988956638,None,v,5.696826980849437,1687.6746988956638,None,t,5.424076349801908,1687.6746988956638,None,5.696826980849437,5.424076349801908,6.212566184216365,False,False,False,1693.4563537850427,None,1693.4563537850427,None,1693.4563537850427,None,1693.4563537850427,None,1693.4563537850427,None,1693.4563537850427,None,1693.4563537850427,None,1693.4563537850427,None,1694.4560464817132,None,1694.4560464817132,None,1695.4392265964289,None,1695.4392265964289,None,c,,,,,,,,,,,,,,,,,,,,,,,,,,,,,,,,,,,,,,,,,,,,,,,59_60Exp,001,2021_May_20_1503,ComputerHuman,2020.1.3,60.01830905909413,
Computer.xlsx,c,Sychronize.jpg,Number10.jpg,10,Computer,,,,,0,9,9,5,0,2,2,9,,,,,,,,,,,,,,,,,,,,,,,,,,,,,1696.4893619478298,None,1696.4893619478298,None,1696.9395132097106,None,1696.9395132097106,None,v,9.79889082102818,1696.9395132097106,None,t,9.049735023050744,1696.9395132097106,None,9.79889082102818,9.049735023050744,10.630815476434123,False,False,False,1706.8363516743393,None,1706.8363516743393,None,1706.8363516743393,None,1706.8363516743393,None,1706.8363516743393,None,1706.8363516743393,None,1706.8363516743393,None,1706.8363516743393,None,1707.8361159040378,None,1707.8361159040378,None,1708.81922641038,None,1708.81922641038,None,c,,,,,,,,,,,,,,,,,,,,,,,,,,,,,,,,,,,,,,,,,,,,,,,59_60Exp,001,2021_May_20_1503,ComputerHuman,2020.1.3,60.01830905909413,
Computer.xlsx,c,Sychronize.jpg,Number8.jpg,8,Computer,,,,,0,9,9,5,0,3,3,4,,,,,,,,,,,,,,,,,,,,,,,,,,,,,1709.869480769643,None,1709.869480769643,None,1710.3194033182972,None,1710.3194033182972,None,v,8.790044462748483,1710.3194033182972,None,t,7.505915589099459,1710.3194033182972,None,8.790044462748483,7.505915589099459,8.12434008252278,False,False,False,1719.183970442422,None,1719.183970442422,None,1719.183970442422,None,1719.183970442422,None,1719.183970442422,None,1719.183970442422,None,1719.183970442422,None,1719.183970442422,None,1720.1828316879128,None,1720.1828316879128,None,1721.1661426792034,None,1721.1661426792034,None,c,,,,,,,,,,,,,,,,,,,,,,,,,,,,,,,,,,,,,,,,,,,,,,,59_60Exp,001,2021_May_20_1503,ComputerHuman,2020.1.3,60.01830905909413,
Computer.xlsx,c,Sychronize.jpg,Number9.jpg,9,Computer,,,,,0,9,9,5,0,4,4,7,,,,,,,,,,,,,,,,,,,,,,,,,,,,,1722.2327373637545,None,1722.2327373637545,None,1722.6827471634588,None,1722.6827471634588,None,v,8.769659473909996,1722.6827471634588,None,t,7.904884807765484,1722.6827471634588,None,8.769659473909996,7.904884807765484,8.44864823469662,False,False,False,1731.531628024395,None,1731.531628024395,None,1731.531628024395,None,1731.531628024395,None,1731.531628024395,None,1731.531628024395,None,1731.531628024395,None,1731.531628024395,None,1732.5465931833187,None,1732.5465931833187,None,1733.5130060200008,None,1733.5130060200008,None,c,,,,,,,,,,,,,,,,,,,,,,,,,,,,,,,,,,,,,,,,,,,,,,,59_60Exp,001,2021_May_20_1503,ComputerHuman,2020.1.3,60.01830905909413,
Computer.xlsx,c,Sychronize.jpg,Number10.jpg,10,Computer,,,,,0,9,9,5,0,5,5,8,,,,,,,,,,,,,,,,,,,,,,,,,,,,,1734.581389030298,None,1734.581389030298,None,1735.0130950353177,None,1735.0130950353177,None,v,9.266284750858176,1735.0130950353177,None,t,8.64179177729602,1735.0130950353177,None,9.266284750858176,8.64179177729602,10.067419414814196,False,False,False,1744.3607170111627,None,1744.3607170111627,None,1744.3607170111627,None,1744.3607170111627,None,1744.3607170111627,None,1744.3607170111627,None,1744.3607170111627,None,1744.3607170111627,None,1745.376573927142,None,1745.376573927142,None,1746.3599067311934,None,1746.3599067311934,None,c,,,,,,,,,,,,,,,,,,,,,,,,,,,,,,,,,,,,,,,,,,,,,,,59_60Exp,001,2021_May_20_1503,ComputerHuman,2020.1.3,60.01830905909413,
Computer.xlsx,c,Sychronize.jpg,Number7.jpg,7,Computer,,,,,0,9,9,5,0,6,6,3,,,,,,,,,,,,,,,,,,,,,,,,,,,,,1747.409520821724,None,1747.409520821724,None,1747.8598042432877,None,1747.8598042432877,None,v,7.1507139990790165,1747.8598042432877,None,t,6.242000409951288,1747.8598042432877,None,7.1507139990790165,6.242000409951288,6.848044728155483,False,False,False,1755.107638604868,None,1755.107638604868,None,1755.107638604868,None,1755.107638604868,None,1755.107638604868,None,1755.107638604868,None,1755.107638604868,None,1755.107638604868,None,1756.1074114955172,None,1756.1074114955172,None,1757.0905415691905,None,1757.0905415691905,None,c,,,,,,,,,,,,,,,,,,,,,,,,,,,,,,,,,,,,,,,,,,,,,,,59_60Exp,001,2021_May_20_1503,ComputerHuman,2020.1.3,60.01830905909413,
Computer.xlsx,c,Sychronize.jpg,Number9.jpg,9,Computer,,,,,0,9,9,5,0,7,7,6,,,,,,,,,,,,,,,,,,,,,,,,,,,,,1758.1405810085907,None,1758.1405810085907,None,1758.5906690776192,None,1758.5906690776192,None,v,8.722839662405022,1758.5906690776192,None,t,8.769934378869948,1758.5906690776192,None,8.722839662405022,8.769934378869948,9.04257331999471,False,False,True,1767.4545901590445,None,1767.4545901590445,None,1767.4545901590445,None,1767.4545901590445,None,1767.4545901590445,None,1767.4545901590445,None,1767.4545901590445,None,1767.4545901590445,None,1768.437663134604,None,1768.437663134604,None,1769.4207617722368,None,1769.4207617722368,None,c,,,,,,,,,,,,,,,,,,,,,,,,,,,,,,,,,,,,,,,,,,,,,,,59_60Exp,001,2021_May_20_1503,ComputerHuman,2020.1.3,60.01830905909413,
Computer.xlsx,c,Sychronize.jpg,Number6.jpg,6,Computer,,,,,0,9,9,5,0,8,8,0,,,,,,,,,,,,,,,,,,,,,,,,,,,,,1770.470819816639,None,1770.470819816639,None,1770.9210782176797,None,1770.9210782176797,None,v,10.563295023064711,1770.9210782176797,None,t,9.4907284532419,1770.9210782176797,None,10.563295023064711,9.4907284532419,6.059834591902025,False,False,False,1781.567711145135,None,1781.567711145135,None,1781.567711145135,None,1781.567711145135,None,1781.567711145135,None,1781.567711145135,None,1781.567711145135,None,1781.567711145135,None,1782.5674432972428,None,1782.5674432972428,None,1783.5338625494423,None,1783.5338625494423,None,c,,,,,,,,,,,,,,,,,,,,,,,,,,,,,,,,,,,,,,,,,,,,,,,59_60Exp,001,2021_May_20_1503,ComputerHuman,2020.1.3,60.01830905909413,
Computer.xlsx,c,Sychronize.jpg,Number8.jpg,8,Computer,,,,,0,9,9,5,0,9,9,5,,,,,,,,,,,,,,,,,,,,,,,,,,,,,1784.6005066334856,None,1784.6005066334856,None,1785.0338845225942,None,1785.0338845225942,None,v,8.253541927497281,1785.0338845225942,None,t,7.084893026039936,1785.0338845225942,None,8.253541927497281,7.084893026039936,7.730733708308633,False,False,False,1793.3651931183285,None,1793.3651931183285,None,1793.3651931183285,None,1793.3651931183285,None,1793.3651931183285,None,1793.3651931183285,None,1793.3651931183285,None,1793.3651931183285,None,1794.3811703252777,None,1794.3811703252777,None,1795.36426094351,None,1795.36426094351,None,c,,,,,,,,,,,,,,,,,,,,,,,,,,,,,,,,,,,,,,,,,,,,,,,59_60Exp,001,2021_May_20_1503,ComputerHuman,2020.1.3,60.01830905909413,
Computer.xlsx,c,,,,,,,,,0,9,9,5,,,,,,,,,,,,,,,,,,,,,,,,,,,,,,,,,,,,,,,,,,,,,,,,,,,,,,,,,,,,,,,,,,,,,,,,,,,,,,,c,1796.36478444981,None,1796.36478444981,None,a,1,74.56428012591277,1796.36478444981,None,l,0,6.420989202360943,1796.36478444981,None,c,c,1870.9951780963947,None,1870.9951780963947,None,None,None,1873.0115328565971,None,1873.0115328565971,None,"['space', 'space']",1873.994664213371,None,"[527.879245509379, 530.6670740520822]",,,,,,,,,,,,,,,,,59_60Exp,001,2021_May_20_1503,ComputerHuman,2020.1.3,60.01830905909413,
Computer.xlsx,c,Sychronize.jpg,Number8.jpg,8,Computer,,,,,1,0,10,5,0,0,0,5,,,,,,,,,,,,,,,,,,,,,,,,,2404.7154858744707,None,2404.7154858744707,None,2407.7779531352808,None,2407.7779531352808,None,2408.228030618704,None,2408.228030618704,None,v,7.489013585178327,2408.228030618704,None,t,4.488405394040456,2408.228030618704,None,7.489013585178327,4.488405394040456,7.663692469289191,False,True,False,2415.7927299987405,None,2415.7927299987405,None,2415.7927299987405,None,2415.7927299987405,None,2415.7927299987405,None,2415.7927299987405,None,2415.7927299987405,None,2415.7927299987405,None,2416.825442726904,None,2416.825442726904,None,2417.792020763185,None,2417.792020763185,None,c,,,,,,,,,,,,,,,,,,,,,,,,,,,,,,,,,,,,,,,,,,,,,,,59_60Exp,001,2021_May_20_1503,ComputerHuman,2020.1.3,60.01830905909413,
Computer.xlsx,c,Sychronize.jpg,Number7.jpg,7,Computer,,,,,1,0,10,5,0,1,1,3,,,,,,,,,,,,,,,,,,,,,,,,,,,,,2418.842154189928,None,2418.842154189928,None,2419.292119401778,None,2419.292119401778,None,v,6.64383287446617,2419.292119401778,None,t,6.522977980977885,2419.292119401778,None,6.64383287446617,6.522977980977885,7.277349358284574,False,False,False,2426.0232854446967,None,2426.0232854446967,None,2426.0232854446967,None,2426.0232854446967,None,2426.0232854446967,None,2426.0232854446967,None,2426.0232854446967,None,2426.0232854446967,None,2427.023074374143,None,2427.023074374143,None,2428.0061784649643,None,2428.0061784649643,None,c,,,,,,,,,,,,,,,,,,,,,,,,,,,,,,,,,,,,,,,,,,,,,,,59_60Exp,001,2021_May_20_1503,ComputerHuman,2020.1.3,60.01830905909413,
Computer.xlsx,c,Sychronize.jpg,Number10.jpg,10,Computer,,,,,1,0,10,5,0,2,2,8,,,,,,,,,,,,,,,,,,,,,,,,,,,,,2429.0565903252045,None,2429.0565903252045,None,2429.5062389312243,None,2429.5062389312243,None,v,10.50477426838188,2429.5062389312243,None,t,9.647715546179825,2429.5062389312243,None,10.50477426838188,9.647715546179825,9.49164091137588,False,False,True,2440.087330923021,None,2440.087330923021,None,2440.087330923021,None,2440.087330923021,None,2440.087330923021,None,2440.087330923021,None,2440.087330923021,None,2440.087330923021,None,2441.1028879135174,None,2441.1028879135174,None,2442.085935227,None,2442.085935227,None,c,,,,,,,,,,,,,,,,,,,,,,,,,,,,,,,,,,,,,,,,,,,,,,,59_60Exp,001,2021_May_20_1503,ComputerHuman,2020.1.3,60.01830905909413,
Computer.xlsx,c,Sychronize.jpg,Number8.jpg,8,Computer,,,,,1,0,10,5,0,3,3,4,,,,,,,,,,,,,,,,,,,,,,,,,,,,,2443.1358325626697,None,2443.1358325626697,None,2443.5859318588537,None,2443.5859318588537,None,v,6.8560418625384045,2443.5859318588537,None,t,7.214899335704104,2443.5859318588537,None,6.8560418625384045,7.214899335704104,8.521732701727654,False,False,False,2450.8687375318423,None,2450.8687375318423,None,2450.8687375318423,None,2450.8687375318423,None,2450.8687375318423,None,2450.8687375318423,None,2450.8687375318423,None,2450.8687375318423,None,2451.8667727793418,None,2451.8667727793418,None,2452.8499484031945,None,2452.8499484031945,None,c,,,,,,,,,,,,,,,,,,,,,,,,,,,,,,,,,,,,,,,,,,,,,,,59_60Exp,001,2021_May_20_1503,ComputerHuman,2020.1.3,60.01830905909413,
Computer.xlsx,c,Sychronize.jpg,Number6.jpg,6,Computer,,,,,1,0,10,5,0,4,4,1,,,,,,,,,,,,,,,,,,,,,,,,,,,,,2453.8999217627515,None,2453.8999217627515,None,2454.3501349343915,None,2454.3501349343915,None,v,5.415039771403826,2454.3501349343915,None,t,6.030146841592796,2454.3501349343915,None,5.415039771403826,6.030146841592796,5.558921460548983,False,True,False,2460.4493621531237,None,2460.4493621531237,None,2460.4493621531237,None,2460.4493621531237,None,2460.4493621531237,None,2460.4493621531237,None,2460.4493621531237,None,2460.4493621531237,None,2461.464404939821,None,2461.464404939821,None,2462.430131636813,None,2462.430131636813,None,c,,,,,,,,,,,,,,,,,,,,,,,,,,,,,,,,,,,,,,,,,,,,,,,59_60Exp,001,2021_May_20_1503,ComputerHuman,2020.1.3,60.01830905909413,
Computer.xlsx,c,Sychronize.jpg,Number9.jpg,9,Computer,,,,,1,0,10,5,0,5,5,6,,,,,,,,,,,,,,,,,,,,,,,,,,,,,2463.4641245816692,None,2463.4641245816692,None,2463.947491227582,None,2463.947491227582,None,v,8.724641139961022,2463.947491227582,None,t,8.635793909172207,2463.947491227582,None,8.724641139961022,8.635793909172207,9.618409395192266,False,False,False,2472.761576883089,None,2472.761576883089,None,2472.761576883089,None,2472.761576883089,None,2472.761576883089,None,2472.761576883089,None,2472.761576883089,None,2472.761576883089,None,2473.7613080728715,None,2473.7613080728715,None,2474.744433976457,None,2474.744433976457,None,c,,,,,,,,,,,,,,,,,,,,,,,,,,,,,,,,,,,,,,,,,,,,,,,59_60Exp,001,2021_May_20_1503,ComputerHuman,2020.1.3,60.01830905909413,
Computer.xlsx,c,Sychronize.jpg,Number7.jpg,7,Computer,,,,,1,0,10,5,0,6,6,2,,,,,,,,,,,,,,,,,,,,,,,,,,,,,2475.7945911406186,None,2475.7945911406186,None,2476.2444007761496,None,2476.2444007761496,None,v,6.826911880609259,2476.2444007761496,None,t,6.993931240398524,2476.2444007761496,None,6.826911880609259,6.993931240398524,7.2821848664706454,False,False,True,2483.310418384821,None,2483.310418384821,None,2483.310418384821,None,2483.310418384821,None,2483.310418384821,None,2483.310418384821,None,2483.310418384821,None,2483.310418384821,None,2484.308497578624,None,2484.308497578624,None,2485.2918063244815,None,2485.2918063244815,None,c,,,,,,,,,,,,,,,,,,,,,,,,,,,,,,,,,,,,,,,,,,,,,,,59_60Exp,001,2021_May_20_1503,ComputerHuman,2020.1.3,60.01830905909413,
Computer.xlsx,c,Sychronize.jpg,Number6.jpg,6,Computer,,,,,1,0,10,5,0,7,7,0,,,,,,,,,,,,,,,,,,,,,,,,,,,,,2486.341584973061,None,2486.341584973061,None,2486.7917654255525,None,2486.7917654255525,None,v,5.826768814549723,2486.7917654255525,None,t,5.466055011143908,2486.7917654255525,None,5.826768814549723,5.466055011143908,6.345982984431467,False,False,False,2492.7065458496236,None,2492.7065458496236,None,2492.7065458496236,None,2492.7065458496236,None,2492.7065458496236,None,2492.7065458496236,None,2492.7065458496236,None,2492.7065458496236,None,2493.706134935672,None,2493.706134935672,None,2494.689503025076,None,2494.689503025076,None,c,,,,,,,,,,,,,,,,,,,,,,,,,,,,,,,,,,,,,,,,,,,,,,,59_60Exp,001,2021_May_20_1503,ComputerHuman,2020.1.3,60.01830905909413,
Computer.xlsx,c,Sychronize.jpg,Number10.jpg,10,Computer,,,,,1,0,10,5,0,8,8,9,,,,,,,,,,,,,,,,,,,,,,,,,,,,,2495.739781763312,None,2495.739781763312,None,2496.1896087207406,None,2496.1896087207406,None,v,10.343788703619794,2496.1896087207406,None,t,10.334679950639838,2496.1896087207406,None,10.343788703619794,10.334679950639838,9.674251943703224,False,False,False,2506.636404345745,None,2506.636404345745,None,2506.636404345745,None,2506.636404345745,None,2506.636404345745,None,2506.636404345745,None,2506.636404345745,None,2506.636404345745,None,2507.636160235268,None,2507.636160235268,None,2508.6193169333437,None,2508.6193169333437,None,c,,,,,,,,,,,,,,,,,,,,,,,,,,,,,,,,,,,,,,,,,,,,,,,59_60Exp,001,2021_May_20_1503,ComputerHuman,2020.1.3,60.01830905909413,
Computer.xlsx,c,Sychronize.jpg,Number9.jpg,9,Computer,,,,,1,0,10,5,0,9,9,7,,,,,,,,,,,,,,,,,,,,,,,,,,,,,2509.6694696066425,None,2509.6694696066425,None,2510.119476198588,None,2510.119476198588,None,v,6.205416558004799,2510.119476198588,None,t,9.055778441357688,2510.119476198588,None,6.205416558004799,9.055778441357688,8.892185150645503,False,False,True,2519.2506453209553,None,2519.2506453209553,None,2519.2506453209553,None,2519.2506453209553,None,2519.2506453209553,None,2519.2506453209553,None,2519.2506453209553,None,2519.2506453209553,None,2520.249556607485,None,2520.249556607485,None,2521.2326947005586,None,2521.2326947005586,None,c,,,,,,,,,,,,,,,,,,,,,,,,,,,,,,,,,,,,,,,,,,,,,,,59_60Exp,001,2021_May_20_1503,ComputerHuman,2020.1.3,60.01830905909413,
Computer.xlsx,c,,,,,,,,,1,0,10,5,,,,,,,,,,,,,,,,,,,,,,,,,,,,,,,,,,,,,,,,,,,,,,,,,,,,,,,,,,,,,,,,,,,,,,,,,,,,,,,c,2522.2334988857856,None,2522.2334988857856,None,q,0,5.51017805950687,2522.2334988857856,None,o,0,10.280636265448265,2522.2334988857856,None,h,h,2532.613827815827,None,2532.613827815827,None,2534.596134457717,None,None,None,None,None,None,None,None,,,,,,,,,,,,,,,,,,59_60Exp,001,2021_May_20_1503,ComputerHuman,2020.1.3,60.01830905909413,
Computer.xlsx,c,Sychronize.jpg,Number9.jpg,9,Computer,,,,,1,1,11,9,0,0,0,6,,,,,,,,,,,,,,,,,,,,,,,,,2539.614347152039,None,2539.614347152039,None,2542.677257083613,None,2542.677257083613,None,2543.1276899867535,None,2543.1276899867535,None,v,8.866003558687225,2543.1276899867535,None,t,8.916698343287862,2543.1276899867535,None,8.866003558687225,8.916698343287862,9.47951922778108,False,False,False,2552.1254766329166,None,2552.1254766329166,None,2552.1254766329166,None,2552.1254766329166,None,2552.1254766329166,None,2552.1254766329166,None,2552.1254766329166,None,2552.1254766329166,None,2553.141387760026,None,2553.141387760026,None,2554.1246092548336,None,2554.1246092548336,None,c,,,,,,,,,,,,,,,,,,,,,,,,,,,,,,,,,,,,,,,,,,,,,,,59_60Exp,001,2021_May_20_1503,ComputerHuman,2020.1.3,60.01830905909413,
Computer.xlsx,c,Sychronize.jpg,Number10.jpg,10,Computer,,,,,1,1,11,9,0,1,1,8,,,,,,,,,,,,,,,,,,,,,,,,,,,,,2555.191249168789,None,2555.191249168789,None,2555.624821448104,None,2555.624821448104,None,v,9.739796519006632,2555.624821448104,None,t,9.262788293348422,2555.624821448104,None,9.739796519006632,9.262788293348422,10.739963221034238,False,False,False,2565.4551014758563,None,2565.4551014758563,None,2565.4551014758563,None,2565.4551014758563,None,2565.4551014758563,None,2565.4551014758563,None,2565.4551014758563,None,2565.4551014758563,None,2566.4380188750965,None,2566.4380188750965,None,2567.421266031981,None,2567.421266031981,None,c,,,,,,,,,,,,,,,,,,,,,,,,,,,,,,,,,,,,,,,,,,,,,,,59_60Exp,001,2021_May_20_1503,ComputerHuman,2020.1.3,60.01830905909413,
Computer.xlsx,c,Sychronize.jpg,Number10.jpg,10,Computer,,,,,1,1,11,9,0,2,2,9,,,,,,,,,,,,,,,,,,,,,,,,,,,,,2568.47095005166,None,2568.47095005166,None,2568.9215366064655,None,2568.9215366064655,None,v,11.445866978716367,2568.9215366064655,None,t,10.121737027260679,2568.9215366064655,None,11.445866978716367,10.121737027260679,10.16468784028732,False,False,True,2580.451181594135,None,2580.451181594135,None,2580.451181594135,None,2580.451181594135,None,2580.451181594135,None,2580.451181594135,None,2580.451181594135,None,2580.451181594135,None,2581.451022168503,None,2581.451022168503,None,2582.417541502791,None,2582.417541502791,None,c,,,,,,,,,,,,,,,,,,,,,,,,,,,,,,,,,,,,,,,,,,,,,,,59_60Exp,001,2021_May_20_1503,ComputerHuman,2020.1.3,60.01830905909413,
Computer.xlsx,c,Sychronize.jpg,Number7.jpg,7,Computer,,,,,1,1,11,9,0,3,3,3,,,,,,,,,,,,,,,,,,,,,,,,,,,,,2583.4696884399727,None,2583.4696884399727,None,2583.9169575302312,None,2583.9169575302312,None,v,6.717590164498688,2583.9169575302312,None,t,6.7570783216106065,2583.9169575302312,None,6.717590164498688,6.7570783216106065,7.371382767270095,False,False,False,2590.765302053833,None,2590.765302053833,None,2590.765302053833,None,2590.765302053833,None,2590.765302053833,None,2590.765302053833,None,2590.765302053833,None,2590.765302053833,None,2591.764962672909,None,2591.764962672909,None,2592.7482447943676,None,2592.7482447943676,None,c,,,,,,,,,,,,,,,,,,,,,,,,,,,,,,,,,,,,,,,,,,,,,,,59_60Exp,001,2021_May_20_1503,ComputerHuman,2020.1.3,60.01830905909413,
Computer.xlsx,c,Sychronize.jpg,Number6.jpg,6,Computer,,,,,1,1,11,9,0,4,4,0,,,,,,,,,,,,,,,,,,,,,,,,,,,,,2593.798157206502,None,2593.798157206502,None,2594.2483957194363,None,2594.2483957194363,None,v,5.793413572220743,2594.2483957194363,None,t,5.877018041399424,2594.2483957194363,None,5.793413572220743,5.877018041399424,5.602494892282452,False,True,True,2600.2130449301203,None,2600.2130449301203,None,2600.2130449301203,None,2600.2130449301203,None,2600.2130449301203,None,2600.2130449301203,None,2600.2130449301203,None,2600.2130449301203,None,2601.1961698713767,None,2601.1961698713767,None,2602.1792495832324,None,2602.1792495832324,None,c,,,,,,,,,,,,,,,,,,,,,,,,,,,,,,,,,,,,,,,,,,,,,,,59_60Exp,001,2021_May_20_1503,ComputerHuman,2020.1.3,60.01830905909413,
Computer.xlsx,c,Sychronize.jpg,Number6.jpg,6,Computer,,,,,1,1,11,9,0,5,5,1,,,,,,,,,,,,,,,,,,,,,,,,,,,,,2603.2289724167986,None,2603.2289724167986,None,2603.679157039378,None,2603.679157039378,None,v,5.20602603225052,2603.679157039378,None,t,5.617043915186514,2603.679157039378,None,5.20602603225052,5.617043915186514,5.810009103620511,False,False,True,2609.394030552621,None,2609.394030552621,None,2609.394030552621,None,2609.394030552621,None,2609.394030552621,None,2609.394030552621,None,2609.394030552621,None,2609.394030552621,None,2610.3936940586846,None,2610.3936940586846,None,2611.376952121949,None,2611.376952121949,None,c,,,,,,,,,,,,,,,,,,,,,,,,,,,,,,,,,,,,,,,,,,,,,,,59_60Exp,001,2021_May_20_1503,ComputerHuman,2020.1.3,60.01830905909413,
Computer.xlsx,c,Sychronize.jpg,Number8.jpg,8,Computer,,,,,1,1,11,9,0,6,6,4,,,,,,,,,,,,,,,,,,,,,,,,,,,,,2612.4265498529076,None,2612.4265498529076,None,2612.876914751554,None,2612.876914751554,None,v,8.103201953141252,2612.876914751554,None,t,7.622891660179448,2612.876914751554,None,8.103201953141252,7.622891660179448,7.664592451977694,False,False,True,2621.042445390305,None,2621.042445390305,None,2621.042445390305,None,2621.042445390305,None,2621.042445390305,None,2621.042445390305,None,2621.042445390305,None,2621.042445390305,None,2622.057518329939,None,2622.057518329939,None,2623.0574002843987,None,2623.0574002843987,None,c,,,,,,,,,,,,,,,,,,,,,,,,,,,,,,,,,,,,,,,,,,,,,,,59_60Exp,001,2021_May_20_1503,ComputerHuman,2020.1.3,60.01830905909413,
Computer.xlsx,c,Sychronize.jpg,Number7.jpg,7,Computer,,,,,1,1,11,9,0,7,7,2,,,,,,,,,,,,,,,,,,,,,,,,,,,,,2624.1073402832644,None,2624.1073402832644,None,2624.557386330647,None,2624.557386330647,None,v,6.577831304584834,2624.557386330647,None,t,6.628960099005781,2624.557386330647,None,6.577831304584834,6.628960099005781,7.210465789177256,False,False,False,2631.27199969462,None,2631.27199969462,None,2631.27199969462,None,2631.27199969462,None,2631.27199969462,None,2631.27199969462,None,2631.27199969462,None,2631.27199969462,None,2632.2716596721457,None,2632.2716596721457,None,2633.2379990511454,None,2633.2379990511454,None,c,,,,,,,,,,,,,,,,,,,,,,,,,,,,,,,,,,,,,,,,,,,,,,,59_60Exp,001,2021_May_20_1503,ComputerHuman,2020.1.3,60.01830905909413,
Computer.xlsx,c,Sychronize.jpg,Number9.jpg,9,Computer,,,,,1,1,11,9,0,8,8,7,,,,,,,,,,,,,,,,,,,,,,,,,,,,,2634.3044099310955,None,2634.3044099310955,None,2634.7384075592763,None,2634.7384075592763,None,v,8.295883065628004,2634.7384075592763,None,t,8.762620687928575,2634.7384075592763,None,8.295883065628004,8.762620687928575,9.093338623858875,False,False,False,2643.5685432378687,None,2643.5685432378687,None,2643.5685432378687,None,2643.5685432378687,None,2643.5685432378687,None,2643.5685432378687,None,2643.5685432378687,None,2643.5685432378687,None,2644.5852283972654,None,2644.5852283972654,None,2645.5683908693045,None,2645.5683908693045,None,c,,,,,,,,,,,,,,,,,,,,,,,,,,,,,,,,,,,,,,,,,,,,,,,59_60Exp,001,2021_May_20_1503,ComputerHuman,2020.1.3,60.01830905909413,
Computer.xlsx,c,Sychronize.jpg,Number8.jpg,8,Computer,,,,,1,1,11,9,0,9,9,5,,,,,,,,,,,,,,,,,,,,,,,,,,,,,2646.6184190815493,None,2646.6184190815493,None,2647.068507471353,None,2647.068507471353,None,v,7.292869055097981,2647.068507471353,None,t,7.931845702936698,2647.068507471353,None,7.292869055097981,7.931845702936698,8.055535080327225,False,False,True,2655.0993298670273,None,2655.0993298670273,None,2655.0993298670273,None,2655.0993298670273,None,2655.0993298670273,None,2655.0993298670273,None,2655.0993298670273,None,2655.0993298670273,None,2656.0990713216397,None,2656.0990713216397,None,2657.082224811953,None,2657.082224811953,None,c,,,,,,,,,,,,,,,,,,,,,,,,,,,,,,,,,,,,,,,,,,,,,,,59_60Exp,001,2021_May_20_1503,ComputerHuman,2020.1.3,60.01830905909413,
Computer.xlsx,c,,,,,,,,,1,1,11,9,,,,,,,,,,,,,,,,,,,,,,,,,,,,,,,,,,,,,,,,,,,,,,,,,,,,,,,,,,,,,,,,,,,,,,,,,,,,,,,c,2658.0823495937857,None,2658.0823495937857,None,a,1,5.794246948058571,2658.0823495937857,None,l,0,2.9652387968199037,2658.0823495937857,None,c,c,2663.963699072412,None,2663.963699072412,None,2665.946647586914,None,None,None,None,None,None,None,None,,,,,,,,,,,,,,,,,,59_60Exp,001,2021_May_20_1503,ComputerHuman,2020.1.3,60.01830905909413,
