Condition,CorrectTuringReply,Sychronize,NumberImage,Number,Partner,trials.thisRepN,trials.thisTrialN,trials.thisN,trials.thisIndex,Block.thisRepN,Block.thisTrialN,Block.thisN,Block.thisIndex,trials_loop.thisRepN,trials_loop.thisTrialN,trials_loop.thisN,trials_loop.thisIndex,key_resp_Istr.keys,key_resp_Istr.rt,key_resp_Istr.started,key_resp_Istr.stopped,key_respPrLeft.keys,key_respPrLeft.rt,key_respPrRight.keys,key_respPrRight.rt,RTPrLeft,RTPrRight,CompPr,SychronizedRTsPr,SychronizedRTsLeftCPr,SychronizedRTsRightCPr,CreditLeftPr.started,CreditLeftPr.stopped,CreditRightPr.started,CreditRightPr.stopped,text_StartExp.started,text_StartExp.stopped,key_startExp.keys,key_startExp.rt,key_startExp.started,key_startExp.stopped,SychroLeft.started,SychroLeft.stopped,SychroRight.started,SychroRight.stopped,NumberLeft.started,NumberLeft.stopped,NumberRight.started,NumberRight.stopped,CrossLeft.started,CrossLeft.stopped,CrossRight.started,CrossRight.stopped,key_respLeft.keys,key_respLeft.rt,key_respLeft.started,key_respLeft.stopped,key_respRight.keys,key_respRight.rt,key_respRight.started,key_respRight.stopped,RTLeft,RTRight,Comp,SychronizedRTs,SychronizedRTsLeftC,SychronizedRTsRightC,FeedbackLeftLeft.started,FeedbackLeftLeft.stopped,FeedbackLeftRight.started,FeedbackLeftRight.stopped,FeedbackRightLeft.started,FeedbackRightLeft.stopped,FeedbackRightRight.started,FeedbackRightRight.stopped,textLeftLeft.started,textLeftLeft.stopped,textLeftRight.started,textLeftRight.stopped,textRightLeft.started,textRightLeft.stopped,textRightRight.started,textRightRight.stopped,CreditLeft.started,CreditLeft.stopped,CreditRight.started,CreditRight.stopped,BlankLeft.started,BlankLeft.stopped,BlankRight.started,BlankRight.stopped,CorrectTuringReply,TuringtextLeft.started,TuringtextLeft.stopped,TuringtextRight.started,TuringtextRight.stopped,keyTuringLeft.keys,keyTuringLeft.corr,keyTuringLeft.rt,keyTuringLeft.started,keyTuringLeft.stopped,keyTuringRight.keys,keyTuringRight.corr,keyTuringRight.rt,keyTuringRight.started,keyTuringRight.stopped,RespTuringLeft,RespTuringRight,ScoreLeft.started,ScoreLeft.stopped,ScoreRight.started,ScoreRight.stopped,BlockText.started,BlockText.stopped,text_Pause.started,text_Pause.stopped,text_LongPause.started,text_LongPause.stopped,key_respPause.keys,key_respPause.started,key_respPause.stopped,key_respPause.rt,QuestImageLeft.started,QuestImageLeft.stopped,QuestImageRight.started,QuestImageRight.stopped,respQuestLeft.keys,respQuestLeft.rt,respQuestLeft.started,respQuestLeft.stopped,respQuestRight.keys,respQuestRight.rt,respQuestRight.started,respQuestRight.stopped,RespInclusionLeft,RespInclusionRight,EndText.started,EndText.stopped,participant,session,date,expName,psychopyVersion,frameRate,
,,,,,,,,,,,,,,,,,,"['v', 't']","[252.35456562082436, 252.5185860040774]",18.56334447023346,None,,,,,,,,,,,,,,,,,,,,,,,,,,,,,,,,,,,,,,,,,,,,,,,,,,,,,,,,,,,,,,,,,,,,,,,,,,,,,,,,,,,,,,,,,,,,,,,,,,,,,,,,,,,,,,,,,,,,,,5_6Exp,001,2021_Apr_26_1051,ComputerHuman,2020.1.3,60.030407428809234,
,,,,,,,,,,,,,,,,,,,,,,v,7.202727390837936,t,8.133707272240827,7.202727390837936,8.133707272240827,9,False,False,False,337.1684608142077,None,337.1684608142077,None,338.1682943221067,None,"['space', 'space']","[6.100737986665081, 7.4887983536855245]",339.15138430643583,None,,,,,,,,,,,,,,,,,,,,,,,,,,,,,,,,,,,,,,,,,,,,,,,,,,,,,,,,,,,,,,,,,,,,,,,,,,,,,,,,,,,,,,,,,,,,,,,,,,5_6Exp,001,2021_Apr_26_1051,ComputerHuman,2020.1.3,60.030407428809234,
Human.xlsx,h,Sychronize.jpg,Number8.jpg,8,Human,,,,,0,0,0,2,0,0,0,4,,,,,,,,,,,,,,,,,,,,,,,,,346.7192811647392,None,346.7192811647392,None,349.7830710574817,None,349.7830710574817,None,350.2162376313854,None,350.2162376313854,None,v,7.335540610118187,350.2162376313854,None,t,7.754740132776533,350.2162376313854,None,7.335540610118187,7.754740132776533,7.433226961866041,False,False,False,358.0644234609508,None,358.0644234609508,None,358.0644234609508,None,358.0644234609508,None,358.0644234609508,None,358.0644234609508,None,358.0644234609508,None,358.0644234609508,None,359.0691667214696,None,359.0691667214696,None,360.06400386236055,None,360.06400386236055,None,h,,,,,,,,,,,,,,,,,,,,,,,,,,,,,,,,,,,,,,,,,,,,,,,5_6Exp,001,2021_Apr_26_1051,ComputerHuman,2020.1.3,60.030407428809234,
Human.xlsx,h,Sychronize.jpg,Number10.jpg,10,Human,,,,,0,0,0,2,0,1,1,9,,,,,,,,,,,,,,,,,,,,,,,,,,,,,361.11381643844925,None,361.11381643844925,None,361.5474183298502,None,361.5474183298502,None,v,8.06412897203154,361.5474183298502,None,t,9.4716503088448,361.5474183298502,None,8.06412897203154,9.4716503088448,10.440795846884921,False,False,False,371.1119029020638,None,371.1119029020638,None,371.1119029020638,None,371.1119029020638,None,371.1119029020638,None,371.1119029020638,None,371.1119029020638,None,371.1119029020638,None,372.0971919294643,None,372.0971919294643,None,373.0948741926022,None,373.0948741926022,None,h,,,,,,,,,,,,,,,,,,,,,,,,,,,,,,,,,,,,,,,,,,,,,,,5_6Exp,001,2021_Apr_26_1051,ComputerHuman,2020.1.3,60.030407428809234,
Human.xlsx,h,Sychronize.jpg,Number9.jpg,9,Human,,,,,0,0,0,2,0,2,2,6,,,,,,,,,,,,,,,,,,,,,,,,,,,,,374.1446771448691,None,374.1446771448691,None,374.5785029505032,None,374.5785029505032,None,v,9.668792996425509,374.5785029505032,None,t,8.343673701144326,374.5785029505032,None,9.668792996425509,8.343673701144326,9.421878705516994,False,False,False,384.3425666409503,None,384.3425666409503,None,384.3425666409503,None,384.3425666409503,None,384.3425666409503,None,384.3425666409503,None,384.3425666409503,None,384.3425666409503,None,385.3275515556106,None,385.3275515556106,None,386.32553344037206,None,386.32553344037206,None,h,,,,,,,,,,,,,,,,,,,,,,,,,,,,,,,,,,,,,,,,,,,,,,,5_6Exp,001,2021_Apr_26_1051,ComputerHuman,2020.1.3,60.030407428809234,
Human.xlsx,h,Sychronize.jpg,Number8.jpg,8,Human,,,,,0,0,0,2,0,3,3,5,,,,,,,,,,,,,,,,,,,,,,,,,,,,,387.3761361321549,None,387.3761361321549,None,387.8258069172816,None,387.8258069172816,None,v,7.253222295827072,387.8258069172816,None,t,7.952738057239003,387.8258069172816,None,7.253222295827072,7.952738057239003,8.084269094527158,False,False,False,395.8737845515225,None,395.8737845515225,None,395.8737845515225,None,395.8737845515225,None,395.8737845515225,None,395.8737845515225,None,395.8737845515225,None,395.8737845515225,None,396.8425591022906,None,396.8425591022906,None,397.8567256874221,None,397.8567256874221,None,h,,,,,,,,,,,,,,,,,,,,,,,,,,,,,,,,,,,,,,,,,,,,,,,5_6Exp,001,2021_Apr_26_1051,ComputerHuman,2020.1.3,60.030407428809234,
Human.xlsx,h,Sychronize.jpg,Number10.jpg,10,Human,,,,,0,0,0,2,0,4,4,8,,,,,,,,,,,,,,,,,,,,,,,,,,,,,398.90687285168315,None,398.90687285168315,None,399.3568686011622,None,399.3568686011622,None,v,9.333660115517887,399.3568686011622,None,t,8.83696958712244,399.3568686011622,None,9.333660115517887,8.83696958712244,10.22037464158944,False,False,False,408.78793878608394,None,408.78793878608394,None,408.78793878608394,None,408.78793878608394,None,408.78793878608394,None,408.78793878608394,None,408.78793878608394,None,408.78793878608394,None,409.7569555363443,None,409.7569555363443,None,410.7541893294283,None,410.7541893294283,None,h,,,,,,,,,,,,,,,,,,,,,,,,,,,,,,,,,,,,,,,,,,,,,,,5_6Exp,001,2021_Apr_26_1051,ComputerHuman,2020.1.3,60.030407428809234,
Human.xlsx,h,Sychronize.jpg,Number6.jpg,6,Human,,,,,0,0,0,2,0,5,5,0,,,,,,,,,,,,,,,,,,,,,,,,,,,,,411.8043339273372,None,411.8043339273372,None,412.25447884604,None,412.25447884604,None,v,5.603887702842258,412.25447884604,None,t,4.898784030231582,412.25447884604,None,5.603887702842258,4.898784030231582,5.79321510945332,False,False,False,417.9527489642369,None,417.9527489642369,None,417.9527489642369,None,417.9527489642369,None,417.9527489642369,None,417.9527489642369,None,417.9527489642369,None,417.9527489642369,None,418.9376122979602,None,418.9376122979602,None,419.9358110394851,None,419.9358110394851,None,h,,,,,,,,,,,,,,,,,,,,,,,,,,,,,,,,,,,,,,,,,,,,,,,5_6Exp,001,2021_Apr_26_1051,ComputerHuman,2020.1.3,60.030407428809234,
Human.xlsx,h,Sychronize.jpg,Number6.jpg,6,Human,,,,,0,0,0,2,0,6,6,1,,,,,,,,,,,,,,,,,,,,,,,,,,,,,420.98619687450446,None,420.98619687450446,None,421.4357210567605,None,421.4357210567605,None,v,5.558414507589077,421.4357210567605,None,t,5.757727045984211,421.4357210567605,None,5.558414507589077,5.757727045984211,5.8902025014982105,True,False,False,427.2842870272507,None,427.2842870272507,None,427.2842870272507,None,427.2842870272507,None,427.2842870272507,None,427.2842870272507,None,427.2842870272507,None,427.2842870272507,None,428.2535482225612,None,428.2535482225612,None,429.25062386418904,None,429.25062386418904,None,h,,,,,,,,,,,,,,,,,,,,,,,,,,,,,,,,,,,,,,,,,,,,,,,5_6Exp,001,2021_Apr_26_1051,ComputerHuman,2020.1.3,60.030407428809234,
Human.xlsx,h,Sychronize.jpg,Number9.jpg,9,Human,,,,,0,0,0,2,0,7,7,7,,,,,,,,,,,,,,,,,,,,,,,,,,,,,430.33413553227,None,430.33413553227,None,430.76726842280095,None,430.76726842280095,None,v,8.362514896872199,430.76726842280095,None,t,9.029733115406998,430.76726842280095,None,8.362514896872199,9.029733115406998,8.391969133438815,False,False,False,439.8818534837437,None,439.8818534837437,None,439.8818534837437,None,439.8818534837437,None,439.8818534837437,None,439.8818534837437,None,439.8818534837437,None,439.8818534837437,None,440.86746009723265,None,440.86746009723265,None,441.8482111722942,None,441.8482111722942,None,h,,,,,,,,,,,,,,,,,,,,,,,,,,,,,,,,,,,,,,,,,,,,,,,5_6Exp,001,2021_Apr_26_1051,ComputerHuman,2020.1.3,60.030407428809234,
Human.xlsx,h,Sychronize.jpg,Number7.jpg,7,Human,,,,,0,0,0,2,0,8,8,3,,,,,,,,,,,,,,,,,,,,,,,,,,,,,442.8989813185599,None,442.8989813185599,None,443.348404771491,None,443.348404771491,None,v,6.529102915536896,443.348404771491,None,t,5.98469106732955,443.348404771491,None,6.529102915536896,5.98469106732955,7.111163119399693,False,False,False,449.963307899714,None,449.963307899714,None,449.963307899714,None,449.963307899714,None,449.963307899714,None,449.963307899714,None,449.963307899714,None,449.963307899714,None,450.9492478182001,None,450.9492478182001,None,451.9462599426106,None,451.9462599426106,None,h,,,,,,,,,,,,,,,,,,,,,,,,,,,,,,,,,,,,,,,,,,,,,,,5_6Exp,001,2021_Apr_26_1051,ComputerHuman,2020.1.3,60.030407428809234,
Human.xlsx,h,Sychronize.jpg,Number7.jpg,7,Human,,,,,0,0,0,2,0,9,9,2,,,,,,,,,,,,,,,,,,,,,,,,,,,,,452.9965675038857,None,452.9965675038857,None,453.4465651781293,None,453.4465651781293,None,v,6.158700014275382,453.4465651781293,None,t,6.249732377580585,453.4465651781293,None,6.158700014275382,6.249732377580585,7.482217479670907,True,False,False,459.79474956412196,None,459.79474956412196,None,459.79474956412196,None,459.79474956412196,None,459.79474956412196,None,459.79474956412196,None,459.79474956412196,None,459.79474956412196,None,460.7633573019939,None,460.7633573019939,None,461.76102031748997,None,461.76102031748997,None,h,,,,,,,,,,,,,,,,,,,,,,,,,,,,,,,,,,,,,,,,,,,,,,,5_6Exp,001,2021_Apr_26_1051,ComputerHuman,2020.1.3,60.030407428809234,
Human.xlsx,h,,,,,,,,,0,0,0,2,,,,,,,,,,,,,,,,,,,,,,,,,,,,,,,,,,,,,,,,,,,,,,,,,,,,,,,,,,,,,,,,,,,,,,,,,,,,,,,h,462.76211807465916,None,462.76211807465916,None,q,0,8.838887614623673,462.76211807465916,None,o,1,27.133745125936002,462.76211807465916,None,h,h,490.00590100617046,None,490.00590100617046,None,491.9718936311165,None,None,None,None,None,None,None,None,,,,,,,,,,,,,,,,,,5_6Exp,001,2021_Apr_26_1051,ComputerHuman,2020.1.3,60.030407428809234,
Human.xlsx,h,Sychronize.jpg,Number10.jpg,10,Human,,,,,0,1,1,8,0,0,0,8,,,,,,,,,,,,,,,,,,,,,,,,,496.9734225354605,None,496.9734225354605,None,500.0705692329657,None,500.0705692329657,None,500.50374510989604,None,500.50374510989604,None,v,8.49625649407426,500.50374510989604,None,None,,500.50374510989604,None,8.49625649407426,13,10.544016751267865,False,False,False,513.58434236422,None,513.58434236422,None,513.58434236422,None,513.58434236422,None,513.58434236422,None,513.58434236422,None,513.58434236422,None,513.58434236422,None,514.5863665745455,None,514.5863665745455,None,515.5839487499461,None,515.5839487499461,None,h,,,,,,,,,,,,,,,,,,,,,,,,,,,,,,,,,,,,,,,,,,,,,,,5_6Exp,001,2021_Apr_26_1051,ComputerHuman,2020.1.3,60.030407428809234,
Human.xlsx,h,Sychronize.jpg,Number6.jpg,6,Human,,,,,0,1,1,8,0,1,1,1,,,,,,,,,,,,,,,,,,,,,,,,,,,,,516.6339496321298,None,516.6339496321298,None,517.0840727368386,None,517.0840727368386,None,v,6.231638952735011,517.0840727368386,None,t,5.442767618408652,517.0840727368386,None,6.231638952735011,5.442767618408652,5.872112649164995,False,False,False,523.3839169913372,None,523.3839169913372,None,523.3839169913372,None,523.3839169913372,None,523.3839169913372,None,523.3839169913372,None,523.3839169913372,None,523.3839169913372,None,524.3684752499394,None,524.3684752499394,None,525.3653789459677,None,525.3653789459677,None,h,,,,,,,,,,,,,,,,,,,,,,,,,,,,,,,,,,,,,,,,,,,,,,,5_6Exp,001,2021_Apr_26_1051,ComputerHuman,2020.1.3,60.030407428809234,
Human.xlsx,h,Sychronize.jpg,Number7.jpg,7,Human,,,,,0,1,1,8,0,2,2,3,,,,,,,,,,,,,,,,,,,,,,,,,,,,,526.4320383413024,None,526.4320383413024,None,526.8654564177259,None,526.8654564177259,None,v,5.853989314350656,526.8654564177259,None,t,7.4369962130267595,526.8654564177259,None,5.853989314350656,7.4369962130267595,7.309110529705004,False,False,False,534.3967866062085,None,534.3967866062085,None,534.3967866062085,None,534.3967866062085,None,534.3967866062085,None,534.3967866062085,None,534.3967866062085,None,534.3967866062085,None,535.3821516617936,None,535.3821516617936,None,536.3799327294928,None,536.3799327294928,None,h,,,,,,,,,,,,,,,,,,,,,,,,,,,,,,,,,,,,,,,,,,,,,,,5_6Exp,001,2021_Apr_26_1051,ComputerHuman,2020.1.3,60.030407428809234,
Human.xlsx,h,Sychronize.jpg,Number8.jpg,8,Human,,,,,0,1,1,8,0,3,3,4,,,,,,,,,,,,,,,,,,,,,,,,,,,,,537.4302595384097,None,537.4302595384097,None,537.8800365063607,None,537.8800365063607,None,v,7.271147624600417,537.8800365063607,None,t,7.166664367642625,537.8800365063607,None,7.271147624600417,7.166664367642625,7.58269723149845,True,False,False,545.2448367398993,None,545.2448367398993,None,545.2448367398993,None,545.2448367398993,None,545.2448367398993,None,545.2448367398993,None,545.2448367398993,None,545.2448367398993,None,546.2135894766734,None,546.2135894766734,None,547.2111678025449,None,547.2111678025449,None,h,,,,,,,,,,,,,,,,,,,,,,,,,,,,,,,,,,,,,,,,,,,,,,,5_6Exp,001,2021_Apr_26_1051,ComputerHuman,2020.1.3,60.030407428809234,
Human.xlsx,h,Sychronize.jpg,Number9.jpg,9,Human,,,,,0,1,1,8,0,4,4,7,,,,,,,,,,,,,,,,,,,,,,,,,,,,,548.2949928863927,None,548.2949928863927,None,548.7280901687864,None,548.7280901687864,None,v,8.850723310338253,548.7280901687864,None,t,7.849714733909423,548.7280901687864,None,8.850723310338253,7.849714733909423,9.002753511594335,False,False,False,557.6609152574456,None,557.6609152574456,None,557.6609152574456,None,557.6609152574456,None,557.6609152574456,None,557.6609152574456,None,557.6609152574456,None,557.6609152574456,None,558.6443250734219,None,558.6443250734219,None,559.6420702121895,None,559.6420702121895,None,h,,,,,,,,,,,,,,,,,,,,,,,,,,,,,,,,,,,,,,,,,,,,,,,5_6Exp,001,2021_Apr_26_1051,ComputerHuman,2020.1.3,60.030407428809234,
Human.xlsx,h,Sychronize.jpg,Number7.jpg,7,Human,,,,,0,1,1,8,0,5,5,2,,,,,,,,,,,,,,,,,,,,,,,,,,,,,560.7087077935312,None,560.7087077935312,None,561.1420828835535,None,561.1420828835535,None,v,6.384537086195451,561.1420828835535,None,t,6.367722987939487,561.1420828835535,None,6.384537086195451,6.367722987939487,7.309795210749361,True,False,False,567.6083614963763,None,567.6083614963763,None,567.6083614963763,None,567.6083614963763,None,567.6083614963763,None,567.6083614963763,None,567.6083614963763,None,567.6083614963763,None,568.6093886788585,None,568.6093886788585,None,569.6068072493035,None,569.6068072493035,None,h,,,,,,,,,,,,,,,,,,,,,,,,,,,,,,,,,,,,,,,,,,,,,,,5_6Exp,001,2021_Apr_26_1051,ComputerHuman,2020.1.3,60.030407428809234,
Human.xlsx,h,Sychronize.jpg,Number8.jpg,8,Human,,,,,0,1,1,8,0,6,6,5,,,,,,,,,,,,,,,,,,,,,,,,,,,,,570.6565826132846,None,570.6565826132846,None,571.106793936352,None,571.106793936352,None,v,6.707545877556186,571.106793936352,None,t,7.210719332491863,571.106793936352,None,6.707545877556186,7.210719332491863,8.182645812364722,False,False,False,578.3900925971966,None,578.3900925971966,None,578.3900925971966,None,578.3900925971966,None,578.3900925971966,None,578.3900925971966,None,578.3900925971966,None,578.3900925971966,None,579.3738251319674,None,579.3738251319674,None,580.3713800398755,None,580.3713800398755,None,h,,,,,,,,,,,,,,,,,,,,,,,,,,,,,,,,,,,,,,,,,,,,,,,5_6Exp,001,2021_Apr_26_1051,ComputerHuman,2020.1.3,60.030407428809234,
Human.xlsx,h,Sychronize.jpg,Number10.jpg,10,Human,,,,,0,1,1,8,0,7,7,9,,,,,,,,,,,,,,,,,,,,,,,,,,,,,581.4383756273528,None,581.4383756273528,None,581.8880611690056,None,581.8880611690056,None,v,9.713937698591508,581.8880611690056,None,t,10.553615749703567,581.8880611690056,None,9.713937698591508,10.553615749703567,10.432595889381115,False,False,False,592.5357176884227,None,592.5357176884227,None,592.5357176884227,None,592.5357176884227,None,592.5357176884227,None,592.5357176884227,None,592.5357176884227,None,592.5357176884227,None,593.5047661972922,None,593.5047661972922,None,594.502009614197,None,594.502009614197,None,h,,,,,,,,,,,,,,,,,,,,,,,,,,,,,,,,,,,,,,,,,,,,,,,5_6Exp,001,2021_Apr_26_1051,ComputerHuman,2020.1.3,60.030407428809234,
Human.xlsx,h,Sychronize.jpg,Number6.jpg,6,Human,,,,,0,1,1,8,0,8,8,0,,,,,,,,,,,,,,,,,,,,,,,,,,,,,595.5520316687871,None,595.5520316687871,None,596.0021509239677,None,596.0021509239677,None,v,6.01159413780988,596.0021509239677,None,t,5.602892599763436,596.0021509239677,None,6.01159413780988,5.602892599763436,5.675517760174092,False,False,False,602.0857941176,None,602.0857941176,None,602.0857941176,None,602.0857941176,None,602.0857941176,None,602.0857941176,None,602.0857941176,None,602.0857941176,None,603.0864440463038,None,603.0864440463038,None,604.0835126304637,None,604.0835126304637,None,h,,,,,,,,,,,,,,,,,,,,,,,,,,,,,,,,,,,,,,,,,,,,,,,5_6Exp,001,2021_Apr_26_1051,ComputerHuman,2020.1.3,60.030407428809234,
Human.xlsx,h,Sychronize.jpg,Number9.jpg,9,Human,,,,,0,1,1,8,0,9,9,6,,,,,,,,,,,,,,,,,,,,,,,,,,,,,605.1336520956675,None,605.1336520956675,None,605.5837508200302,None,605.5837508200302,None,v,8.941718140741614,605.5837508200302,None,t,8.948631252074847,605.5837508200302,None,8.941718140741614,8.948631252074847,9.13780416651128,True,False,False,614.648114613291,None,614.648114613291,None,614.648114613291,None,614.648114613291,None,614.648114613291,None,614.648114613291,None,614.648114613291,None,614.648114613291,None,615.6171259100529,None,615.6171259100529,None,616.6144017271554,None,616.6144017271554,None,h,,,,,,,,,,,,,,,,,,,,,,,,,,,,,,,,,,,,,,,,,,,,,,,5_6Exp,001,2021_Apr_26_1051,ComputerHuman,2020.1.3,60.030407428809234,
Human.xlsx,h,,,,,,,,,0,1,1,8,,,,,,,,,,,,,,,,,,,,,,,,,,,,,,,,,,,,,,,,,,,,,,,,,,,,,,,,,,,,,,,,,,,,,,,,,,,,,,,h,617.6156916399477,None,617.6156916399477,None,a,0,2.3135841835719475,617.6156916399477,None,l,0,6.836709743958636,617.6156916399477,None,c,c,624.5467687219407,None,624.5467687219407,None,626.5294670167605,None,None,None,None,None,None,None,None,,,,,,,,,,,,,,,,,,5_6Exp,001,2021_Apr_26_1051,ComputerHuman,2020.1.3,60.030407428809234,
Computer.xlsx,c,Sychronize.jpg,Number7.jpg,7,Computer,,,,,0,2,2,3,0,0,0,3,,,,,,,,,,,,,,,,,,,,,,,,,631.5484066962554,None,631.5484066962554,None,634.6279693898341,None,634.6279693898341,None,635.0611218488002,None,635.0611218488002,None,v,6.191620859953218,635.0611218488002,None,t,6.2187112741457895,635.0611218488002,None,6.191620859953218,6.2187112741457895,7.327843300602268,False,False,False,641.3761589085307,None,641.3761589085307,None,641.3761589085307,None,641.3761589085307,None,641.3761589085307,None,641.3761589085307,None,641.3761589085307,None,641.3761589085307,None,642.3759920956354,None,642.3759920956354,None,643.3592280412477,None,643.3592280412477,None,c,,,,,,,,,,,,,,,,,,,,,,,,,,,,,,,,,,,,,,,,,,,,,,,5_6Exp,001,2021_Apr_26_1051,ComputerHuman,2020.1.3,60.030407428809234,
Computer.xlsx,c,Sychronize.jpg,Number6.jpg,6,Computer,,,,,0,2,2,3,0,1,1,1,,,,,,,,,,,,,,,,,,,,,,,,,,,,,644.4257741962911,None,644.4257741962911,None,644.8592711880447,None,644.8592711880447,None,v,6.133239554545071,644.8592711880447,None,t,5.760774268469504,644.8592711880447,None,6.133239554545071,5.760774268469504,5.6074364412302256,False,False,True,651.0909056496648,None,651.0909056496648,None,651.0909056496648,None,651.0909056496648,None,651.0909056496648,None,651.0909056496648,None,651.0909056496648,None,651.0909056496648,None,652.0906015369246,None,652.0906015369246,None,653.0739985211403,None,653.0739985211403,None,c,,,,,,,,,,,,,,,,,,,,,,,,,,,,,,,,,,,,,,,,,,,,,,,5_6Exp,001,2021_Apr_26_1051,ComputerHuman,2020.1.3,60.030407428809234,
Computer.xlsx,c,Sychronize.jpg,Number6.jpg,6,Computer,,,,,0,2,2,3,0,2,2,0,,,,,,,,,,,,,,,,,,,,,,,,,,,,,654.1073986330966,None,654.1073986330966,None,654.5739146335009,None,654.5739146335009,None,v,5.298420570596136,654.5739146335009,None,t,5.51379109572008,654.5739146335009,None,5.298420570596136,5.51379109572008,5.893064456108697,False,False,False,660.1725371439388,None,660.1725371439388,None,660.1725371439388,None,660.1725371439388,None,660.1725371439388,None,660.1725371439388,None,660.1725371439388,None,660.1725371439388,None,661.1556582452895,None,661.1556582452895,None,662.1388961156663,None,662.1388961156663,None,c,,,,,,,,,,,,,,,,,,,,,,,,,,,,,,,,,,,,,,,,,,,,,,,5_6Exp,001,2021_Apr_26_1051,ComputerHuman,2020.1.3,60.030407428809234,
Computer.xlsx,c,Sychronize.jpg,Number7.jpg,7,Computer,,,,,0,2,2,3,0,3,3,2,,,,,,,,,,,,,,,,,,,,,,,,,,,,,663.1892174710847,None,663.1892174710847,None,663.6389822488627,None,663.6389822488627,None,v,7.1570536993158385,663.6389822488627,None,t,6.428659096996853,663.6389822488627,None,7.1570536993158385,6.428659096996853,6.671237119421218,False,False,True,670.871980405901,None,670.871980405901,None,670.871980405901,None,670.871980405901,None,670.871980405901,None,670.871980405901,None,670.871980405901,None,670.871980405901,None,671.8870676698971,None,671.8870676698971,None,672.8701361610265,None,672.8701361610265,None,c,,,,,,,,,,,,,,,,,,,,,,,,,,,,,,,,,,,,,,,,,,,,,,,5_6Exp,001,2021_Apr_26_1051,ComputerHuman,2020.1.3,60.030407428809234,
Computer.xlsx,c,Sychronize.jpg,Number8.jpg,8,Computer,,,,,0,2,2,3,0,4,4,4,,,,,,,,,,,,,,,,,,,,,,,,,,,,,673.9199984601892,None,673.9199984601892,None,674.3535365135785,None,674.3535365135785,None,v,7.834200493060962,674.3535365135785,None,t,7.638214909544331,674.3535365135785,None,7.834200493060962,7.638214909544331,8.13516712522361,False,False,False,682.2850254951063,None,682.2850254951063,None,682.2850254951063,None,682.2850254951063,None,682.2850254951063,None,682.2850254951063,None,682.2850254951063,None,682.2850254951063,None,683.2848343018641,None,683.2848343018641,None,684.2679021514059,None,684.2679021514059,None,c,,,,,,,,,,,,,,,,,,,,,,,,,,,,,,,,,,,,,,,,,,,,,,,5_6Exp,001,2021_Apr_26_1051,ComputerHuman,2020.1.3,60.030407428809234,
Computer.xlsx,c,Sychronize.jpg,Number9.jpg,9,Computer,,,,,0,2,2,3,0,5,5,6,,,,,,,,,,,,,,,,,,,,,,,,,,,,,685.3178356668432,None,685.3178356668432,None,685.7678843473368,None,685.7678843473368,None,v,9.23146508237187,685.7678843473368,None,t,7.922675486363914,685.7678843473368,None,9.23146508237187,7.922675486363914,8.787363838949467,False,False,False,695.0663572073599,None,695.0663572073599,None,695.0663572073599,None,695.0663572073599,None,695.0663572073599,None,695.0663572073599,None,695.0663572073599,None,695.0663572073599,None,696.0822974626799,None,696.0822974626799,None,697.06546155043,None,697.06546155043,None,c,,,,,,,,,,,,,,,,,,,,,,,,,,,,,,,,,,,,,,,,,,,,,,,5_6Exp,001,2021_Apr_26_1051,ComputerHuman,2020.1.3,60.030407428809234,
Computer.xlsx,c,Sychronize.jpg,Number8.jpg,8,Computer,,,,,0,2,2,3,0,6,6,5,,,,,,,,,,,,,,,,,,,,,,,,,,,,,698.1324343615324,None,698.1324343615324,None,698.5824378100679,None,698.5824378100679,None,v,7.564733829173747,698.5824378100679,None,t,7.443727113351088,698.5824378100679,None,7.564733829173747,7.443727113351088,7.463912229350819,False,True,True,706.2302332332993,None,706.2302332332993,None,706.2302332332993,None,706.2302332332993,None,706.2302332332993,None,706.2302332332993,None,706.2302332332993,None,706.2302332332993,None,707.2302332332993,None,707.2302332332993,None,708.1966691955931,None,708.1966691955931,None,c,,,,,,,,,,,,,,,,,,,,,,,,,,,,,,,,,,,,,,,,,,,,,,,5_6Exp,001,2021_Apr_26_1051,ComputerHuman,2020.1.3,60.030407428809234,
Computer.xlsx,c,Sychronize.jpg,Number10.jpg,10,Computer,,,,,0,2,2,3,0,7,7,8,,,,,,,,,,,,,,,,,,,,,,,,,,,,,709.2468798770724,None,709.2468798770724,None,709.6967723308735,None,709.6967723308735,None,v,9.278030581294843,709.6967723308735,None,t,8.993690943824731,709.6967723308735,None,9.278030581294843,8.993690943824731,9.309356869257389,False,True,False,719.061162910436,None,719.061162910436,None,719.061162910436,None,719.061162910436,None,719.061162910436,None,719.061162910436,None,719.061162910436,None,719.061162910436,None,720.061380408788,None,720.061380408788,None,721.0442403837988,None,721.0442403837988,None,c,,,,,,,,,,,,,,,,,,,,,,,,,,,,,,,,,,,,,,,,,,,,,,,5_6Exp,001,2021_Apr_26_1051,ComputerHuman,2020.1.3,60.030407428809234,
Computer.xlsx,c,Sychronize.jpg,Number9.jpg,9,Computer,,,,,0,2,2,3,0,8,8,7,,,,,,,,,,,,,,,,,,,,,,,,,,,,,722.0940962670811,None,722.0940962670811,None,722.5440724481241,None,722.5440724481241,None,v,8.030448486093519,722.5440724481241,None,t,9.033617931103436,722.5440724481241,None,8.030448486093519,9.033617931103436,8.684704144743614,False,False,False,731.6754956668747,None,731.6754956668747,None,731.6754956668747,None,731.6754956668747,None,731.6754956668747,None,731.6754956668747,None,731.6754956668747,None,731.6754956668747,None,732.6752364652993,None,732.6752364652993,None,733.658414667987,None,733.658414667987,None,c,,,,,,,,,,,,,,,,,,,,,,,,,,,,,,,,,,,,,,,,,,,,,,,5_6Exp,001,2021_Apr_26_1051,ComputerHuman,2020.1.3,60.030407428809234,
Computer.xlsx,c,Sychronize.jpg,Number10.jpg,10,Computer,,,,,0,2,2,3,0,9,9,9,,,,,,,,,,,,,,,,,,,,,,,,,,,,,734.7089387652322,None,734.7089387652322,None,735.1585957562165,None,735.1585957562165,None,v,9.187921463205384,735.1585957562165,None,t,9.726682524585158,735.1585957562165,None,9.187921463205384,9.726682524585158,9.492463161398376,False,False,True,744.9412327793762,None,744.9412327793762,None,744.9412327793762,None,744.9412327793762,None,744.9412327793762,None,744.9412327793762,None,744.9412327793762,None,744.9412327793762,None,745.9559950790199,None,745.9559950790199,None,746.9392037571397,None,746.9392037571397,None,c,,,,,,,,,,,,,,,,,,,,,,,,,,,,,,,,,,,,,,,,,,,,,,,5_6Exp,001,2021_Apr_26_1051,ComputerHuman,2020.1.3,60.030407428809234,
Computer.xlsx,c,,,,,,,,,0,2,2,3,,,,,,,,,,,,,,,,,,,,,,,,,,,,,,,,,,,,,,,,,,,,,,,,,,,,,,,,,,,,,,,,,,,,,,,,,,,,,,,c,747.9563421781595,None,747.9563421781595,None,a,1,3.505686876155778,747.9563421781595,None,l,0,2.21284876325808,747.9563421781595,None,c,c,751.5553753049553,None,751.5553753049553,None,753.5545819813206,None,None,None,None,None,None,None,None,,,,,,,,,,,,,,,,,,5_6Exp,001,2021_Apr_26_1051,ComputerHuman,2020.1.3,60.030407428809234,
Computer.xlsx,c,Sychronize.jpg,Number10.jpg,10,Computer,,,,,0,3,3,5,0,0,0,8,,,,,,,,,,,,,,,,,,,,,,,,,758.5399431873775,None,758.5399431873775,None,761.602895807704,None,761.602895807704,None,762.0530840336005,None,762.0530840336005,None,v,10.396391387963376,762.0530840336005,None,t,9.255659047274094,762.0530840336005,None,10.396391387963376,9.255659047274094,10.199667573787911,False,True,False,772.5342420358875,None,772.5342420358875,None,772.5342420358875,None,772.5342420358875,None,772.5342420358875,None,772.5342420358875,None,772.5342420358875,None,772.5342420358875,None,773.5340389732673,None,773.5340389732673,None,774.5171735479662,None,774.5171735479662,None,c,,,,,,,,,,,,,,,,,,,,,,,,,,,,,,,,,,,,,,,,,,,,,,,5_6Exp,001,2021_Apr_26_1051,ComputerHuman,2020.1.3,60.030407428809234,
Computer.xlsx,c,Sychronize.jpg,Number6.jpg,6,Computer,,,,,0,3,3,5,0,1,1,0,,,,,,,,,,,,,,,,,,,,,,,,,,,,,775.5834393290279,None,775.5834393290279,None,776.0176747886371,None,776.0176747886371,None,v,5.823617177236883,776.0176747886371,None,t,4.8627986391920786,776.0176747886371,None,5.823617177236883,4.8627986391920786,5.614554477146573,False,True,False,781.9164139077047,None,781.9164139077047,None,781.9164139077047,None,781.9164139077047,None,781.9164139077047,None,781.9164139077047,None,781.9164139077047,None,781.9164139077047,None,782.9321645737537,None,782.9321645737537,None,783.9153366813543,None,783.9153366813543,None,c,,,,,,,,,,,,,,,,,,,,,,,,,,,,,,,,,,,,,,,,,,,,,,,5_6Exp,001,2021_Apr_26_1051,ComputerHuman,2020.1.3,60.030407428809234,
Computer.xlsx,c,Sychronize.jpg,Number7.jpg,7,Computer,,,,,0,3,3,5,0,2,2,2,,,,,,,,,,,,,,,,,,,,,,,,,,,,,784.9657237995489,None,784.9657237995489,None,785.4154115867595,None,785.4154115867595,None,v,7.285567316221204,785.4154115867595,None,t,6.660725988967897,785.4154115867595,None,7.285567316221204,6.660725988967897,7.375215497742244,False,True,False,792.7818850819549,None,792.7818850819549,None,792.7818850819549,None,792.7818850819549,None,792.7818850819549,None,792.7818850819549,None,792.7818850819549,None,792.7818850819549,None,793.780054952018,None,793.780054952018,None,794.7632264180302,None,794.7632264180302,None,c,,,,,,,,,,,,,,,,,,,,,,,,,,,,,,,,,,,,,,,,,,,,,,,5_6Exp,001,2021_Apr_26_1051,ComputerHuman,2020.1.3,60.030407428809234,
Computer.xlsx,c,Sychronize.jpg,Number9.jpg,9,Computer,,,,,0,3,3,5,0,3,3,7,,,,,,,,,,,,,,,,,,,,,,,,,,,,,795.8300535886428,None,795.8300535886428,None,796.2630488585346,None,796.2630488585346,None,v,9.697703275146523,796.2630488585346,None,t,8.93258385154968,796.2630488585346,None,9.697703275146523,8.93258385154968,9.308961032917562,False,False,False,806.044424198777,None,806.044424198777,None,806.044424198777,None,806.044424198777,None,806.044424198777,None,806.044424198777,None,806.044424198777,None,806.044424198777,None,807.0275093711962,None,807.0275093711962,None,808.0107016888205,None,808.0107016888205,None,c,,,,,,,,,,,,,,,,,,,,,,,,,,,,,,,,,,,,,,,,,,,,,,,5_6Exp,001,2021_Apr_26_1051,ComputerHuman,2020.1.3,60.030407428809234,
Computer.xlsx,c,Sychronize.jpg,Number10.jpg,10,Computer,,,,,0,3,3,5,0,4,4,9,,,,,,,,,,,,,,,,,,,,,,,,,,,,,809.0775747329799,None,809.0775747329799,None,809.5107753110506,None,809.5107753110506,None,v,10.909513628133027,809.5107753110506,None,t,9.6967620654641,809.5107753110506,None,10.909513628133027,9.6967620654641,10.685058897783918,False,True,False,820.4932214617629,None,820.4932214617629,None,820.4932214617629,None,820.4932214617629,None,820.4932214617629,None,820.4932214617629,None,820.4932214617629,None,820.4932214617629,None,821.5080495241828,None,821.5080495241828,None,822.4912059128756,None,822.4912059128756,None,c,,,,,,,,,,,,,,,,,,,,,,,,,,,,,,,,,,,,,,,,,,,,,,,5_6Exp,001,2021_Apr_26_1051,ComputerHuman,2020.1.3,60.030407428809234,
Computer.xlsx,c,Sychronize.jpg,Number7.jpg,7,Computer,,,,,0,3,3,5,0,5,5,3,,,,,,,,,,,,,,,,,,,,,,,,,,,,,823.541379061453,None,823.541379061453,None,823.9744548506469,None,823.9744548506469,None,v,10.077487156208917,823.9744548506469,None,t,6.560735773186025,823.9744548506469,None,10.077487156208917,6.560735773186025,6.913613923057201,False,False,False,834.123854725216,None,834.123854725216,None,834.123854725216,None,834.123854725216,None,834.123854725216,None,834.123854725216,None,834.123854725216,None,834.123854725216,None,835.138766835672,None,835.138766835672,None,836.1219488878878,None,836.1219488878878,None,c,,,,,,,,,,,,,,,,,,,,,,,,,,,,,,,,,,,,,,,,,,,,,,,5_6Exp,001,2021_Apr_26_1051,ComputerHuman,2020.1.3,60.030407428809234,
Computer.xlsx,c,Sychronize.jpg,Number6.jpg,6,Computer,,,,,0,3,3,5,0,6,6,1,,,,,,,,,,,,,,,,,,,,,,,,,,,,,837.1719799247103,None,837.1719799247103,None,837.6219865811863,None,837.6219865811863,None,v,5.497772566657659,837.6219865811863,None,t,5.5167475334947085,837.6219865811863,None,5.497772566657659,5.5167475334947085,5.58847427398015,False,True,True,843.2371835567401,None,843.2371835567401,None,843.2371835567401,None,843.2371835567401,None,843.2371835567401,None,843.2371835567401,None,843.2371835567401,None,843.2371835567401,None,844.2203951220063,None,844.2203951220063,None,845.2034828607775,None,845.2034828607775,None,c,,,,,,,,,,,,,,,,,,,,,,,,,,,,,,,,,,,,,,,,,,,,,,,5_6Exp,001,2021_Apr_26_1051,ComputerHuman,2020.1.3,60.030407428809234,
Computer.xlsx,c,Sychronize.jpg,Number9.jpg,9,Computer,,,,,0,3,3,5,0,7,7,6,,,,,,,,,,,,,,,,,,,,,,,,,,,,,846.2539177772824,None,846.2539177772824,None,846.7034204663387,None,846.7034204663387,None,v,8.604092369432692,846.7034204663387,None,None,,846.7034204663387,None,8.604092369432692,13,9.551104586137246,False,False,False,859.7840190038387,None,859.7840190038387,None,859.7840190038387,None,859.7840190038387,None,859.7840190038387,None,859.7840190038387,None,859.7840190038387,None,859.7840190038387,None,860.7670977603766,None,860.7670977603766,None,861.7503311396376,None,861.7503311396376,None,c,,,,,,,,,,,,,,,,,,,,,,,,,,,,,,,,,,,,,,,,,,,,,,,5_6Exp,001,2021_Apr_26_1051,ComputerHuman,2020.1.3,60.030407428809234,
Computer.xlsx,c,Sychronize.jpg,Number8.jpg,8,Computer,,,,,0,3,3,5,0,8,8,5,,,,,,,,,,,,,,,,,,,,,,,,,,,,,862.8172792495989,None,862.8172792495989,None,863.2500919876884,None,863.2500919876884,None,v,7.796926151610023,863.2500919876884,None,t,6.504926273512865,863.2500919876884,None,7.796926151610023,6.504926273512865,7.673727667555828,False,True,False,871.1168075219784,None,871.1168075219784,None,871.1168075219784,None,871.1168075219784,None,871.1168075219784,None,871.1168075219784,None,871.1168075219784,None,871.1168075219784,None,872.1315983722916,None,872.1315983722916,None,873.09804588317,None,873.09804588317,None,c,,,,,,,,,,,,,,,,,,,,,,,,,,,,,,,,,,,,,,,,,,,,,,,5_6Exp,001,2021_Apr_26_1051,ComputerHuman,2020.1.3,60.030407428809234,
Computer.xlsx,c,Sychronize.jpg,Number8.jpg,8,Computer,,,,,0,3,3,5,0,9,9,4,,,,,,,,,,,,,,,,,,,,,,,,,,,,,874.1482642637056,None,874.1482642637056,None,874.598170511651,None,874.598170511651,None,v,8.0806222762576,874.598170511651,None,t,7.311700481031039,874.598170511651,None,8.0806222762576,7.311700481031039,8.30596750651783,False,True,False,882.7475309285546,None,882.7475309285546,None,882.7475309285546,None,882.7475309285546,None,882.7475309285546,None,882.7475309285546,None,882.7475309285546,None,882.7475309285546,None,883.7626797850044,None,883.7626797850044,None,884.745809226999,None,884.745809226999,None,c,,,,,,,,,,,,,,,,,,,,,,,,,,,,,,,,,,,,,,,,,,,,,,,5_6Exp,001,2021_Apr_26_1051,ComputerHuman,2020.1.3,60.030407428809234,
Computer.xlsx,c,,,,,,,,,0,3,3,5,,,,,,,,,,,,,,,,,,,,,,,,,,,,,,,,,,,,,,,,,,,,,,,,,,,,,,,,,,,,,,,,,,,,,,,,,,,,,,,c,885.7469416299227,None,885.7469416299227,None,a,0,1.4400934793802662,885.7469416299227,None,l,1,1.9188387897720531,885.7469416299227,None,c,c,887.7624561915654,None,887.7624561915654,None,889.7616218062949,None,None,None,None,None,None,None,None,,,,,,,,,,,,,,,,,,5_6Exp,001,2021_Apr_26_1051,ComputerHuman,2020.1.3,60.030407428809234,
Human.xlsx,h,Sychronize.jpg,Number10.jpg,10,Human,,,,,0,4,4,4,0,0,0,8,,,,,,,,,,,,,,,,,,,,,,,,,894.746718357278,None,894.746718357278,None,897.843584039214,None,897.843584039214,None,898.2767939203122,None,898.2767939203122,None,v,9.689380594848444,898.2767939203122,None,t,8.200650891085388,898.2767939203122,None,9.689380594848444,8.200650891085388,10.291643540031094,False,False,False,908.0431118304032,None,908.0431118304032,None,908.0431118304032,None,908.0431118304032,None,908.0431118304032,None,908.0431118304032,None,908.0431118304032,None,908.0431118304032,None,909.0598258409218,None,909.0598258409218,None,910.0409522449972,None,910.0409522449972,None,h,,,,,,,,,,,,,,,,,,,,,,,,,,,,,,,,,,,,,,,,,,,,,,,5_6Exp,001,2021_Apr_26_1051,ComputerHuman,2020.1.3,60.030407428809234,
Human.xlsx,h,Sychronize.jpg,Number10.jpg,10,Human,,,,,0,4,4,4,0,1,1,9,,,,,,,,,,,,,,,,,,,,,,,,,,,,,911.0912091208165,None,911.0912091208165,None,911.5408548840096,None,911.5408548840096,None,v,10.405120514296868,911.5408548840096,None,t,8.244465260412653,911.5408548840096,None,10.405120514296868,8.244465260412653,10.169425767474046,False,False,False,922.0386011455557,None,922.0386011455557,None,922.0386011455557,None,922.0386011455557,None,922.0386011455557,None,922.0386011455557,None,922.0386011455557,None,922.0386011455557,None,923.0245198916364,None,923.0245198916364,None,924.004844310638,None,924.004844310638,None,h,,,,,,,,,,,,,,,,,,,,,,,,,,,,,,,,,,,,,,,,,,,,,,,5_6Exp,001,2021_Apr_26_1051,ComputerHuman,2020.1.3,60.030407428809234,
Human.xlsx,h,Sychronize.jpg,Number8.jpg,8,Human,,,,,0,4,4,4,0,2,2,5,,,,,,,,,,,,,,,,,,,,,,,,,,,,,925.055940704432,None,925.055940704432,None,925.5049217823962,None,925.5049217823962,None,v,7.656613088716767,925.5049217823962,None,t,7.739687835330187,925.5049217823962,None,7.656613088716767,7.739687835330187,8.022551822379638,True,False,False,933.3215812579301,None,933.3215812579301,None,933.3215812579301,None,933.3215812579301,None,933.3215812579301,None,933.3215812579301,None,933.3215812579301,None,933.3215812579301,None,934.3218420634757,None,934.3218420634757,None,935.3193780445363,None,935.3193780445363,None,h,,,,,,,,,,,,,,,,,,,,,,,,,,,,,,,,,,,,,,,,,,,,,,,5_6Exp,001,2021_Apr_26_1051,ComputerHuman,2020.1.3,60.030407428809234,
Human.xlsx,h,Sychronize.jpg,Number9.jpg,9,Human,,,,,0,4,4,4,0,3,3,6,,,,,,,,,,,,,,,,,,,,,,,,,,,,,936.3695800645764,None,936.3695800645764,None,936.8195947409031,None,936.8195947409031,None,v,8.641635857073197,936.8195947409031,None,t,7.47670955148169,936.8195947409031,None,8.641635857073197,7.47670955148169,9.20230437353106,False,False,False,945.5507581164902,None,945.5507581164902,None,945.5507581164902,None,945.5507581164902,None,945.5507581164902,None,945.5507581164902,None,945.5507581164902,None,945.5507581164902,None,946.5199750422253,None,946.5199750422253,None,947.5336742304553,None,947.5336742304553,None,h,,,,,,,,,,,,,,,,,,,,,,,,,,,,,,,,,,,,,,,,,,,,,,,5_6Exp,001,2021_Apr_26_1051,ComputerHuman,2020.1.3,60.030407428809234,
Human.xlsx,h,Sychronize.jpg,Number9.jpg,9,Human,,,,,0,4,4,4,0,4,4,7,,,,,,,,,,,,,,,,,,,,,,,,,,,,,948.5838104877193,None,948.5838104877193,None,949.0339351963985,None,949.0339351963985,None,v,8.246970020193658,949.0339351963985,None,t,7.538726415623387,949.0339351963985,None,8.246970020193658,7.538726415623387,8.539650857936708,False,False,False,957.3497675045273,None,957.3497675045273,None,957.3497675045273,None,957.3497675045273,None,957.3497675045273,None,957.3497675045273,None,957.3497675045273,None,957.3497675045273,None,958.3333037133516,None,958.3333037133516,None,959.3314620348292,None,959.3314620348292,None,h,,,,,,,,,,,,,,,,,,,,,,,,,,,,,,,,,,,,,,,,,,,,,,,5_6Exp,001,2021_Apr_26_1051,ComputerHuman,2020.1.3,60.030407428809234,
Human.xlsx,h,Sychronize.jpg,Number6.jpg,6,Human,,,,,0,4,4,4,0,5,5,0,,,,,,,,,,,,,,,,,,,,,,,,,,,,,960.3993452593868,None,960.3993452593868,None,960.8316078357157,None,960.8316078357157,None,v,6.241064522906527,960.8316078357157,None,t,5.084717853630536,960.8316078357157,None,6.241064522906527,5.084717853630536,6.0588026180939005,False,False,False,967.163111252974,None,967.163111252974,None,967.163111252974,None,967.163111252974,None,967.163111252974,None,967.163111252974,None,967.163111252974,None,967.163111252974,None,968.1493017115972,None,968.1493017115972,None,969.1461701202825,None,969.1461701202825,None,h,,,,,,,,,,,,,,,,,,,,,,,,,,,,,,,,,,,,,,,,,,,,,,,5_6Exp,001,2021_Apr_26_1051,ComputerHuman,2020.1.3,60.030407428809234,
Human.xlsx,h,Sychronize.jpg,Number7.jpg,7,Human,,,,,0,4,4,4,0,6,6,2,,,,,,,,,,,,,,,,,,,,,,,,,,,,,970.1797245341677,None,970.1797245341677,None,970.6461279358673,None,970.6461279358673,None,v,6.6063741773641596,970.6461279358673,None,t,5.569892197166155,970.6461279358673,None,6.6063741773641596,5.569892197166155,7.334406598062179,False,False,False,977.3293281129454,None,977.3293281129454,None,977.3293281129454,None,977.3293281129454,None,977.3293281129454,None,977.3293281129454,None,977.3293281129454,None,977.3293281129454,None,978.3127889351726,None,978.3127889351726,None,979.3108625670266,None,979.3108625670266,None,h,,,,,,,,,,,,,,,,,,,,,,,,,,,,,,,,,,,,,,,,,,,,,,,5_6Exp,001,2021_Apr_26_1051,ComputerHuman,2020.1.3,60.030407428809234,
Human.xlsx,h,Sychronize.jpg,Number6.jpg,6,Human,,,,,0,4,4,4,0,7,7,1,,,,,,,,,,,,,,,,,,,,,,,,,,,,,980.3779829433815,None,980.3779829433815,None,980.8275674349152,None,980.8275674349152,None,v,5.4086348128894315,980.8275674349152,None,t,4.983745687324699,980.8275674349152,None,5.4086348128894315,4.983745687324699,5.579362070521662,False,False,False,986.3110030748112,None,986.3110030748112,None,986.3110030748112,None,986.3110030748112,None,986.3110030748112,None,986.3110030748112,None,986.3110030748112,None,986.3110030748112,None,987.3119128466788,None,987.3119128466788,None,988.3091379783245,None,988.3091379783245,None,h,,,,,,,,,,,,,,,,,,,,,,,,,,,,,,,,,,,,,,,,,,,,,,,5_6Exp,001,2021_Apr_26_1051,ComputerHuman,2020.1.3,60.030407428809234,
Human.xlsx,h,Sychronize.jpg,Number7.jpg,7,Human,,,,,0,4,4,4,0,8,8,3,,,,,,,,,,,,,,,,,,,,,,,,,,,,,989.3432848987823,None,989.3432848987823,None,989.8093489003986,None,989.8093489003986,None,v,7.078544172535658,989.8093489003986,None,t,6.625750136738134,989.8093489003986,None,7.078544172535658,6.625750136738134,7.317070942969627,False,False,False,996.97409524054,None,996.97409524054,None,996.97409524054,None,996.97409524054,None,996.97409524054,None,996.97409524054,None,996.97409524054,None,996.97409524054,None,997.9596174851995,None,997.9596174851995,None,998.9570042970363,None,998.9570042970363,None,h,,,,,,,,,,,,,,,,,,,,,,,,,,,,,,,,,,,,,,,,,,,,,,,5_6Exp,001,2021_Apr_26_1051,ComputerHuman,2020.1.3,60.030407428809234,
Human.xlsx,h,Sychronize.jpg,Number8.jpg,8,Human,,,,,0,4,4,4,0,9,9,4,,,,,,,,,,,,,,,,,,,,,,,,,,,,,1000.0071684633813,None,1000.0071684633813,None,1000.4570869014988,None,1000.4570869014988,None,v,7.402614792133136,1000.4570869014988,None,t,6.5979103476929595,1000.4570869014988,None,7.402614792133136,6.5979103476929595,7.970703985334033,False,False,False,1007.9553143540898,None,1007.9553143540898,None,1007.9553143540898,None,1007.9553143540898,None,1007.9553143540898,None,1007.9553143540898,None,1007.9553143540898,None,1007.9553143540898,None,1008.9237286531625,None,1008.9237286531625,None,1009.9216361137087,None,1009.9216361137087,None,h,,,,,,,,,,,,,,,,,,,,,,,,,,,,,,,,,,,,,,,,,,,,,,,5_6Exp,001,2021_Apr_26_1051,ComputerHuman,2020.1.3,60.030407428809234,
Human.xlsx,h,,,,,,,,,0,4,4,4,,,,,,,,,,,,,,,,,,,,,,,,,,,,,,,,,,,,,,,,,,,,,,,,,,,,,,,,,,,,,,,,,,,,,,,,,,,,,,,h,1010.9223562963052,None,1010.9223562963052,None,q,0,3.4971495846521066,1010.9223562963052,None,o,1,12.321099425297689,1010.9223562963052,None,h,h,1023.3195374791685,None,1023.3195374791685,None,None,None,1025.3353259989126,None,1025.3353259989126,None,"['space', 'space']",1026.3184862371345,None,"[2.3046404460319536, 4.224657833068704]",,,,,,,,,,,,,,,,,5_6Exp,001,2021_Apr_26_1051,ComputerHuman,2020.1.3,60.030407428809234,
Computer.xlsx,c,Sychronize.jpg,Number6.jpg,6,Computer,,,,,0,5,5,1,0,0,0,1,,,,,,,,,,,,,,,,,,,,,,,,,1030.60455944554,None,1030.60455944554,None,1033.6840432237877,None,1033.6840432237877,None,1034.117223912629,None,1034.117223912629,None,v,4.485631475026821,1034.117223912629,None,t,4.800769584876434,1034.117223912629,None,4.485631475026821,4.800769584876434,6.26103176207645,False,False,False,1039.0006268315337,None,1039.0006268315337,None,1039.0006268315337,None,1039.0006268315337,None,1039.0006268315337,None,1039.0006268315337,None,1039.0006268315337,None,1039.0006268315337,None,1040.0325352512546,None,1040.0325352512546,None,1040.999286554079,None,1040.999286554079,None,c,,,,,,,,,,,,,,,,,,,,,,,,,,,,,,,,,,,,,,,,,,,,,,,5_6Exp,001,2021_Apr_26_1051,ComputerHuman,2020.1.3,60.030407428809234,
Computer.xlsx,c,Sychronize.jpg,Number8.jpg,8,Computer,,,,,0,5,5,1,0,1,1,5,,,,,,,,,,,,,,,,,,,,,,,,,,,,,1042.0656825775159,None,1042.0656825775159,None,1042.4986422392712,None,1042.4986422392712,None,v,6.856044962491978,1042.4986422392712,None,t,6.9157232381585345,1042.4986422392712,None,6.856044962491978,6.9157232381585345,7.436994651206632,False,False,False,1049.4817479425074,None,1049.4817479425074,None,1049.4817479425074,None,1049.4817479425074,None,1049.4817479425074,None,1049.4817479425074,None,1049.4817479425074,None,1049.4817479425074,None,1050.497065536617,None,1050.497065536617,None,1051.480268440444,None,1051.480268440444,None,c,,,,,,,,,,,,,,,,,,,,,,,,,,,,,,,,,,,,,,,,,,,,,,,5_6Exp,001,2021_Apr_26_1051,ComputerHuman,2020.1.3,60.030407428809234,
Computer.xlsx,c,Sychronize.jpg,Number9.jpg,9,Computer,,,,,0,5,5,1,0,2,2,7,,,,,,,,,,,,,,,,,,,,,,,,,,,,,1052.5303909035647,None,1052.5303909035647,None,1052.980587470106,None,1052.980587470106,None,v,9.041751022129574,1052.980587470106,None,t,7.432723878143406,1052.980587470106,None,9.041751022129574,7.432723878143406,9.259494363157087,False,True,False,1062.096395397889,None,1062.096395397889,None,1062.096395397889,None,1062.096395397889,None,1062.096395397889,None,1062.096395397889,None,1062.096395397889,None,1062.096395397889,None,1063.0945951017966,None,1063.0945951017966,None,1064.0943785658264,None,1064.0943785658264,None,c,,,,,,,,,,,,,,,,,,,,,,,,,,,,,,,,,,,,,,,,,,,,,,,5_6Exp,001,2021_Apr_26_1051,ComputerHuman,2020.1.3,60.030407428809234,
Computer.xlsx,c,Sychronize.jpg,Number10.jpg,10,Computer,,,,,0,5,5,1,0,3,3,9,,,,,,,,,,,,,,,,,,,,,,,,,,,,,1065.1443515389292,None,1065.1443515389292,None,1065.594460207907,None,1065.594460207907,None,v,11.939466487449863,1065.594460207907,None,t,7.686734044105833,1065.594460207907,None,11.939466487449863,7.686734044105833,9.405533983724132,False,False,False,1077.6098223923864,None,1077.6098223923864,None,1077.6098223923864,None,1077.6098223923864,None,1077.6098223923864,None,1077.6098223923864,None,1077.6098223923864,None,1077.6098223923864,None,1078.6082678245193,None,1078.6082678245193,None,1079.5915246217437,None,1079.5915246217437,None,c,,,,,,,,,,,,,,,,,,,,,,,,,,,,,,,,,,,,,,,,,,,,,,,5_6Exp,001,2021_Apr_26_1051,ComputerHuman,2020.1.3,60.030407428809234,
Computer.xlsx,c,Sychronize.jpg,Number10.jpg,10,Computer,,,,,0,5,5,1,0,4,4,8,,,,,,,,,,,,,,,,,,,,,,,,,,,,,1080.6579517622022,None,1080.6579517622022,None,1081.1079722128216,None,1081.1079722128216,None,v,8.937648547685058,1081.1079722128216,None,t,9.31263463324467,1081.1079722128216,None,8.937648547685058,9.31263463324467,9.597861327820423,False,False,True,1090.5060233890927,None,1090.5060233890927,None,1090.5060233890927,None,1090.5060233890927,None,1090.5060233890927,None,1090.5060233890927,None,1090.5060233890927,None,1090.5060233890927,None,1091.5058370077622,None,1091.5058370077622,None,1092.4723210891607,None,1092.4723210891607,None,c,,,,,,,,,,,,,,,,,,,,,,,,,,,,,,,,,,,,,,,,,,,,,,,5_6Exp,001,2021_Apr_26_1051,ComputerHuman,2020.1.3,60.030407428809234,
Computer.xlsx,c,Sychronize.jpg,Number6.jpg,6,Computer,,,,,0,5,5,1,0,5,5,0,,,,,,,,,,,,,,,,,,,,,,,,,,,,,1093.5393041656716,None,1093.5393041656716,None,1093.9724232620583,None,1093.9724232620583,None,v,5.5449523861461785,1093.9724232620583,None,t,5.111706896911528,1093.9724232620583,None,5.5449523861461785,5.111706896911528,5.933158710165934,False,False,False,1099.5892238869656,None,1099.5892238869656,None,1099.5892238869656,None,1099.5892238869656,None,1099.5892238869656,None,1099.5892238869656,None,1099.5892238869656,None,1099.5892238869656,None,1100.6033105943834,None,1100.6033105943834,None,1101.5872150747537,None,1101.5872150747537,None,c,,,,,,,,,,,,,,,,,,,,,,,,,,,,,,,,,,,,,,,,,,,,,,,5_6Exp,001,2021_Apr_26_1051,ComputerHuman,2020.1.3,60.030407428809234,
Computer.xlsx,c,Sychronize.jpg,Number7.jpg,7,Computer,,,,,0,5,5,1,0,6,6,2,,,,,,,,,,,,,,,,,,,,,,,,,,,,,1102.6373696172768,None,1102.6373696172768,None,1103.0874545474962,None,1103.0874545474962,None,v,6.537710460932431,1103.0874545474962,None,t,5.8927575935958885,1103.0874545474962,None,6.537710460932431,5.8927575935958885,6.670197759679444,False,True,False,1109.703958117132,None,1109.703958117132,None,1109.703958117132,None,1109.703958117132,None,1109.703958117132,None,1109.703958117132,None,1109.703958117132,None,1109.703958117132,None,1110.70208147206,None,1110.70208147206,None,1111.6851900624433,None,1111.6851900624433,None,c,,,,,,,,,,,,,,,,,,,,,,,,,,,,,,,,,,,,,,,,,,,,,,,5_6Exp,001,2021_Apr_26_1051,ComputerHuman,2020.1.3,60.030407428809234,
Computer.xlsx,c,Sychronize.jpg,Number8.jpg,8,Computer,,,,,0,5,5,1,0,7,7,4,,,,,,,,,,,,,,,,,,,,,,,,,,,,,1112.7350847618027,None,1112.7350847618027,None,1113.185270421347,None,1113.185270421347,None,v,7.319665155192524,1113.185270421347,None,t,7.370758341045985,1113.185270421347,None,7.319665155192524,7.370758341045985,7.754164983311585,False,False,False,1120.649954687844,None,1120.649954687844,None,1120.649954687844,None,1120.649954687844,None,1120.649954687844,None,1120.649954687844,None,1120.649954687844,None,1120.649954687844,None,1121.6499915791574,None,1121.6499915791574,None,1122.6330934328653,None,1122.6330934328653,None,c,,,,,,,,,,,,,,,,,,,,,,,,,,,,,,,,,,,,,,,,,,,,,,,5_6Exp,001,2021_Apr_26_1051,ComputerHuman,2020.1.3,60.030407428809234,
Computer.xlsx,c,Sychronize.jpg,Number9.jpg,9,Computer,,,,,0,5,5,1,0,8,8,6,,,,,,,,,,,,,,,,,,,,,,,,,,,,,1123.6834147882846,None,1123.6834147882846,None,1124.1165393381698,None,1124.1165393381698,None,v,8.335986834612413,1124.1165393381698,None,t,8.143678833849663,1124.1165393381698,None,8.335986834612413,8.143678833849663,9.091744476263225,False,False,False,1132.547682984925,None,1132.547682984925,None,1132.547682984925,None,1132.547682984925,None,1132.547682984925,None,1132.547682984925,None,1132.547682984925,None,1132.547682984925,None,1133.5475835387751,None,1133.5475835387751,None,1134.5307976703943,None,1134.5307976703943,None,c,,,,,,,,,,,,,,,,,,,,,,,,,,,,,,,,,,,,,,,,,,,,,,,5_6Exp,001,2021_Apr_26_1051,ComputerHuman,2020.1.3,60.030407428809234,
Computer.xlsx,c,Sychronize.jpg,Number7.jpg,7,Computer,,,,,0,5,5,1,0,9,9,3,,,,,,,,,,,,,,,,,,,,,,,,,,,,,1135.5645484102251,None,1135.5645484102251,None,1136.0305893146724,None,1136.0305893146724,None,v,6.561670566987232,1136.0305893146724,None,t,6.152778156492786,1136.0305893146724,None,6.561670566987232,6.152778156492786,7.240182240973554,False,False,False,1142.679352252696,None,1142.679352252696,None,1142.679352252696,None,1142.679352252696,None,1142.679352252696,None,1142.679352252696,None,1142.679352252696,None,1142.679352252696,None,1143.6624124031805,None,1143.6624124031805,None,1144.6455290134145,None,1144.6455290134145,None,c,,,,,,,,,,,,,,,,,,,,,,,,,,,,,,,,,,,,,,,,,,,,,,,5_6Exp,001,2021_Apr_26_1051,ComputerHuman,2020.1.3,60.030407428809234,
Computer.xlsx,c,,,,,,,,,0,5,5,1,,,,,,,,,,,,,,,,,,,,,,,,,,,,,,,,,,,,,,,,,,,,,,,,,,,,,,,,,,,,,,,,,,,,,,,,,,,,,,,c,1145.646560366219,None,1145.646560366219,None,a,1,3.953546458193159,1145.646560366219,None,l,0,2.989119628905428,1145.646560366219,None,c,c,1149.6948385844644,None,1149.6948385844644,None,1151.6941864102027,None,None,None,None,None,None,None,None,,,,,,,,,,,,,,,,,,5_6Exp,001,2021_Apr_26_1051,ComputerHuman,2020.1.3,60.030407428809234,
Human.xlsx,h,Sychronize.jpg,Number10.jpg,10,Human,,,,,0,6,6,6,0,0,0,9,,,,,,,,,,,,,,,,,,,,,,,,,1156.6960277679318,None,1156.6960277679318,None,1159.759267819708,None,1159.759267819708,None,1160.1930974748702,None,1160.1930974748702,None,v,9.850497792134774,1160.1930974748702,None,t,8.801779123687083,1160.1930974748702,None,9.850497792134774,8.801779123687083,9.498309791736753,False,False,False,1170.1255481968974,None,1170.1255481968974,None,1170.1255481968974,None,1170.1255481968974,None,1170.1255481968974,None,1170.1255481968974,None,1170.1255481968974,None,1170.1255481968974,None,1171.1433124870682,None,1171.1433124870682,None,1172.1402193910371,None,1172.1402193910371,None,h,,,,,,,,,,,,,,,,,,,,,,,,,,,,,,,,,,,,,,,,,,,,,,,5_6Exp,001,2021_Apr_26_1051,ComputerHuman,2020.1.3,60.030407428809234,
Human.xlsx,h,Sychronize.jpg,Number10.jpg,10,Human,,,,,0,6,6,6,0,1,1,8,,,,,,,,,,,,,,,,,,,,,,,,,,,,,1173.173634901108,None,1173.173634901108,None,1173.6233743361572,None,1173.6233743361572,None,v,9.103966136982308,1173.6233743361572,None,t,8.931720594816397,1173.6233743361572,None,9.103966136982308,8.931720594816397,9.27422539528083,True,False,False,1182.821467536447,None,1182.821467536447,None,1182.821467536447,None,1182.821467536447,None,1182.821467536447,None,1182.821467536447,None,1182.821467536447,None,1182.821467536447,None,1183.8070375794168,None,1183.8070375794168,None,1184.8044834173552,None,1184.8044834173552,None,h,,,,,,,,,,,,,,,,,,,,,,,,,,,,,,,,,,,,,,,,,,,,,,,5_6Exp,001,2021_Apr_26_1051,ComputerHuman,2020.1.3,60.030407428809234,
Human.xlsx,h,Sychronize.jpg,Number9.jpg,9,Human,,,,,0,6,6,6,0,2,2,7,,,,,,,,,,,,,,,,,,,,,,,,,,,,,1185.8543383382548,None,1185.8543383382548,None,1186.3044335338836,None,1186.3044335338836,None,v,8.130760458286204,1186.3044335338836,None,t,9.237752645348337,1186.3044335338836,None,8.130760458286204,9.237752645348337,9.610334764541363,False,False,False,1195.6356873733866,None,1195.6356873733866,None,1195.6356873733866,None,1195.6356873733866,None,1195.6356873733866,None,1195.6356873733866,None,1195.6356873733866,None,1195.6356873733866,None,1196.6044333734862,None,1196.6044333734862,None,1197.618626905317,None,1197.618626905317,None,h,,,,,,,,,,,,,,,,,,,,,,,,,,,,,,,,,,,,,,,,,,,,,,,5_6Exp,001,2021_Apr_26_1051,ComputerHuman,2020.1.3,60.030407428809234,
Human.xlsx,h,Sychronize.jpg,Number6.jpg,6,Human,,,,,0,6,6,6,0,3,3,1,,,,,,,,,,,,,,,,,,,,,,,,,,,,,1198.6689569221744,None,1198.6689569221744,None,1199.1187008483403,None,1199.1187008483403,None,v,5.140078241663105,1199.1187008483403,None,t,8.971662980207839,1199.1187008483403,None,5.140078241663105,8.971662980207839,5.673960438924623,False,False,False,1208.1832449278454,None,1208.1832449278454,None,1208.1832449278454,None,1208.1832449278454,None,1208.1832449278454,None,1208.1832449278454,None,1208.1832449278454,None,1208.1832449278454,None,1209.1523717104583,None,1209.1523717104583,None,1210.1495403823546,None,1210.1495403823546,None,h,,,,,,,,,,,,,,,,,,,,,,,,,,,,,,,,,,,,,,,,,,,,,,,5_6Exp,001,2021_Apr_26_1051,ComputerHuman,2020.1.3,60.030407428809234,
Human.xlsx,h,Sychronize.jpg,Number7.jpg,7,Human,,,,,0,6,6,6,0,4,4,3,,,,,,,,,,,,,,,,,,,,,,,,,,,,,1211.2165308371286,None,1211.2165308371286,None,1211.6494468708952,None,1211.6494468708952,None,v,6.605183710720667,1211.6494468708952,None,t,5.712676015674333,1211.6494468708952,None,6.605183710720667,5.712676015674333,6.660694333926095,False,False,False,1218.3478818772228,None,1218.3478818772228,None,1218.3478818772228,None,1218.3478818772228,None,1218.3478818772228,None,1218.3478818772228,None,1218.3478818772228,None,1218.3478818772228,None,1219.3331308053703,None,1219.3331308053703,None,1220.3308849263703,None,1220.3308849263703,None,h,,,,,,,,,,,,,,,,,,,,,,,,,,,,,,,,,,,,,,,,,,,,,,,5_6Exp,001,2021_Apr_26_1051,ComputerHuman,2020.1.3,60.030407428809234,
Human.xlsx,h,Sychronize.jpg,Number7.jpg,7,Human,,,,,0,6,6,6,0,5,5,2,,,,,,,,,,,,,,,,,,,,,,,,,,,,,1221.3471886413254,None,1221.3471886413254,None,1221.8310198202598,None,1221.8310198202598,None,v,6.083129281597394,1221.8310198202598,None,t,6.214899920282733,1221.8310198202598,None,6.083129281597394,6.214899920282733,6.621452130506098,True,False,False,1228.1292594630231,None,1228.1292594630231,None,1228.1292594630231,None,1228.1292594630231,None,1228.1292594630231,None,1228.1292594630231,None,1228.1292594630231,None,1228.1292594630231,None,1229.099003453348,None,1229.099003453348,None,1230.095595658374,None,1230.095595658374,None,h,,,,,,,,,,,,,,,,,,,,,,,,,,,,,,,,,,,,,,,,,,,,,,,5_6Exp,001,2021_Apr_26_1051,ComputerHuman,2020.1.3,60.030407428809234,
Human.xlsx,h,Sychronize.jpg,Number6.jpg,6,Human,,,,,0,6,6,6,0,6,6,0,,,,,,,,,,,,,,,,,,,,,,,,,,,,,1231.162627495577,None,1231.162627495577,None,1231.612163868006,None,1231.612163868006,None,v,5.005899081406824,1231.612163868006,None,t,4.684727798246968,1231.612163868006,None,5.005899081406824,4.684727798246968,6.058108862924607,False,False,False,1236.695771453502,None,1236.695771453502,None,1236.695771453502,None,1236.695771453502,None,1236.695771453502,None,1236.695771453502,None,1236.695771453502,None,1236.695771453502,None,1237.696594290187,None,1237.696594290187,None,1238.6940000288714,None,1238.6940000288714,None,h,,,,,,,,,,,,,,,,,,,,,,,,,,,,,,,,,,,,,,,,,,,,,,,5_6Exp,001,2021_Apr_26_1051,ComputerHuman,2020.1.3,60.030407428809234,
Human.xlsx,h,Sychronize.jpg,Number8.jpg,8,Human,,,,,0,6,6,6,0,7,7,5,,,,,,,,,,,,,,,,,,,,,,,,,,,,,1239.7439069184047,None,1239.7439069184047,None,1240.17720180992,None,1240.17720180992,None,v,7.188785361527152,1240.17720180992,None,None,,1240.17720180992,None,7.188785361527152,13,8.314656411404357,False,False,False,1253.2577560778445,None,1253.2577560778445,None,1253.2577560778445,None,1253.2577560778445,None,1253.2577560778445,None,1253.2577560778445,None,1253.2577560778445,None,1253.2577560778445,None,1254.242978059293,None,1254.242978059293,None,1255.2408017925973,None,1255.2408017925973,None,h,,,,,,,,,,,,,,,,,,,,,,,,,,,,,,,,,,,,,,,,,,,,,,,5_6Exp,001,2021_Apr_26_1051,ComputerHuman,2020.1.3,60.030407428809234,
Human.xlsx,h,Sychronize.jpg,Number9.jpg,9,Human,,,,,0,6,6,6,0,8,8,6,,,,,,,,,,,,,,,,,,,,,,,,,,,,,1256.290470973755,None,1256.290470973755,None,1256.7242470563142,None,1256.7242470563142,None,v,8.49300781293914,1256.7242470563142,None,t,7.344699279657107,1256.7242470563142,None,8.49300781293914,7.344699279657107,8.804023324061237,False,False,False,1265.2898861662388,None,1265.2898861662388,None,1265.2898861662388,None,1265.2898861662388,None,1265.2898861662388,None,1265.2898861662388,None,1265.2898861662388,None,1265.2898861662388,None,1266.2902201128236,None,1266.2902201128236,None,1267.2884422723127,None,1267.2884422723127,None,h,,,,,,,,,,,,,,,,,,,,,,,,,,,,,,,,,,,,,,,,,,,,,,,5_6Exp,001,2021_Apr_26_1051,ComputerHuman,2020.1.3,60.030407428809234,
Human.xlsx,h,Sychronize.jpg,Number8.jpg,8,Human,,,,,0,6,6,6,0,9,9,4,,,,,,,,,,,,,,,,,,,,,,,,,,,,,1268.3390423977435,None,1268.3390423977435,None,1268.7883712164357,None,1268.7883712164357,None,v,6.920598024229548,1268.7883712164357,None,t,6.0277377765442,1268.7883712164357,None,6.920598024229548,6.0277377765442,7.511294215584037,False,False,False,1275.8034722745742,None,1275.8034722745742,None,1275.8034722745742,None,1275.8034722745742,None,1275.8034722745742,None,1275.8034722745742,None,1275.8034722745742,None,1275.8034722745742,None,1276.7724835713361,None,1276.7724835713361,None,1277.7697475190598,None,1277.7697475190598,None,h,,,,,,,,,,,,,,,,,,,,,,,,,,,,,,,,,,,,,,,,,,,,,,,5_6Exp,001,2021_Apr_26_1051,ComputerHuman,2020.1.3,60.030407428809234,
Human.xlsx,h,,,,,,,,,0,6,6,6,,,,,,,,,,,,,,,,,,,,,,,,,,,,,,,,,,,,,,,,,,,,,,,,,,,,,,,,,,,,,,,,,,,,,,,,,,,,,,,h,1278.7698415117102,None,1278.7698415117102,None,q,1,2.826820626414701,1278.7698415117102,None,o,1,2.8295922868283014,1278.7698415117102,None,h,h,1281.6856552137851,None,1281.6856552137851,None,1283.7019069601083,None,None,None,None,None,None,None,None,,,,,,,,,,,,,,,,,,5_6Exp,001,2021_Apr_26_1051,ComputerHuman,2020.1.3,60.030407428809234,
Human.xlsx,h,Sychronize.jpg,Number9.jpg,9,Human,,,,,0,7,7,0,0,0,0,6,,,,,,,,,,,,,,,,,,,,,,,,,1288.7037540921292,None,1288.7037540921292,None,1291.7676517716654,None,1291.7676517716654,None,1292.200848500208,None,1292.200848500208,None,v,7.599511430693383,1292.200848500208,None,t,6.41885146113691,1292.200848500208,None,7.599511430693383,6.41885146113691,8.9367939578921,False,False,False,1299.89865090071,None,1299.89865090071,None,1299.89865090071,None,1299.89865090071,None,1299.89865090071,None,1299.89865090071,None,1299.89865090071,None,1299.89865090071,None,1300.8837455269286,None,1300.8837455269286,None,1301.8984350063283,None,1301.8984350063283,None,h,,,,,,,,,,,,,,,,,,,,,,,,,,,,,,,,,,,,,,,,,,,,,,,5_6Exp,001,2021_Apr_26_1051,ComputerHuman,2020.1.3,60.030407428809234,
Human.xlsx,h,Sychronize.jpg,Number7.jpg,7,Human,,,,,0,7,7,0,0,1,1,3,,,,,,,,,,,,,,,,,,,,,,,,,,,,,1302.9488006313231,None,1302.9488006313231,None,1303.3982946589404,None,1303.3982946589404,None,v,6.253975841001193,1303.3982946589404,None,None,,1303.3982946589404,None,6.253975841001193,13,6.4773226077172605,False,False,False,1316.4639730661338,None,1316.4639730661338,None,1316.4639730661338,None,1316.4639730661338,None,1316.4639730661338,None,1316.4639730661338,None,1316.4639730661338,None,1316.4639730661338,None,1317.4646037471957,None,1317.4646037471957,None,1318.4619270418143,None,1318.4619270418143,None,h,,,,,,,,,,,,,,,,,,,,,,,,,,,,,,,,,,,,,,,,,,,,,,,5_6Exp,001,2021_Apr_26_1051,ComputerHuman,2020.1.3,60.030407428809234,
Human.xlsx,h,Sychronize.jpg,Number6.jpg,6,Human,,,,,0,7,7,0,0,2,2,0,,,,,,,,,,,,,,,,,,,,,,,,,,,,,1319.5122082979797,None,1319.5122082979797,None,1319.9618149243006,None,1319.9618149243006,None,v,5.622504984336956,1319.9618149243006,None,t,6.164761417459886,1319.9618149243006,None,5.622504984336956,6.164761417459886,5.649510749890892,False,False,False,1326.2103789700268,None,1326.2103789700268,None,1326.2103789700268,None,1326.2103789700268,None,1326.2103789700268,None,1326.2103789700268,None,1326.2103789700268,None,1326.2103789700268,None,1327.1791923368728,None,1327.1791923368728,None,1328.1767263931688,None,1328.1767263931688,None,h,,,,,,,,,,,,,,,,,,,,,,,,,,,,,,,,,,,,,,,,,,,,,,,5_6Exp,001,2021_Apr_26_1051,ComputerHuman,2020.1.3,60.030407428809234,
Human.xlsx,h,Sychronize.jpg,Number8.jpg,8,Human,,,,,0,7,7,0,0,3,3,5,,,,,,,,,,,,,,,,,,,,,,,,,,,,,1329.226877406958,None,1329.226877406958,None,1329.6768689861146,None,1329.6768689861146,None,v,6.9626015112608,1329.6768689861146,None,t,7.0777187694984605,1329.6768689861146,None,6.9626015112608,7.0777187694984605,7.81017297527806,True,False,False,1336.8416653701242,None,1336.8416653701242,None,1336.8416653701242,None,1336.8416653701242,None,1336.8416653701242,None,1336.8416653701242,None,1336.8416653701242,None,1336.8416653701242,None,1337.8269322627375,None,1337.8269322627375,None,1338.824595599027,None,1338.824595599027,None,h,,,,,,,,,,,,,,,,,,,,,,,,,,,,,,,,,,,,,,,,,,,,,,,5_6Exp,001,2021_Apr_26_1051,ComputerHuman,2020.1.3,60.030407428809234,
Human.xlsx,h,Sychronize.jpg,Number9.jpg,9,Human,,,,,0,7,7,0,0,4,4,7,,,,,,,,,,,,,,,,,,,,,,,,,,,,,1339.8575235021726,None,1339.8575235021726,None,1340.307951040416,None,1340.307951040416,None,v,7.943218815211367,1340.307951040416,None,t,8.03075548597917,1340.307951040416,None,7.943218815211367,8.03075548597917,9.016234986851416,True,False,False,1348.4227898494355,None,1348.4227898494355,None,1348.4227898494355,None,1348.4227898494355,None,1348.4227898494355,None,1348.4227898494355,None,1348.4227898494355,None,1348.4227898494355,None,1349.4088134951635,None,1349.4088134951635,None,1350.405724890249,None,1350.405724890249,None,h,,,,,,,,,,,,,,,,,,,,,,,,,,,,,,,,,,,,,,,,,,,,,,,5_6Exp,001,2021_Apr_26_1051,ComputerHuman,2020.1.3,60.030407428809234,
Human.xlsx,h,Sychronize.jpg,Number10.jpg,10,Human,,,,,0,7,7,0,0,5,5,9,,,,,,,,,,,,,,,,,,,,,,,,,,,,,1351.4558460701937,None,1351.4558460701937,None,1351.9057462230521,None,1351.9057462230521,None,v,8.91711580504034,1351.9057462230521,None,t,7.8126989524471355,1351.9057462230521,None,8.91711580504034,7.8126989524471355,9.45221255592513,False,False,False,1360.92036159903,None,1360.92036159903,None,1360.92036159903,None,1360.92036159903,None,1360.92036159903,None,1360.92036159903,None,1360.92036159903,None,1360.92036159903,None,1361.8895945644663,None,1361.8895945644663,None,1362.8866115007868,None,1362.8866115007868,None,h,,,,,,,,,,,,,,,,,,,,,,,,,,,,,,,,,,,,,,,,,,,,,,,5_6Exp,001,2021_Apr_26_1051,ComputerHuman,2020.1.3,60.030407428809234,
Human.xlsx,h,Sychronize.jpg,Number8.jpg,8,Human,,,,,0,7,7,0,0,6,6,4,,,,,,,,,,,,,,,,,,,,,,,,,,,,,1363.9538528164921,None,1363.9538528164921,None,1364.4034401951712,None,1364.4034401951712,None,v,6.851132322725789,1364.4034401951712,None,t,6.3347184150206886,1364.4034401951712,None,6.851132322725789,6.3347184150206886,8.39325086271654,False,False,False,1371.3516993261728,None,1371.3516993261728,None,1371.3516993261728,None,1371.3516993261728,None,1371.3516993261728,None,1371.3516993261728,None,1371.3516993261728,None,1371.3516993261728,None,1372.3370810630477,None,1372.3370810630477,None,1373.3180233313506,None,1373.3180233313506,None,h,,,,,,,,,,,,,,,,,,,,,,,,,,,,,,,,,,,,,,,,,,,,,,,5_6Exp,001,2021_Apr_26_1051,ComputerHuman,2020.1.3,60.030407428809234,
Human.xlsx,h,Sychronize.jpg,Number7.jpg,7,Human,,,,,0,7,7,0,0,7,7,2,,,,,,,,,,,,,,,,,,,,,,,,,,,,,1374.3846663661898,None,1374.3846663661898,None,1374.8177902744874,None,1374.8177902744874,None,v,6.048632695647939,1374.8177902744874,None,t,6.271807497919326,1374.8177902744874,None,6.048632695647939,6.271807497919326,6.599904875628926,True,False,False,1381.183064641601,None,1381.183064641601,None,1381.183064641601,None,1381.183064641601,None,1381.183064641601,None,1381.183064641601,None,1381.183064641601,None,1381.183064641601,None,1382.169176826481,None,1382.169176826481,None,1383.1660763521877,None,1383.1660763521877,None,h,,,,,,,,,,,,,,,,,,,,,,,,,,,,,,,,,,,,,,,,,,,,,,,5_6Exp,001,2021_Apr_26_1051,ComputerHuman,2020.1.3,60.030407428809234,
Human.xlsx,h,Sychronize.jpg,Number10.jpg,10,Human,,,,,0,7,7,0,0,8,8,8,,,,,,,,,,,,,,,,,,,,,,,,,,,,,1384.2162065143648,None,1384.2162065143648,None,1384.666293690142,None,1384.666293690142,None,v,8.739761938750235,1384.666293690142,None,t,8.646734878170719,1384.666293690142,None,8.739761938750235,8.646734878170719,9.373208282560679,True,False,False,1393.4814662853496,None,1393.4814662853496,None,1393.4814662853496,None,1393.4814662853496,None,1393.4814662853496,None,1393.4814662853496,None,1393.4814662853496,None,1393.4814662853496,None,1394.4661477288591,None,1394.4661477288591,None,1395.4636907673876,None,1395.4636907673876,None,h,,,,,,,,,,,,,,,,,,,,,,,,,,,,,,,,,,,,,,,,,,,,,,,5_6Exp,001,2021_Apr_26_1051,ComputerHuman,2020.1.3,60.030407428809234,
Human.xlsx,h,Sychronize.jpg,Number6.jpg,6,Human,,,,,0,7,7,0,0,9,9,1,,,,,,,,,,,,,,,,,,,,,,,,,,,,,1396.5301114919657,None,1396.5301114919657,None,1396.9637082506624,None,1396.9637082506624,None,v,4.970200801022656,1396.9637082506624,None,t,5.113565898311208,1396.9637082506624,None,4.970200801022656,5.113565898311208,5.743569901859562,True,False,False,1402.1290644202536,None,1402.1290644202536,None,1402.1290644202536,None,1402.1290644202536,None,1402.1290644202536,None,1402.1290644202536,None,1402.1290644202536,None,1402.1290644202536,None,1403.1476047111819,None,1403.1476047111819,None,1404.1452872951131,None,1404.1452872951131,None,h,,,,,,,,,,,,,,,,,,,,,,,,,,,,,,,,,,,,,,,,,,,,,,,5_6Exp,001,2021_Apr_26_1051,ComputerHuman,2020.1.3,60.030407428809234,
Human.xlsx,h,,,,,,,,,0,7,7,0,,,,,,,,,,,,,,,,,,,,,,,,,,,,,,,,,,,,,,,,,,,,,,,,,,,,,,,,,,,,,,,,,,,,,,,,,,,,,,,h,1405.1457941496801,None,1405.1457941496801,None,q,1,3.8878889026118486,1405.1457941496801,None,o,0,1.7268871911755923,1405.1457941496801,None,h,h,1409.1278845398137,None,1409.1278845398137,None,1411.11061844277,None,None,None,None,None,None,None,None,,,,,,,,,,,,,,,,,,5_6Exp,001,2021_Apr_26_1051,ComputerHuman,2020.1.3,60.030407428809234,
Computer.xlsx,c,Sychronize.jpg,Number6.jpg,6,Computer,,,,,0,8,8,7,0,0,0,0,,,,,,,,,,,,,,,,,,,,,,,,,1416.1298436289508,None,1416.1298436289508,None,1419.1924443382268,None,1419.1924443382268,None,1419.6426020886902,None,1419.6426020886902,None,v,4.990698577118565,1419.6426020886902,None,t,4.18976089617081,1419.6426020886902,None,4.990698577118565,4.18976089617081,5.635024443686027,False,False,False,1424.72467820349,None,1424.72467820349,None,1424.72467820349,None,1424.72467820349,None,1424.72467820349,None,1424.72467820349,None,1424.72467820349,None,1424.72467820349,None,1425.7243468232573,None,1425.7243468232573,None,1426.6909900184937,None,1426.6909900184937,None,c,,,,,,,,,,,,,,,,,,,,,,,,,,,,,,,,,,,,,,,,,,,,,,,5_6Exp,001,2021_Apr_26_1051,ComputerHuman,2020.1.3,60.030407428809234,
Computer.xlsx,c,Sychronize.jpg,Number9.jpg,9,Computer,,,,,0,8,8,7,0,1,1,6,,,,,,,,,,,,,,,,,,,,,,,,,,,,,1427.7575034525462,None,1427.7575034525462,None,1428.2078264119355,None,1428.2078264119355,None,v,7.7491987367129695,1428.2078264119355,None,t,6.436725462865979,1428.2078264119355,None,7.7491987367129695,6.436725462865979,8.38096626469868,False,False,False,1436.0407892816302,None,1436.0407892816302,None,1436.0407892816302,None,1436.0407892816302,None,1436.0407892816302,None,1436.0407892816302,None,1436.0407892816302,None,1436.0407892816302,None,1437.0556070786415,None,1437.0556070786415,None,1438.0388353251974,None,1438.0388353251974,None,c,,,,,,,,,,,,,,,,,,,,,,,,,,,,,,,,,,,,,,,,,,,,,,,5_6Exp,001,2021_Apr_26_1051,ComputerHuman,2020.1.3,60.030407428809234,
Computer.xlsx,c,Sychronize.jpg,Number7.jpg,7,Computer,,,,,0,8,8,7,0,2,2,2,,,,,,,,,,,,,,,,,,,,,,,,,,,,,1439.0733094555644,None,1439.0733094555644,None,1439.538834202418,None,1439.538834202418,None,v,6.365913709613778,1439.538834202418,None,t,5.021244905389722,1439.538834202418,None,6.365913709613778,5.021244905389722,7.028409310595493,False,False,False,1445.9556733226082,None,1445.9556733226082,None,1445.9556733226082,None,1445.9556733226082,None,1445.9556733226082,None,1445.9556733226082,None,1445.9556733226082,None,1445.9556733226082,None,1446.9703291186352,None,1446.9703291186352,None,1447.9701783454411,None,1447.9701783454411,None,c,,,,,,,,,,,,,,,,,,,,,,,,,,,,,,,,,,,,,,,,,,,,,,,5_6Exp,001,2021_Apr_26_1051,ComputerHuman,2020.1.3,60.030407428809234,
Computer.xlsx,c,Sychronize.jpg,Number8.jpg,8,Computer,,,,,0,8,8,7,0,3,3,4,,,,,,,,,,,,,,,,,,,,,,,,,,,,,1449.0202745034512,None,1449.0202745034512,None,1449.4703831724291,None,1449.4703831724291,None,v,7.2020607808444765,1449.4703831724291,None,t,6.685855710053147,1449.4703831724291,None,7.2020607808444765,6.685855710053147,8.294518463776173,False,False,False,1456.768465626118,None,1456.768465626118,None,1456.768465626118,None,1456.768465626118,None,1456.768465626118,None,1456.768465626118,None,1456.768465626118,None,1456.768465626118,None,1457.7514927348175,None,1457.7514927348175,None,1458.7347257932843,None,1458.7347257932843,None,c,,,,,,,,,,,,,,,,,,,,,,,,,,,,,,,,,,,,,,,,,,,,,,,5_6Exp,001,2021_Apr_26_1051,ComputerHuman,2020.1.3,60.030407428809234,
Computer.xlsx,c,Sychronize.jpg,Number8.jpg,8,Computer,,,,,0,8,8,7,0,4,4,5,,,,,,,,,,,,,,,,,,,,,,,,,,,,,1459.7849836314854,None,1459.7849836314854,None,1460.2350015157526,None,1460.2350015157526,None,v,7.953337942073631,1460.2350015157526,None,t,7.54864921654098,1460.2350015157526,None,7.953337942073631,7.54864921654098,7.796532577941277,False,True,True,1468.2829172367447,None,1468.2829172367447,None,1468.2829172367447,None,1468.2829172367447,None,1468.2829172367447,None,1468.2829172367447,None,1468.2829172367447,None,1468.2829172367447,None,1469.282636862763,None,1469.282636862763,None,1470.2658898104592,None,1470.2658898104592,None,c,,,,,,,,,,,,,,,,,,,,,,,,,,,,,,,,,,,,,,,,,,,,,,,5_6Exp,001,2021_Apr_26_1051,ComputerHuman,2020.1.3,60.030407428809234,
Computer.xlsx,c,Sychronize.jpg,Number7.jpg,7,Computer,,,,,0,8,8,7,0,5,5,3,,,,,,,,,,,,,,,,,,,,,,,,,,,,,1471.3162060331733,None,1471.3162060331733,None,1471.7662142936197,None,1471.7662142936197,None,v,7.173747499811725,1471.7662142936197,None,t,5.444782204913281,1471.7662142936197,None,7.173747499811725,5.444782204913281,7.2237717408931355,False,True,False,1479.0158485082284,None,1479.0158485082284,None,1479.0158485082284,None,1479.0158485082284,None,1479.0158485082284,None,1479.0158485082284,None,1479.0158485082284,None,1479.0158485082284,None,1480.0139186113474,None,1480.0139186113474,None,1481.0137960680277,None,1481.0137960680277,None,c,,,,,,,,,,,,,,,,,,,,,,,,,,,,,,,,,,,,,,,,,,,,,,,5_6Exp,001,2021_Apr_26_1051,ComputerHuman,2020.1.3,60.030407428809234,
Computer.xlsx,c,Sychronize.jpg,Number9.jpg,9,Computer,,,,,0,8,8,7,0,6,6,7,,,,,,,,,,,,,,,,,,,,,,,,,,,,,1482.0637254131434,None,1482.0637254131434,None,1482.5139505303532,None,1482.5139505303532,None,v,9.053687126374825,1482.5139505303532,None,t,7.276714042598542,1482.5139505303532,None,9.053687126374825,7.276714042598542,9.553152659213621,False,False,False,1491.6465632533655,None,1491.6465632533655,None,1491.6465632533655,None,1491.6465632533655,None,1491.6465632533655,None,1491.6465632533655,None,1491.6465632533655,None,1491.6465632533655,None,1492.644782204914,None,1492.644782204914,None,1493.628048305165,None,1493.628048305165,None,c,,,,,,,,,,,,,,,,,,,,,,,,,,,,,,,,,,,,,,,,,,,,,,,5_6Exp,001,2021_Apr_26_1051,ComputerHuman,2020.1.3,60.030407428809234,
Computer.xlsx,c,Sychronize.jpg,Number10.jpg,10,Computer,,,,,0,8,8,7,0,7,7,8,,,,,,,,,,,,,,,,,,,,,,,,,,,,,1494.6783276365668,None,1494.6783276365668,None,1495.1281925020812,None,1495.1281925020812,None,v,10.043134285984706,1495.1281925020812,None,t,9.314628047342921,1495.1281925020812,None,10.043134285984706,9.314628047342921,9.772178693177871,False,True,False,1505.259025459819,None,1505.259025459819,None,1505.259025459819,None,1505.259025459819,None,1505.259025459819,None,1505.259025459819,None,1505.259025459819,None,1505.259025459819,None,1506.2589266552577,None,1506.2589266552577,None,1507.225323159886,None,1507.225323159886,None,c,,,,,,,,,,,,,,,,,,,,,,,,,,,,,,,,,,,,,,,,,,,,,,,5_6Exp,001,2021_Apr_26_1051,ComputerHuman,2020.1.3,60.030407428809234,
Computer.xlsx,c,Sychronize.jpg,Number10.jpg,10,Computer,,,,,0,8,8,7,0,8,8,9,,,,,,,,,,,,,,,,,,,,,,,,,,,,,1508.2751780807857,None,1508.2751780807857,None,1508.7254214832556,None,1508.7254214832556,None,v,10.681511196513384,1508.7254214832556,None,t,9.22081632456684,1508.7254214832556,None,10.681511196513384,9.22081632456684,10.555213299956261,False,True,False,1519.5063448247101,None,1519.5063448247101,None,1519.5063448247101,None,1519.5063448247101,None,1519.5063448247101,None,1519.5063448247101,None,1519.5063448247101,None,1519.5063448247101,None,1520.5061706335528,None,1520.5061706335528,None,1521.4894088247238,None,1521.4894088247238,None,c,,,,,,,,,,,,,,,,,,,,,,,,,,,,,,,,,,,,,,,,,,,,,,,5_6Exp,001,2021_Apr_26_1051,ComputerHuman,2020.1.3,60.030407428809234,
Computer.xlsx,c,Sychronize.jpg,Number6.jpg,6,Computer,,,,,0,8,8,7,0,9,9,1,,,,,,,,,,,,,,,,,,,,,,,,,,,,,1522.5229998091281,None,1522.5229998091281,None,1522.9891985442373,None,1522.9891985442373,None,v,5.517508456932774,1522.9891985442373,None,t,6.472743574896413,1522.9891985442373,None,5.517508456932774,6.472743574896413,6.155473753852946,False,False,False,1529.5544071485747,None,1529.5544071485747,None,1529.5544071485747,None,1529.5544071485747,None,1529.5544071485747,None,1529.5544071485747,None,1529.5544071485747,None,1529.5544071485747,None,1530.5375038695784,None,1530.5375038695784,None,1531.5373874213456,None,1531.5373874213456,None,c,,,,,,,,,,,,,,,,,,,,,,,,,,,,,,,,,,,,,,,,,,,,,,,5_6Exp,001,2021_Apr_26_1051,ComputerHuman,2020.1.3,60.030407428809234,
Computer.xlsx,c,,,,,,,,,0,8,8,7,,,,,,,,,,,,,,,,,,,,,,,,,,,,,,,,,,,,,,,,,,,,,,,,,,,,,,,,,,,,,,,,,,,,,,,,,,,,,,,c,1532.5374807724083,None,1532.5374807724083,None,a,1,2.9770420544937224,1532.5374807724083,None,l,0,2.6809196523236096,1532.5374807724083,None,c,c,1535.6037096621558,None,1535.6037096621558,None,1537.6027921912319,None,None,None,None,None,None,None,None,,,,,,,,,,,,,,,,,,5_6Exp,001,2021_Apr_26_1051,ComputerHuman,2020.1.3,60.030407428809234,
Computer.xlsx,c,Sychronize.jpg,Number9.jpg,9,Computer,,,,,0,9,9,9,0,0,0,6,,,,,,,,,,,,,,,,,,,,,,,,,1542.5874710683893,None,1542.5874710683893,None,1545.6687095899779,None,1545.6687095899779,None,1546.1014944189865,None,1546.1014944189865,None,v,8.448533891087209,1546.1014944189865,None,t,6.9676713401004235,1546.1014944189865,None,8.448533891087209,6.9676713401004235,8.86870670610789,False,False,False,1554.6494767047398,None,1554.6494767047398,None,1554.6494767047398,None,1554.6494767047398,None,1554.6494767047398,None,1554.6494767047398,None,1554.6494767047398,None,1554.6494767047398,None,1555.64923386366,None,1555.64923386366,None,1556.632479433093,None,1556.632479433093,None,c,,,,,,,,,,,,,,,,,,,,,,,,,,,,,,,,,,,,,,,,,,,,,,,5_6Exp,001,2021_Apr_26_1051,ComputerHuman,2020.1.3,60.030407428809234,
Computer.xlsx,c,Sychronize.jpg,Number6.jpg,6,Computer,,,,,0,9,9,9,0,1,1,0,,,,,,,,,,,,,,,,,,,,,,,,,,,,,1557.6990599130977,None,1557.6990599130977,None,1558.1326140061883,None,1558.1326140061883,None,v,5.437184839915972,1558.1326140061883,None,t,4.852909200853901,1558.1326140061883,None,5.437184839915972,4.852909200853901,5.622384645484412,False,True,False,1563.6327331811708,None,1563.6327331811708,None,1563.6327331811708,None,1563.6327331811708,None,1563.6327331811708,None,1563.6327331811708,None,1563.6327331811708,None,1563.6327331811708,None,1564.6642746125217,None,1564.6642746125217,None,1565.6474945184327,None,1565.6474945184327,None,c,,,,,,,,,,,,,,,,,,,,,,,,,,,,,,,,,,,,,,,,,,,,,,,5_6Exp,001,2021_Apr_26_1051,ComputerHuman,2020.1.3,60.030407428809234,
Computer.xlsx,c,Sychronize.jpg,Number10.jpg,10,Computer,,,,,0,9,9,9,0,2,2,9,,,,,,,,,,,,,,,,,,,,,,,,,,,,,1566.6975457652788,None,1566.6975457652788,None,1567.1477400862623,None,1567.1477400862623,None,v,10.389741006940312,1567.1477400862623,None,t,7.036891954967359,1567.1477400862623,None,10.389741006940312,7.036891954967359,10.175871647941939,False,True,False,1577.6283671744304,None,1577.6283671744304,None,1577.6283671744304,None,1577.6283671744304,None,1577.6283671744304,None,1577.6283671744304,None,1577.6283671744304,None,1577.6283671744304,None,1578.6115514722042,None,1578.6115514722042,None,1579.594689896432,None,1579.594689896432,None,c,,,,,,,,,,,,,,,,,,,,,,,,,,,,,,,,,,,,,,,,,,,,,,,5_6Exp,001,2021_Apr_26_1051,ComputerHuman,2020.1.3,60.030407428809234,
Computer.xlsx,c,Sychronize.jpg,Number7.jpg,7,Computer,,,,,0,9,9,9,0,3,3,3,,,,,,,,,,,,,,,,,,,,,,,,,,,,,1580.6618522968056,None,1580.6618522968056,None,1581.1114204278438,None,1581.1114204278438,None,v,6.901790511875333,1581.1114204278438,None,t,7.021151554326934,1581.1114204278438,None,6.901790511875333,7.021151554326934,7.069020162277915,False,True,True,1588.2108219865813,None,1588.2108219865813,None,1588.2108219865813,None,1588.2108219865813,None,1588.2108219865813,None,1588.2108219865813,None,1588.2108219865813,None,1588.2108219865813,None,1589.226140863867,None,1589.226140863867,None,1590.1926419473484,None,1590.1926419473484,None,c,,,,,,,,,,,,,,,,,,,,,,,,,,,,,,,,,,,,,,,,,,,,,,,5_6Exp,001,2021_Apr_26_1051,ComputerHuman,2020.1.3,60.030407428809234,
Computer.xlsx,c,Sychronize.jpg,Number10.jpg,10,Computer,,,,,0,9,9,9,0,4,4,8,,,,,,,,,,,,,,,,,,,,,,,,,,,,,1591.2762559487246,None,1591.2762559487246,None,1591.6928381128973,None,1591.6928381128973,None,v,10.2521864519058,1591.6928381128973,None,t,10.259632081328164,1591.6928381128973,None,10.2521864519058,10.259632081328164,10.172611479945965,False,True,True,1602.0569377322754,None,1602.0569377322754,None,1602.0569377322754,None,1602.0569377322754,None,1602.0569377322754,None,1602.0569377322754,None,1602.0569377322754,None,1602.0569377322754,None,1603.0567151012192,None,1603.0567151012192,None,1604.0403289421984,None,1604.0403289421984,None,c,,,,,,,,,,,,,,,,,,,,,,,,,,,,,,,,,,,,,,,,,,,,,,,5_6Exp,001,2021_Apr_26_1051,ComputerHuman,2020.1.3,60.030407428809234,
Computer.xlsx,c,Sychronize.jpg,Number6.jpg,6,Computer,,,,,0,9,9,9,0,5,5,1,,,,,,,,,,,,,,,,,,,,,,,,,,,,,1605.0901383103464,None,1605.0901383103464,None,1605.5399816826612,None,1605.5399816826612,None,v,6.180608963305531,1605.5399816826612,None,t,6.715706236075675,1605.5399816826612,None,6.180608963305531,6.715706236075675,5.735235025439333,False,False,False,1612.3549948432365,None,1612.3549948432365,None,1612.3549948432365,None,1612.3549948432365,None,1612.3549948432365,None,1612.3549948432365,None,1612.3549948432365,None,1612.3549948432365,None,1613.3380710334222,None,1613.3380710334222,None,1614.3380402371959,None,1614.3380402371959,None,c,,,,,,,,,,,,,,,,,,,,,,,,,,,,,,,,,,,,,,,,,,,,,,,5_6Exp,001,2021_Apr_26_1051,ComputerHuman,2020.1.3,60.030407428809234,
Computer.xlsx,c,Sychronize.jpg,Number9.jpg,9,Computer,,,,,0,9,9,9,0,6,6,7,,,,,,,,,,,,,,,,,,,,,,,,,,,,,1615.3883279092415,None,1615.3883279092415,None,1615.8380429639446,None,1615.8380429639446,None,v,9.302327841874103,1615.8380429639446,None,t,8.569639732265387,1615.8380429639446,None,9.302327841874103,8.569639732265387,9.62547736333648,False,False,False,1625.235874396306,None,1625.235874396306,None,1625.235874396306,None,1625.235874396306,None,1625.235874396306,None,1625.235874396306,None,1625.235874396306,None,1625.235874396306,None,1626.2189929313035,None,1626.2189929313035,None,1627.2022625602895,None,1627.2022625602895,None,c,,,,,,,,,,,,,,,,,,,,,,,,,,,,,,,,,,,,,,,,,,,,,,,5_6Exp,001,2021_Apr_26_1051,ComputerHuman,2020.1.3,60.030407428809234,
Computer.xlsx,c,Sychronize.jpg,Number8.jpg,8,Computer,,,,,0,9,9,9,0,7,7,5,,,,,,,,,,,,,,,,,,,,,,,,,,,,,1628.2523041833147,None,1628.2523041833147,None,1628.7024285711996,None,1628.7024285711996,None,v,8.097620831081258,1628.7024285711996,None,t,9.012655003664804,1628.7024285711996,None,8.097620831081258,9.012655003664804,7.621604273273868,False,False,False,1637.784742394375,None,1637.784742394375,None,1637.784742394375,None,1637.784742394375,None,1637.784742394375,None,1637.784742394375,None,1637.784742394375,None,1637.784742394375,None,1638.7998813062095,None,1638.7998813062095,None,1639.766371482694,None,1639.766371482694,None,c,,,,,,,,,,,,,,,,,,,,,,,,,,,,,,,,,,,,,,,,,,,,,,,5_6Exp,001,2021_Apr_26_1051,ComputerHuman,2020.1.3,60.030407428809234,
Computer.xlsx,c,Sychronize.jpg,Number7.jpg,7,Computer,,,,,0,9,9,9,0,8,8,2,,,,,,,,,,,,,,,,,,,,,,,,,,,,,1640.8172487741658,None,1640.8172487741658,None,1641.2665865750914,None,1641.2665865750914,None,v,7.2731458506095805,1641.2665865750914,None,t,6.6887621039595615,1641.2665865750914,None,7.2731458506095805,6.6887621039595615,6.554507534214872,False,False,True,1648.6313572955787,None,1648.6313572955787,None,1648.6313572955787,None,1648.6313572955787,None,1648.6313572955787,None,1648.6313572955787,None,1648.6313572955787,None,1648.6313572955787,None,1649.6311308149934,None,1649.6311308149934,None,1650.6143119048274,None,1650.6143119048274,None,c,,,,,,,,,,,,,,,,,,,,,,,,,,,,,,,,,,,,,,,,,,,,,,,5_6Exp,001,2021_Apr_26_1051,ComputerHuman,2020.1.3,60.030407428809234,
Computer.xlsx,c,Sychronize.jpg,Number8.jpg,8,Computer,,,,,0,9,9,9,0,9,9,4,,,,,,,,,,,,,,,,,,,,,,,,,,,,,1651.6647166666935,None,1651.6647166666935,None,1652.114279023439,None,1652.114279023439,None,v,8.041178083994055,1652.114279023439,None,t,8.188725052249538,1652.114279023439,None,8.041178083994055,8.188725052249538,7.449785837003143,False,False,False,1660.3957212492369,None,1660.3957212492369,None,1660.3957212492369,None,1660.3957212492369,None,1660.3957212492369,None,1660.3957212492369,None,1660.3957212492369,None,1660.3957212492369,None,1661.378865768551,None,1661.378865768551,None,1662.3620051551607,None,1662.3620051551607,None,c,,,,,,,,,,,,,,,,,,,,,,,,,,,,,,,,,,,,,,,,,,,,,,,5_6Exp,001,2021_Apr_26_1051,ComputerHuman,2020.1.3,60.030407428809234,
Computer.xlsx,c,,,,,,,,,0,9,9,9,,,,,,,,,,,,,,,,,,,,,,,,,,,,,,,,,,,,,,,,,,,,,,,,,,,,,,,,,,,,,,,,,,,,,,,,,,,,,,,c,1663.362349367154,None,1663.362349367154,None,q,0,3.2689017456004876,1663.362349367154,None,l,0,2.8838026282655846,1663.362349367154,None,h,c,1666.7289335362893,None,1666.7289335362893,None,None,None,1668.7275265336766,None,1668.7275265336766,None,"['space', 'space']",1669.710647314233,None,"[70.19078647468177, 70.42725369835352]",,,,,,,,,,,,,,,,,5_6Exp,001,2021_Apr_26_1051,ComputerHuman,2020.1.3,60.030407428809234,
Computer.xlsx,c,Sychronize.jpg,Number6.jpg,6,Computer,,,,,1,0,10,9,0,0,0,0,,,,,,,,,,,,,,,,,,,,,,,,,1740.1997526678033,None,1740.1997526678033,None,1743.263475835388,None,1743.263475835388,None,1743.6965160164445,None,1743.6965160164445,None,v,4.912691092993555,1743.6965160164445,None,t,5.70768061104809,1743.6965160164445,None,4.912691092993555,5.70768061104809,6.3682065469033455,False,False,False,1749.4799405889462,None,1749.4799405889462,None,1749.4799405889462,None,1749.4799405889462,None,1749.4799405889462,None,1749.4799405889462,None,1749.4799405889462,None,1749.4799405889462,None,1750.494944767288,None,1750.494944767288,None,1751.4781290650626,None,1751.4781290650626,None,c,,,,,,,,,,,,,,,,,,,,,,,,,,,,,,,,,,,,,,,,,,,,,,,5_6Exp,001,2021_Apr_26_1051,ComputerHuman,2020.1.3,60.030407428809234,
Computer.xlsx,c,Sychronize.jpg,Number8.jpg,8,Computer,,,,,1,0,10,9,0,1,1,4,,,,,,,,,,,,,,,,,,,,,,,,,,,,,1752.5282820036155,None,1752.5282820036155,None,1752.9943764806658,None,1752.9943764806658,None,v,7.774596641607786,1752.9943764806658,None,t,6.9498932557862645,1752.9943764806658,None,7.774596641607786,6.9498932557862645,8.09042366183913,False,False,False,1760.8596465170594,None,1760.8596465170594,None,1760.8596465170594,None,1760.8596465170594,None,1760.8596465170594,None,1760.8596465170594,None,1760.8596465170594,None,1760.8596465170594,None,1761.842758956971,None,1761.842758956971,None,1762.8259352348941,None,1762.8259352348941,None,c,,,,,,,,,,,,,,,,,,,,,,,,,,,,,,,,,,,,,,,,,,,,,,,5_6Exp,001,2021_Apr_26_1051,ComputerHuman,2020.1.3,60.030407428809234,
Computer.xlsx,c,Sychronize.jpg,Number8.jpg,8,Computer,,,,,1,0,10,9,0,2,2,5,,,,,,,,,,,,,,,,,,,,,,,,,,,,,1763.8589025957053,None,1763.8589025957053,None,1764.3428540724008,None,1764.3428540724008,None,v,8.661751246685526,1764.3428540724008,None,t,6.648708723833806,1764.3428540724008,None,8.661751246685526,6.648708723833806,8.186352145726003,False,False,False,1773.0906996998974,None,1773.0906996998974,None,1773.0906996998974,None,1773.0906996998974,None,1773.0906996998974,None,1773.0906996998974,None,1773.0906996998974,None,1773.0906996998974,None,1774.090420929886,None,1774.090420929886,None,1775.0569034073142,None,1775.0569034073142,None,c,,,,,,,,,,,,,,,,,,,,,,,,,,,,,,,,,,,,,,,,,,,,,,,5_6Exp,001,2021_Apr_26_1051,ComputerHuman,2020.1.3,60.030407428809234,
Computer.xlsx,c,Sychronize.jpg,Number10.jpg,10,Computer,,,,,1,0,10,9,0,3,3,9,,,,,,,,,,,,,,,,,,,,,,,,,,,,,1776.1236462090974,None,1776.1236462090974,None,1776.556749586577,None,1776.556749586577,None,v,10.267504687602923,1776.556749586577,None,t,10.898575514112053,1776.556749586577,None,10.267504687602923,10.898575514112053,10.217273068983214,False,True,False,1787.5376568883303,None,1787.5376568883303,None,1787.5376568883303,None,1787.5376568883303,None,1787.5376568883303,None,1787.5376568883303,None,1787.5376568883303,None,1787.5376568883303,None,1788.5376110147845,None,1788.5376110147845,None,1789.5207811976206,None,1789.5207811976206,None,c,,,,,,,,,,,,,,,,,,,,,,,,,,,,,,,,,,,,,,,,,,,,,,,5_6Exp,001,2021_Apr_26_1051,ComputerHuman,2020.1.3,60.030407428809234,
Computer.xlsx,c,Sychronize.jpg,Number7.jpg,7,Computer,,,,,1,0,10,9,0,4,4,3,,,,,,,,,,,,,,,,,,,,,,,,,,,,,1790.5703419503961,None,1790.5703419503961,None,1791.0040862743463,None,1791.0040862743463,None,v,6.859890962109603,1791.0040862743463,None,t,6.798720031822086,1791.0040862743463,None,6.859890962109603,6.798720031822086,7.09769844619021,False,True,True,1797.9524589664343,None,1797.9524589664343,None,1797.9524589664343,None,1797.9524589664343,None,1797.9524589664343,None,1797.9524589664343,None,1797.9524589664343,None,1797.9524589664343,None,1798.9523569539324,None,1798.9523569539324,None,1799.9353975359818,None,1799.9353975359818,None,c,,,,,,,,,,,,,,,,,,,,,,,,,,,,,,,,,,,,,,,,,,,,,,,5_6Exp,001,2021_Apr_26_1051,ComputerHuman,2020.1.3,60.030407428809234,
Computer.xlsx,c,Sychronize.jpg,Number9.jpg,9,Computer,,,,,1,0,10,9,0,5,5,6,,,,,,,,,,,,,,,,,,,,,,,,,,,,,1801.0021801162238,None,1801.0021801162238,None,1801.4357088665865,None,1801.4357088665865,None,v,5.388247710733594,1801.4357088665865,None,t,9.04761994889759,1801.4357088665865,None,5.388247710733594,9.04761994889759,8.91787145341431,False,False,True,1810.5516614724775,None,1810.5516614724775,None,1810.5516614724775,None,1810.5516614724775,None,1810.5516614724775,None,1810.5516614724775,None,1810.5516614724775,None,1810.5516614724775,None,1811.5498027918711,None,1811.5498027918711,None,1812.5329755410594,None,1812.5329755410594,None,c,,,,,,,,,,,,,,,,,,,,,,,,,,,,,,,,,,,,,,,,,,,,,,,5_6Exp,001,2021_Apr_26_1051,ComputerHuman,2020.1.3,60.030407428809234,
Computer.xlsx,c,Sychronize.jpg,Number7.jpg,7,Computer,,,,,1,0,10,9,0,6,6,2,,,,,,,,,,,,,,,,,,,,,,,,,,,,,1813.6165314787168,None,1813.6165314787168,None,1814.049442379779,None,1814.049442379779,None,v,6.797988621435252,1814.049442379779,None,t,7.461715638548412,1814.049442379779,None,6.797988621435252,7.461715638548412,7.459699742213183,False,False,True,1821.5978968743439,None,1821.5978968743439,None,1821.5978968743439,None,1821.5978968743439,None,1821.5978968743439,None,1821.5978968743439,None,1821.5978968743439,None,1821.5978968743439,None,1822.5976569204095,None,1822.5976569204095,None,1823.564169231683,None,1823.564169231683,None,c,,,,,,,,,,,,,,,,,,,,,,,,,,,,,,,,,,,,,,,,,,,,,,,5_6Exp,001,2021_Apr_26_1051,ComputerHuman,2020.1.3,60.030407428809234,
Computer.xlsx,c,Sychronize.jpg,Number6.jpg,6,Computer,,,,,1,0,10,9,0,7,7,1,,,,,,,,,,,,,,,,,,,,,,,,,,,,,1824.6148431397396,None,1824.6148431397396,None,1825.0644558611475,None,1825.0644558611475,None,v,5.99071718317191,1825.0644558611475,None,t,6.581700946181627,1825.0644558611475,None,5.99071718317191,6.581700946181627,6.430819067828168,False,False,True,1831.7292145518595,None,1831.7292145518595,None,1831.7292145518595,None,1831.7292145518595,None,1831.7292145518595,None,1831.7292145518595,None,1831.7292145518595,None,1831.7292145518595,None,1832.7290637786655,None,1832.7290637786655,None,1833.712232036738,None,1833.712232036738,None,c,,,,,,,,,,,,,,,,,,,,,,,,,,,,,,,,,,,,,,,,,,,,,,,5_6Exp,001,2021_Apr_26_1051,ComputerHuman,2020.1.3,60.030407428809234,
Computer.xlsx,c,Sychronize.jpg,Number10.jpg,10,Computer,,,,,1,0,10,9,0,8,8,8,,,,,,,,,,,,,,,,,,,,,,,,,,,,,1834.7621475877095,None,1834.7621475877095,None,1835.2122090999646,None,1835.2122090999646,None,v,9.806616056062012,1835.2122090999646,None,t,10.161667038253654,1835.2122090999646,None,9.806616056062012,10.161667038253654,10.054221445177527,False,True,True,1845.4599150216618,None,1845.4599150216618,None,1845.4599150216618,None,1845.4599150216618,None,1845.4599150216618,None,1845.4599150216618,None,1845.4599150216618,None,1845.4599150216618,None,1846.4428372307138,None,1846.4428372307138,None,1847.4428754052033,None,1847.4428754052033,None,c,,,,,,,,,,,,,,,,,,,,,,,,,,,,,,,,,,,,,,,,,,,,,,,5_6Exp,001,2021_Apr_26_1051,ComputerHuman,2020.1.3,60.030407428809234,
Computer.xlsx,c,Sychronize.jpg,Number9.jpg,9,Computer,,,,,1,0,10,9,0,9,9,7,,,,,,,,,,,,,,,,,,,,,,,,,,,,,1848.4932840165984,None,1848.4932840165984,None,1848.9429615384006,None,1848.9429615384006,None,v,9.791532320799888,1848.9429615384006,None,t,9.450624184983099,1848.9429615384006,None,9.791532320799888,9.450624184983099,9.149605524742729,False,False,False,1858.8238638678458,None,1858.8238638678458,None,1858.8238638678458,None,1858.8238638678458,None,1858.8238638678458,None,1858.8238638678458,None,1858.8238638678458,None,1858.8238638678458,None,1859.8071043045748,None,1859.8071043045748,None,1860.7903594978297,None,1860.7903594978297,None,c,,,,,,,,,,,,,,,,,,,,,,,,,,,,,,,,,,,,,,,,,,,,,,,5_6Exp,001,2021_Apr_26_1051,ComputerHuman,2020.1.3,60.030407428809234,
Computer.xlsx,c,,,,,,,,,1,0,10,9,,,,,,,,,,,,,,,,,,,,,,,,,,,,,,,,,,,,,,,,,,,,,,,,,,,,,,,,,,,,,,,,,,,,,,,,,,,,,,,c,1861.7906074716138,None,1861.7906074716138,None,a,0,2.4877336383015063,1861.7906074716138,None,o,0,3.12684452557005,1861.7906074716138,None,c,h,1865.0062997531495,None,1865.0062997531495,None,1867.005753440917,None,None,None,None,None,None,None,None,,,,,,,,,,,,,,,,,,5_6Exp,001,2021_Apr_26_1051,ComputerHuman,2020.1.3,60.030407428809234,
Human.xlsx,h,Sychronize.jpg,Number7.jpg,7,Human,,,,,1,1,11,6,0,0,0,2,,,,,,,,,,,,,,,,,,,,,,,,,1872.0073583734466,None,1872.0073583734466,None,1875.0709692631208,None,1875.0709692631208,None,1875.5043052162719,None,1875.5043052162719,None,v,6.577602802456568,1875.5043052162719,None,t,6.468886668281812,1875.5043052162719,None,6.577602802456568,6.468886668281812,7.411291162105584,True,False,False,1882.1694995452744,None,1882.1694995452744,None,1882.1694995452744,None,1882.1694995452744,None,1882.1694995452744,None,1882.1694995452744,None,1882.1694995452744,None,1882.1694995452744,None,1883.171368170496,None,1883.171368170496,None,1884.16838221967,None,1884.16838221967,None,h,,,,,,,,,,,,,,,,,,,,,,,,,,,,,,,,,,,,,,,,,,,,,,,5_6Exp,001,2021_Apr_26_1051,ComputerHuman,2020.1.3,60.030407428809234,
Human.xlsx,h,Sychronize.jpg,Number9.jpg,9,Human,,,,,1,1,11,6,0,1,1,7,,,,,,,,,,,,,,,,,,,,,,,,,,,,,1885.2191629521394,None,1885.2191629521394,None,1885.669149719386,None,1885.669149719386,None,v,8.648454975756067,1885.669149719386,None,t,8.10402163434901,1885.669149719386,None,8.648454975756067,8.10402163434901,8.691408213849828,False,False,False,1894.4170822820652,None,1894.4170822820652,None,1894.4170822820652,None,1894.4170822820652,None,1894.4170822820652,None,1894.4170822820652,None,1894.4170822820652,None,1894.4170822820652,None,1895.3863646497812,None,1895.3863646497812,None,1896.3834261764723,None,1896.3834261764723,None,h,,,,,,,,,,,,,,,,,,,,,,,,,,,,,,,,,,,,,,,,,,,,,,,5_6Exp,001,2021_Apr_26_1051,ComputerHuman,2020.1.3,60.030407428809234,
Human.xlsx,h,Sychronize.jpg,Number6.jpg,6,Human,,,,,1,1,11,6,0,2,2,1,,,,,,,,,,,,,,,,,,,,,,,,,,,,,1897.4502658580523,None,1897.4502658580523,None,1897.900221187484,None,1897.900221187484,None,v,5.8851210917264325,1897.900221187484,None,t,5.632708800823821,1897.900221187484,None,5.8851210917264325,5.632708800823821,6.432754742984377,True,False,False,1903.8665461550436,None,1903.8665461550436,None,1903.8665461550436,None,1903.8665461550436,None,1903.8665461550436,None,1903.8665461550436,None,1903.8665461550436,None,1903.8665461550436,None,1904.868051320629,None,1904.868051320629,None,1905.8649187669325,None,1905.8649187669325,None,h,,,,,,,,,,,,,,,,,,,,,,,,,,,,,,,,,,,,,,,,,,,,,,,5_6Exp,001,2021_Apr_26_1051,ComputerHuman,2020.1.3,60.030407428809234,
Human.xlsx,h,Sychronize.jpg,Number10.jpg,10,Human,,,,,1,1,11,6,0,3,3,9,,,,,,,,,,,,,,,,,,,,,,,,,,,,,1906.914941142316,None,1906.914941142316,None,1907.364806970213,None,1907.364806970213,None,v,10.416196569749445,1907.364806970213,None,t,9.727662229550333,1907.364806970213,None,10.416196569749445,9.727662229550333,9.260968781599539,False,False,False,1917.8792752621293,None,1917.8792752621293,None,1917.8792752621293,None,1917.8792752621293,None,1917.8792752621293,None,1917.8792752621293,None,1917.8792752621293,None,1917.8792752621293,None,1918.8647185914579,None,1918.8647185914579,None,1919.8622391744047,None,1919.8622391744047,None,h,,,,,,,,,,,,,,,,,,,,,,,,,,,,,,,,,,,,,,,,,,,,,,,5_6Exp,001,2021_Apr_26_1051,ComputerHuman,2020.1.3,60.030407428809234,
Human.xlsx,h,Sychronize.jpg,Number9.jpg,9,Human,,,,,1,1,11,6,0,4,4,6,,,,,,,,,,,,,,,,,,,,,,,,,,,,,1920.9119545499025,None,1920.9119545499025,None,1921.3621764591726,None,1921.3621764591726,None,v,8.946542882943504,1921.3621764591726,None,t,9.005644370947266,1921.3621764591726,None,8.946542882943504,9.005644370947266,9.186754893794788,True,False,False,1930.4600715691486,None,1930.4600715691486,None,1930.4600715691486,None,1930.4600715691486,None,1930.4600715691486,None,1930.4600715691486,None,1930.4600715691486,None,1930.4600715691486,None,1931.4464413516343,None,1931.4464413516343,None,1932.4430540874773,None,1932.4430540874773,None,h,,,,,,,,,,,,,,,,,,,,,,,,,,,,,,,,,,,,,,,,,,,,,,,5_6Exp,001,2021_Apr_26_1051,ComputerHuman,2020.1.3,60.030407428809234,
Human.xlsx,h,Sychronize.jpg,Number6.jpg,6,Human,,,,,1,1,11,6,0,5,5,0,,,,,,,,,,,,,,,,,,,,,,,,,,,,,1933.4933680646336,None,1933.4933680646336,None,1933.9433403961493,None,1933.9433403961493,None,v,6.521443637291668,1933.9433403961493,None,t,6.424746051426155,1933.9433403961493,None,6.521443637291668,6.424746051426155,5.726845702176412,True,False,False,1940.5581976508256,None,1940.5581976508256,None,1940.5581976508256,None,1940.5581976508256,None,1940.5581976508256,None,1940.5581976508256,None,1940.5581976508256,None,1940.5581976508256,None,1941.5268592820958,None,1941.5268592820958,None,1942.5245014459797,None,1942.5245014459797,None,h,,,,,,,,,,,,,,,,,,,,,,,,,,,,,,,,,,,,,,,,,,,,,,,5_6Exp,001,2021_Apr_26_1051,ComputerHuman,2020.1.3,60.030407428809234,
Human.xlsx,h,Sychronize.jpg,Number10.jpg,10,Human,,,,,1,1,11,6,0,6,6,8,,,,,,,,,,,,,,,,,,,,,,,,,,,,,1943.5745135559537,None,1943.5745135559537,None,1944.0246042604658,None,1944.0246042604658,None,v,10.435639895870736,1944.0246042604658,None,t,8.994672573553544,1944.0246042604658,None,10.435639895870736,8.994672573553544,10.628495804482334,False,False,False,1954.5555004146263,None,1954.5555004146263,None,1954.5555004146263,None,1954.5555004146263,None,1954.5555004146263,None,1954.5555004146263,None,1954.5555004146263,None,1954.5555004146263,None,1955.5408484681284,None,1955.5408484681284,None,1956.5218163999534,None,1956.5218163999534,None,h,,,,,,,,,,,,,,,,,,,,,,,,,,,,,,,,,,,,,,,,,,,,,,,5_6Exp,001,2021_Apr_26_1051,ComputerHuman,2020.1.3,60.030407428809234,
Human.xlsx,h,Sychronize.jpg,Number7.jpg,7,Human,,,,,1,1,11,6,0,7,7,3,,,,,,,,,,,,,,,,,,,,,,,,,,,,,1957.5882342373852,None,1957.5882342373852,None,1958.0220943679797,None,1958.0220943679797,None,v,6.789764745698449,1958.0220943679797,None,t,6.640768109224155,1958.0220943679797,None,6.789764745698449,6.640768109224155,6.756649396894638,True,False,False,1964.9034621695628,None,1964.9034621695628,None,1964.9034621695628,None,1964.9034621695628,None,1964.9034621695628,None,1964.9034621695628,None,1964.9034621695628,None,1964.9034621695628,None,1965.8895855822338,None,1965.8895855822338,None,1966.886467143474,None,1966.886467143474,None,h,,,,,,,,,,,,,,,,,,,,,,,,,,,,,,,,,,,,,,,,,,,,,,,5_6Exp,001,2021_Apr_26_1051,ComputerHuman,2020.1.3,60.030407428809234,
Human.xlsx,h,Sychronize.jpg,Number8.jpg,8,Human,,,,,1,1,11,6,0,8,8,4,,,,,,,,,,,,,,,,,,,,,,,,,,,,,1967.9367374926424,None,1967.9367374926424,None,1968.386534670617,None,1968.386534670617,None,v,7.957061398373298,1968.386534670617,None,t,7.984661875072561,1968.386534670617,None,7.957061398373298,7.984661875072561,8.557665069382885,True,False,False,1976.4680195620203,None,1976.4680195620203,None,1976.4680195620203,None,1976.4680195620203,None,1976.4680195620203,None,1976.4680195620203,None,1976.4680195620203,None,1976.4680195620203,None,1977.4372910227403,None,1977.4372910227403,None,1978.4342072297359,None,1978.4342072297359,None,h,,,,,,,,,,,,,,,,,,,,,,,,,,,,,,,,,,,,,,,,,,,,,,,5_6Exp,001,2021_Apr_26_1051,ComputerHuman,2020.1.3,60.030407428809234,
Human.xlsx,h,Sychronize.jpg,Number8.jpg,8,Human,,,,,1,1,11,6,0,9,9,5,,,,,,,,,,,,,,,,,,,,,,,,,,,,,1979.5005150348143,None,1979.5005150348143,None,1979.9345159939885,None,1979.9345159939885,None,v,8.196773132858652,1979.9345159939885,None,t,9.879735601561151,1979.9345159939885,None,8.196773132858652,9.879735601561151,8.02569027958815,False,False,False,1989.8984532915874,None,1989.8984532915874,None,1989.8984532915874,None,1989.8984532915874,None,1989.8984532915874,None,1989.8984532915874,None,1989.8984532915874,None,1989.8984532915874,None,1990.86755537306,None,1990.86755537306,None,1991.8649537334813,None,1991.8649537334813,None,h,,,,,,,,,,,,,,,,,,,,,,,,,,,,,,,,,,,,,,,,,,,,,,,5_6Exp,001,2021_Apr_26_1051,ComputerHuman,2020.1.3,60.030407428809234,
Human.xlsx,h,,,,,,,,,1,1,11,6,,,,,,,,,,,,,,,,,,,,,,,,,,,,,,,,,,,,,,,,,,,,,,,,,,,,,,,,,,,,,,,,,,,,,,,,,,,,,,,h,1992.8654192056183,None,1992.8654192056183,None,q,0,2.36964326099951,1992.8654192056183,None,o,1,4.592832819795149,1992.8654192056183,None,h,h,1997.5648037622732,None,1997.5648037622732,None,1999.5467956686398,None,None,None,None,None,None,None,None,,,,,,,,,,,,,,,,,,5_6Exp,001,2021_Apr_26_1051,ComputerHuman,2020.1.3,60.030407428809234,
