Condition,CorrectTuringReply,Sychronize,NumberImage,Number,Partner,trials.thisRepN,trials.thisTrialN,trials.thisN,trials.thisIndex,Block.thisRepN,Block.thisTrialN,Block.thisN,Block.thisIndex,trials_loop.thisRepN,trials_loop.thisTrialN,trials_loop.thisN,trials_loop.thisIndex,key_resp_Istr.keys,key_resp_Istr.rt,key_resp_Istr.started,key_resp_Istr.stopped,key_respPrLeft.keys,key_respPrLeft.rt,key_respPrRight.keys,RTPrLeft,RTPrRight,CompPr,SychronizedRTsPr,SychronizedRTsLeftCPr,SychronizedRTsRightCPr,CreditLeftPr.started,CreditLeftPr.stopped,CreditRightPr.started,CreditRightPr.stopped,key_respPrRight.rt,text_StartExp.started,text_StartExp.stopped,key_startExp.keys,key_startExp.rt,key_startExp.started,key_startExp.stopped,SychroLeft.started,SychroLeft.stopped,SychroRight.started,SychroRight.stopped,NumberLeft.started,NumberLeft.stopped,NumberRight.started,NumberRight.stopped,CrossLeft.started,CrossLeft.stopped,CrossRight.started,CrossRight.stopped,key_respLeft.keys,key_respLeft.rt,key_respLeft.started,key_respLeft.stopped,key_respRight.keys,key_respRight.rt,key_respRight.started,key_respRight.stopped,RTLeft,RTRight,Comp,SychronizedRTs,SychronizedRTsLeftC,SychronizedRTsRightC,FeedbackLeftLeft.started,FeedbackLeftLeft.stopped,FeedbackLeftRight.started,FeedbackLeftRight.stopped,FeedbackRightLeft.started,FeedbackRightLeft.stopped,FeedbackRightRight.started,FeedbackRightRight.stopped,textLeftLeft.started,textLeftLeft.stopped,textLeftRight.started,textLeftRight.stopped,textRightLeft.started,textRightLeft.stopped,textRightRight.started,textRightRight.stopped,CreditLeft.started,CreditLeft.stopped,CreditRight.started,CreditRight.stopped,BlankLeft.started,BlankLeft.stopped,BlankRight.started,BlankRight.stopped,CorrectTuringReply,TuringtextLeft.started,TuringtextLeft.stopped,TuringtextRight.started,TuringtextRight.stopped,keyTuringLeft.keys,keyTuringLeft.corr,keyTuringLeft.rt,keyTuringLeft.started,keyTuringLeft.stopped,keyTuringRight.keys,keyTuringRight.corr,keyTuringRight.rt,keyTuringRight.started,keyTuringRight.stopped,RespTuringLeft,RespTuringRight,ScoreLeft.started,ScoreLeft.stopped,ScoreRight.started,ScoreRight.stopped,BlockText.started,BlockText.stopped,text_Pause.started,text_Pause.stopped,text_LongPause.started,text_LongPause.stopped,key_respPause.keys,key_respPause.started,key_respPause.stopped,key_respPause.rt,QuestImageLeft.started,QuestImageLeft.stopped,QuestImageRight.started,QuestImageRight.stopped,respQuestLeft.keys,respQuestLeft.rt,respQuestLeft.started,respQuestLeft.stopped,respQuestRight.keys,respQuestRight.rt,respQuestRight.started,respQuestRight.stopped,RespInclusionLeft,RespInclusionRight,EndText.started,EndText.stopped,participant,session,date,expName,psychopyVersion,frameRate,
,,,,,,,,,,,,,,,,,,"['v', 'v', 'v', 't']","[87.68713984855322, 416.0792085369708, 424.15890820960067, 425.8507929226421]",33.837143457486036,None,,,,,,,,,,,,,,,,,,,,,,,,,,,,,,,,,,,,,,,,,,,,,,,,,,,,,,,,,,,,,,,,,,,,,,,,,,,,,,,,,,,,,,,,,,,,,,,,,,,,,,,,,,,,,,,,,,,,,,61_62Exp,001,2021_May_21_1042,ComputerHuman,2020.1.3,60.05700788560534,
,,,,,,,,,,,,,,,,,,,,,,None,7.977233889322633,t,13,0.8804256295179584,7,False,False,False,533.9570424715257,None,533.9570424715257,None,0.8804256295179584,534.9568246523795,None,"['space', 'space']","[26.74920066147706, 26.9014318641498]",535.9400493702015,None,,,,,,,,,,,,,,,,,,,,,,,,,,,,,,,,,,,,,,,,,,,,,,,,,,,,,,,,,,,,,,,,,,,,,,,,,,,,,,,,,,,,,,,,,,,,,,,,,,61_62Exp,001,2021_May_21_1042,ComputerHuman,2020.1.3,60.05700788560534,
Computer.xlsx,c,Sychronize.jpg,Number10.jpg,10,Computer,,,,,0,0,0,7,0,0,0,8,,,,,,,,,,,,,,,,,,,,,,,,,562.920701319907,None,562.920701319907,None,565.9847735113954,None,565.9847735113954,None,566.4178412807382,None,566.4178412807382,None,v,8.251104413644498,566.4178412807382,None,t,3.730387054035873,566.4178412807382,None,8.251104413644498,3.730387054035873,10.746069069442203,False,False,False,574.751021167594,None,574.751021167594,None,574.751021167594,None,574.751021167594,None,574.751021167594,None,574.751021167594,None,574.751021167594,None,574.751021167594,None,575.7823200786588,None,575.7823200786588,None,576.7654244987193,None,576.7654244987193,None,c,,,,,,,,,,,,,,,,,,,,,,,,,,,,,,,,,,,,,,,,,,,,,,,61_62Exp,001,2021_May_21_1042,ComputerHuman,2020.1.3,60.05700788560534,
Computer.xlsx,c,Sychronize.jpg,Number10.jpg,10,Computer,,,,,0,0,0,7,0,1,1,9,,,,,,,,,,,,,,,,,,,,,,,,,,,,,577.7984816818589,None,577.7984816818589,None,578.2488681584659,None,578.2488681584659,None,v,9.551791714852243,578.2488681584659,None,t,3.5473692483637933,578.2488681584659,None,9.551791714852243,3.5473692483637933,9.7578517677402,False,True,False,587.896473030044,None,587.896473030044,None,587.896473030044,None,587.896473030044,None,587.896473030044,None,587.896473030044,None,587.896473030044,None,587.896473030044,None,588.8963787165994,None,588.8963787165994,None,589.8795873947197,None,589.8795873947197,None,c,,,,,,,,,,,,,,,,,,,,,,,,,,,,,,,,,,,,,,,,,,,,,,,61_62Exp,001,2021_May_21_1042,ComputerHuman,2020.1.3,60.05700788560534,
Computer.xlsx,c,Sychronize.jpg,Number8.jpg,8,Computer,,,,,0,0,0,7,0,2,2,5,,,,,,,,,,,,,,,,,,,,,,,,,,,,,590.9293399823246,None,590.9293399823246,None,591.3631333877615,None,591.3631333877615,None,v,8.001207789520322,591.3631333877615,None,t,3.0843781327544093,591.3631333877615,None,8.001207789520322,3.0843781327544093,8.341548712549823,False,False,False,599.4608979345676,None,599.4608979345676,None,599.4608979345676,None,599.4608979345676,None,599.4608979345676,None,599.4608979345676,None,599.4608979345676,None,599.4608979345676,None,600.4608446827588,None,600.4608446827588,None,601.4439776534882,None,601.4439776534882,None,c,,,,,,,,,,,,,,,,,,,,,,,,,,,,,,,,,,,,,,,,,,,,,,,61_62Exp,001,2021_May_21_1042,ComputerHuman,2020.1.3,60.05700788560534,
Computer.xlsx,c,Sychronize.jpg,Number9.jpg,9,Computer,,,,,0,0,0,7,0,3,3,7,,,,,,,,,,,,,,,,,,,,,,,,,,,,,602.4936619119644,None,602.4936619119644,None,602.9438905579091,None,602.9438905579091,None,v,9.300111796719193,602.9438905579091,None,t,3.371354055558186,602.9438905579091,None,9.300111796719193,3.371354055558186,8.33653708277139,False,False,False,612.3418689139357,None,612.3418689139357,None,612.3418689139357,None,612.3418689139357,None,612.3418689139357,None,612.3418689139357,None,612.3418689139357,None,612.3418689139357,None,613.3249775043187,None,613.3249775043187,None,614.3081489703313,None,614.3081489703313,None,c,,,,,,,,,,,,,,,,,,,,,,,,,,,,,,,,,,,,,,,,,,,,,,,61_62Exp,001,2021_May_21_1042,ComputerHuman,2020.1.3,60.05700788560534,
Computer.xlsx,c,Sychronize.jpg,Number7.jpg,7,Computer,,,,,0,0,0,7,0,4,4,2,,,,,,,,,,,,,,,,,,,,,,,,,,,,,615.3747467732132,None,615.3747467732132,None,615.8248435728115,None,615.8248435728115,None,v,7.454937581501781,615.8248435728115,None,t,3.6063311909638287,615.8248435728115,None,7.454937581501781,3.6063311909638287,6.707457307960619,False,False,False,623.358081844181,None,623.358081844181,None,623.358081844181,None,623.358081844181,None,623.358081844181,None,623.358081844181,None,623.358081844181,None,623.358081844181,None,624.3728277833293,None,624.3728277833293,None,625.3392826724712,None,625.3392826724712,None,c,,,,,,,,,,,,,,,,,,,,,,,,,,,,,,,,,,,,,,,,,,,,,,,61_62Exp,001,2021_May_21_1042,ComputerHuman,2020.1.3,60.05700788560534,
Computer.xlsx,c,Sychronize.jpg,Number9.jpg,9,Computer,,,,,0,0,0,7,0,5,5,6,,,,,,,,,,,,,,,,,,,,,,,,,,,,,626.3896877551315,None,626.3896877551315,None,626.8392420920263,None,626.8392420920263,None,v,7.97253008646976,626.8392420920263,None,t,3.259410733447112,626.8392420920263,None,7.97253008646976,3.259410733447112,9.016275381506507,False,False,False,634.904080339657,None,634.904080339657,None,634.904080339657,None,634.904080339657,None,634.904080339657,None,634.904080339657,None,634.904080339657,None,634.904080339657,None,635.9039545883975,None,635.9039545883975,None,636.8871129018548,None,636.8871129018548,None,c,,,,,,,,,,,,,,,,,,,,,,,,,,,,,,,,,,,,,,,,,,,,,,,61_62Exp,001,2021_May_21_1042,ComputerHuman,2020.1.3,60.05700788560534,
Computer.xlsx,c,Sychronize.jpg,Number8.jpg,8,Computer,,,,,0,0,0,7,0,6,6,4,,,,,,,,,,,,,,,,,,,,,,,,,,,,,637.9370159418595,None,637.9370159418595,None,638.3875964988542,None,638.3875964988542,None,v,10.295540161006556,638.3875964988542,None,t,3.3396673045122043,638.3875964988542,None,10.295540161006556,3.3396673045122043,8.383479976985203,False,False,False,648.7681259052406,None,648.7681259052406,None,648.7681259052406,None,648.7681259052406,None,648.7681259052406,None,648.7681259052406,None,648.7681259052406,None,648.7681259052406,None,649.7680065698619,None,649.7680065698619,None,650.7511132354807,None,650.7511132354807,None,c,,,,,,,,,,,,,,,,,,,,,,,,,,,,,,,,,,,,,,,,,,,,,,,61_62Exp,001,2021_May_21_1042,ComputerHuman,2020.1.3,60.05700788560534,
Computer.xlsx,c,Sychronize.jpg,Number6.jpg,6,Computer,,,,,0,0,0,7,0,7,7,1,,,,,,,,,,,,,,,,,,,,,,,,,,,,,651.8013765271803,None,651.8013765271803,None,652.2513000980025,None,652.2513000980025,None,v,6.731576558297093,652.2513000980025,None,t,2.6753160222183396,652.2513000980025,None,6.731576558297093,2.6753160222183396,5.93964097643364,False,False,False,659.0511082631733,None,659.0511082631733,None,659.0511082631733,None,659.0511082631733,None,659.0511082631733,None,659.0511082631733,None,659.0511082631733,None,659.0511082631733,None,660.0492069169609,None,660.0492069169609,None,661.032436125899,None,661.032436125899,None,c,,,,,,,,,,,,,,,,,,,,,,,,,,,,,,,,,,,,,,,,,,,,,,,61_62Exp,001,2021_May_21_1042,ComputerHuman,2020.1.3,60.05700788560534,
Computer.xlsx,c,Sychronize.jpg,Number6.jpg,6,Computer,,,,,0,0,0,7,0,8,8,0,,,,,,,,,,,,,,,,,,,,,,,,,,,,,662.0823118984113,None,662.0823118984113,None,662.5323637868455,None,662.5323637868455,None,v,6.254233438607116,662.5323637868455,None,t,3.509364458908749,662.5323637868455,None,6.254233438607116,3.509364458908749,5.721861203889197,False,False,False,668.8657916474858,None,668.8657916474858,None,668.8657916474858,None,668.8657916474858,None,668.8657916474858,None,668.8657916474858,None,668.8657916474858,None,668.8657916474858,None,669.8807817108909,None,669.8807817108909,None,670.8638931884202,None,670.8638931884202,None,c,,,,,,,,,,,,,,,,,,,,,,,,,,,,,,,,,,,,,,,,,,,,,,,61_62Exp,001,2021_May_21_1042,ComputerHuman,2020.1.3,60.05700788560534,
Computer.xlsx,c,Sychronize.jpg,Number7.jpg,7,Computer,,,,,0,0,0,7,0,9,9,3,,,,,,,,,,,,,,,,,,,,,,,,,,,,,671.9140628082632,None,671.9140628082632,None,672.3641304156049,None,672.3641304156049,None,v,7.254225097962262,672.3641304156049,None,t,2.809373280744694,672.3641304156049,None,7.254225097962262,2.809373280744694,6.712218218413925,False,False,False,679.7121855216033,None,679.7121855216033,None,679.7121855216033,None,679.7121855216033,None,679.7121855216033,None,679.7121855216033,None,679.7121855216033,None,679.7121855216033,None,680.6947003222376,None,680.6947003222376,None,681.6784825800823,None,681.6784825800823,None,c,,,,,,,,,,,,,,,,,,,,,,,,,,,,,,,,,,,,,,,,,,,,,,,61_62Exp,001,2021_May_21_1042,ComputerHuman,2020.1.3,60.05700788560534,
Computer.xlsx,c,,,,,,,,,0,0,0,7,,,,,,,,,,,,,,,,,,,,,,,,,,,,,,,,,,,,,,,,,,,,,,,,,,,,,,,,,,,,,,,,,,,,,,,,,,,,,,,c,682.6958227805467,None,682.6958227805467,None,q,0,42.10939044322504,682.6958227805467,None,o,0,108.49074621503132,682.6958227805467,None,h,h,791.2908007500164,None,791.2908007500164,None,793.2569723780302,None,None,None,None,None,None,None,None,,,,,,,,,,,,,,,,,,61_62Exp,001,2021_May_21_1042,ComputerHuman,2020.1.3,60.05700788560534,
Human.xlsx,h,Sychronize.jpg,Number9.jpg,9,Human,,,,,0,1,1,0,0,0,0,7,,,,,,,,,,,,,,,,,,,,,,,,,798.2762726300139,None,798.2762726300139,None,801.3055726734815,None,801.3055726734815,None,801.7888969978494,None,801.7888969978494,None,v,7.634204342588873,801.7888969978494,None,t,8.913255369691342,801.7888969978494,None,7.634204342588873,8.913255369691342,9.020213863896352,False,False,False,810.7720152120528,None,810.7720152120528,None,810.7720152120528,None,810.7720152120528,None,810.7720152120528,None,810.7720152120528,None,810.7720152120528,None,810.7720152120528,None,811.7720094377605,None,811.7720094377605,None,812.7697237803013,None,812.7697237803013,None,h,,,,,,,,,,,,,,,,,,,,,,,,,,,,,,,,,,,,,,,,,,,,,,,61_62Exp,001,2021_May_21_1042,ComputerHuman,2020.1.3,60.05700788560534,
Human.xlsx,h,Sychronize.jpg,Number10.jpg,10,Human,,,,,0,1,1,0,0,1,1,8,,,,,,,,,,,,,,,,,,,,,,,,,,,,,813.8367969999344,None,813.8367969999344,None,814.2697627567759,None,814.2697627567759,None,None,,814.2697627567759,None,None,,814.2697627567759,None,13,13,9.776911407580773,True,False,False,827.3350886113308,None,827.3350886113308,None,827.3350886113308,None,827.3350886113308,None,827.3350886113308,None,827.3350886113308,None,827.3350886113308,None,827.3350886113308,None,828.3355011524527,None,828.3355011524527,None,829.3331856611485,None,829.3331856611485,None,h,,,,,,,,,,,,,,,,,,,,,,,,,,,,,,,,,,,,,,,,,,,,,,,61_62Exp,001,2021_May_21_1042,ComputerHuman,2020.1.3,60.05700788560534,
Human.xlsx,h,Sychronize.jpg,Number10.jpg,10,Human,,,,,0,1,1,0,0,2,2,9,,,,,,,,,,,,,,,,,,,,,,,,,,,,,830.3831265548488,None,830.3831265548488,None,830.833166894698,None,830.833166894698,None,v,10.309158509141525,830.833166894698,None,t,10.260195716437465,830.833166894698,None,10.309158509141525,10.260195716437465,10.32631626070082,True,False,False,841.2158270150276,None,841.2158270150276,None,841.2158270150276,None,841.2158270150276,None,841.2158270150276,None,841.2158270150276,None,841.2158270150276,None,841.2158270150276,None,842.2166379823339,None,842.2166379823339,None,843.1971972225656,None,843.1971972225656,None,h,,,,,,,,,,,,,,,,,,,,,,,,,,,,,,,,,,,,,,,,,,,,,,,61_62Exp,001,2021_May_21_1042,ComputerHuman,2020.1.3,60.05700788560534,
Human.xlsx,h,Sychronize.jpg,Number7.jpg,7,Human,,,,,0,1,1,0,0,3,3,3,,,,,,,,,,,,,,,,,,,,,,,,,,,,,844.2644234609506,None,844.2644234609506,None,844.6974986085561,None,844.6974986085561,None,v,7.212570314041386,844.6974986085561,None,t,8.472273932437474,844.6974986085561,None,7.212570314041386,8.472273932437474,6.629044356443804,False,False,False,853.2618494096591,None,853.2618494096591,None,853.2618494096591,None,853.2618494096591,None,853.2618494096591,None,853.2618494096591,None,853.2618494096591,None,853.2618494096591,None,854.2469257506182,None,854.2469257506182,None,855.2448566291287,None,855.2448566291287,None,h,,,,,,,,,,,,,,,,,,,,,,,,,,,,,,,,,,,,,,,,,,,,,,,61_62Exp,001,2021_May_21_1042,ComputerHuman,2020.1.3,60.05700788560534,
Human.xlsx,h,Sychronize.jpg,Number9.jpg,9,Human,,,,,0,1,1,0,0,4,4,6,,,,,,,,,,,,,,,,,,,,,,,,,,,,,856.3115294978134,None,856.3115294978134,None,856.7449665010836,None,856.7449665010836,None,v,9.22477748924166,856.7449665010836,None,t,6.716239074958139,856.7449665010836,None,9.22477748924166,6.716239074958139,8.70963400785585,False,False,False,866.0593635767254,None,866.0593635767254,None,866.0593635767254,None,866.0593635767254,None,866.0593635767254,None,866.0593635767254,None,866.0593635767254,None,866.0593635767254,None,867.044521399368,None,867.044521399368,None,868.0423967805114,None,868.0423967805114,None,h,,,,,,,,,,,,,,,,,,,,,,,,,,,,,,,,,,,,,,,,,,,,,,,61_62Exp,001,2021_May_21_1042,ComputerHuman,2020.1.3,60.05700788560534,
Human.xlsx,h,Sychronize.jpg,Number8.jpg,8,Human,,,,,0,1,1,0,0,5,5,4,,,,,,,,,,,,,,,,,,,,,,,,,,,,,869.0921586711429,None,869.0921586711429,None,869.542218258634,None,869.542218258634,None,v,8.83938869489748,869.542218258634,None,t,5.8463678898010585,869.542218258634,None,8.83938869489748,5.8463678898010585,8.043314819182896,False,False,False,878.4737592087936,None,878.4737592087936,None,878.4737592087936,None,878.4737592087936,None,878.4737592087936,None,878.4737592087936,None,878.4737592087936,None,878.4737592087936,None,879.4420557764579,None,879.4420557764579,None,880.4399241001329,None,880.4399241001329,None,h,,,,,,,,,,,,,,,,,,,,,,,,,,,,,,,,,,,,,,,,,,,,,,,61_62Exp,001,2021_May_21_1042,ComputerHuman,2020.1.3,60.05700788560534,
Human.xlsx,h,Sychronize.jpg,Number6.jpg,6,Human,,,,,0,1,1,0,0,6,6,1,,,,,,,,,,,,,,,,,,,,,,,,,,,,,881.5234986438436,None,881.5234986438436,None,881.9570649271077,None,881.9570649271077,None,v,8.61204485342114,881.9570649271077,None,t,5.891270392475235,881.9570649271077,None,8.61204485342114,5.891270392475235,6.210097138400894,False,False,False,890.6547787884574,None,890.6547787884574,None,890.6547787884574,None,890.6547787884574,None,890.6547787884574,None,890.6547787884574,None,890.6547787884574,None,890.6547787884574,None,891.640223400962,None,891.640223400962,None,892.6209789671398,None,892.6209789671398,None,h,,,,,,,,,,,,,,,,,,,,,,,,,,,,,,,,,,,,,,,,,,,,,,,61_62Exp,001,2021_May_21_1042,ComputerHuman,2020.1.3,60.05700788560534,
Human.xlsx,h,Sychronize.jpg,Number8.jpg,8,Human,,,,,0,1,1,0,0,7,7,5,,,,,,,,,,,,,,,,,,,,,,,,,,,,,893.6874025788634,None,893.6874025788634,None,894.1212094576499,None,894.1212094576499,None,v,8.223621347559401,894.1212094576499,None,t,6.959250176035766,894.1212094576499,None,8.223621347559401,6.959250176035766,7.498027018026665,False,False,False,902.43572105676,None,902.43572105676,None,902.43572105676,None,902.43572105676,None,902.43572105676,None,902.43572105676,None,902.43572105676,None,902.43572105676,None,903.4210588448527,None,903.4210588448527,None,904.4186557767789,None,904.4186557767789,None,h,,,,,,,,,,,,,,,,,,,,,,,,,,,,,,,,,,,,,,,,,,,,,,,61_62Exp,001,2021_May_21_1042,ComputerHuman,2020.1.3,60.05700788560534,
Human.xlsx,h,Sychronize.jpg,Number7.jpg,7,Human,,,,,0,1,1,0,0,8,8,2,,,,,,,,,,,,,,,,,,,,,,,,,,,,,905.4683887959477,None,905.4683887959477,None,905.9188137678384,None,905.9188137678384,None,v,6.421733474696339,905.9188137678384,None,t,7.281366197612442,905.9188137678384,None,6.421733474696339,7.281366197612442,7.15903335301445,False,False,False,913.2835722981526,None,913.2835722981526,None,913.2835722981526,None,913.2835722981526,None,913.2835722981526,None,913.2835722981526,None,913.2835722981526,None,913.2835722981526,None,914.2524523901561,None,914.2524523901561,None,915.2665955573239,None,915.2665955573239,None,h,,,,,,,,,,,,,,,,,,,,,,,,,,,,,,,,,,,,,,,,,,,,,,,61_62Exp,001,2021_May_21_1042,ComputerHuman,2020.1.3,60.05700788560534,
Human.xlsx,h,Sychronize.jpg,Number6.jpg,6,Human,,,,,0,1,1,0,0,9,9,0,,,,,,,,,,,,,,,,,,,,,,,,,,,,,916.316865585698,None,916.316865585698,None,916.766841766741,None,916.766841766741,None,v,6.001444856308353,916.766841766741,None,t,5.856224927941639,916.766841766741,None,6.001444856308353,5.856224927941639,5.965537630663351,True,False,False,922.8650551043947,None,922.8650551043947,None,922.8650551043947,None,922.8650551043947,None,922.8650551043947,None,922.8650551043947,None,922.8650551043947,None,922.8650551043947,None,923.850487205932,None,923.850487205932,None,924.8314176048557,None,924.8314176048557,None,h,,,,,,,,,,,,,,,,,,,,,,,,,,,,,,,,,,,,,,,,,,,,,,,61_62Exp,001,2021_May_21_1042,ComputerHuman,2020.1.3,60.05700788560534,
Human.xlsx,h,,,,,,,,,0,1,1,0,,,,,,,,,,,,,,,,,,,,,,,,,,,,,,,,,,,,,,,,,,,,,,,,,,,,,,,,,,,,,,,,,,,,,,,,,,,,,,,h,925.8315831345749,None,925.8315831345749,None,q,0,5.064548891416052,925.8315831345749,None,o,1,19.294941559347535,925.8315831345749,None,h,h,945.211234848497,None,945.211234848497,None,947.1937464411913,None,None,None,None,None,None,None,None,,,,,,,,,,,,,,,,,,61_62Exp,001,2021_May_21_1042,ComputerHuman,2020.1.3,60.05700788560534,
Computer.xlsx,c,Sychronize.jpg,Number8.jpg,8,Computer,,,,,0,2,2,1,0,0,0,4,,,,,,,,,,,,,,,,,,,,,,,,,952.2122687676538,None,952.2122687676538,None,955.2923726407607,None,955.2923726407607,None,955.7256386608133,None,955.7256386608133,None,v,8.057644441521461,955.7256386608133,None,t,6.501325039738276,955.7256386608133,None,8.057644441521461,6.501325039738276,8.541665266731524,False,False,False,963.8579017183333,None,963.8579017183333,None,963.8579017183333,None,963.8579017183333,None,963.8579017183333,None,963.8579017183333,None,963.8579017183333,None,963.8579017183333,None,964.8736408357968,None,964.8736408357968,None,965.8734464346153,None,965.8734464346153,None,c,,,,,,,,,,,,,,,,,,,,,,,,,,,,,,,,,,,,,,,,,,,,,,,61_62Exp,001,2021_May_21_1042,ComputerHuman,2020.1.3,60.05700788560534,
Computer.xlsx,c,Sychronize.jpg,Number7.jpg,7,Computer,,,,,0,2,2,1,0,1,1,3,,,,,,,,,,,,,,,,,,,,,,,,,,,,,966.9402370347084,None,966.9402370347084,None,967.3737388383729,None,967.3737388383729,None,v,6.83728492765249,967.3737388383729,None,t,6.900218941925232,967.3737388383729,None,6.83728492765249,6.900218941925232,7.378226173725164,False,False,False,974.3717624263577,None,974.3717624263577,None,974.3717624263577,None,974.3717624263577,None,974.3717624263577,None,974.3717624263577,None,974.3717624263577,None,974.3717624263577,None,975.3548440700424,None,975.3548440700424,None,976.3381493071652,None,976.3381493071652,None,c,,,,,,,,,,,,,,,,,,,,,,,,,,,,,,,,,,,,,,,,,,,,,,,61_62Exp,001,2021_May_21_1042,ComputerHuman,2020.1.3,60.05700788560534,
Computer.xlsx,c,Sychronize.jpg,Number8.jpg,8,Computer,,,,,0,2,2,1,0,2,2,5,,,,,,,,,,,,,,,,,,,,,,,,,,,,,977.3889175286672,None,977.3889175286672,None,977.8384471644217,None,977.8384471644217,None,v,7.9886188694258635,977.8384471644217,None,t,6.427290268873094,977.8384471644217,None,7.9886188694258635,6.427290268873094,8.041270532872062,False,True,False,985.9196273014968,None,985.9196273014968,None,985.9196273014968,None,985.9196273014968,None,985.9196273014968,None,985.9196273014968,None,985.9196273014968,None,985.9196273014968,None,986.9192583883632,None,986.9192583883632,None,987.9026258595277,None,987.9026258595277,None,c,,,,,,,,,,,,,,,,,,,,,,,,,,,,,,,,,,,,,,,,,,,,,,,61_62Exp,001,2021_May_21_1042,ComputerHuman,2020.1.3,60.05700788560534,
Computer.xlsx,c,Sychronize.jpg,Number10.jpg,10,Computer,,,,,0,2,2,1,0,3,3,9,,,,,,,,,,,,,,,,,,,,,,,,,,,,,988.9530588512689,None,988.9530588512689,None,989.4023677807309,None,989.4023677807309,None,v,10.436022282353406,989.4023677807309,None,t,7.503277392201198,989.4023677807309,None,10.436022282353406,7.503277392201198,10.734320784634136,False,True,False,999.9335125502644,None,999.9335125502644,None,999.9335125502644,None,999.9335125502644,None,999.9335125502644,None,999.9335125502644,None,999.9335125502644,None,999.9335125502644,None,1000.933264255686,None,1000.933264255686,None,1001.9164549693401,None,1001.9164549693401,None,c,,,,,,,,,,,,,,,,,,,,,,,,,,,,,,,,,,,,,,,,,,,,,,,61_62Exp,001,2021_May_21_1042,ComputerHuman,2020.1.3,60.05700788560534,
Computer.xlsx,c,Sychronize.jpg,Number10.jpg,10,Computer,,,,,0,2,2,1,0,4,4,8,,,,,,,,,,,,,,,,,,,,,,,,,,,,,1002.9500244605447,None,1002.9500244605447,None,1003.416791001086,None,1003.416791001086,None,v,10.11328584512421,1003.416791001086,None,t,8.428245593493102,1003.416791001086,None,10.11328584512421,8.428245593493102,9.83118759654255,False,True,False,1013.5825863377031,None,1013.5825863377031,None,1013.5825863377031,None,1013.5825863377031,None,1013.5825863377031,None,1013.5825863377031,None,1013.5825863377031,None,1013.5825863377031,None,1014.5974926738663,None,1014.5974926738663,None,1015.5971789373057,None,1015.5971789373057,None,c,,,,,,,,,,,,,,,,,,,,,,,,,,,,,,,,,,,,,,,,,,,,,,,61_62Exp,001,2021_May_21_1042,ComputerHuman,2020.1.3,60.05700788560534,
Computer.xlsx,c,Sychronize.jpg,Number6.jpg,6,Computer,,,,,0,2,2,1,0,5,5,1,,,,,,,,,,,,,,,,,,,,,,,,,,,,,1016.647413999131,None,1016.647413999131,None,1017.0975085531709,None,1017.0975085531709,None,v,6.444278237493563,1017.0975085531709,None,t,4.887329758618307,1017.0975085531709,None,6.444278237493563,4.887329758618307,5.6767376421894795,False,False,False,1023.6289532651222,None,1023.6289532651222,None,1023.6289532651222,None,1023.6289532651222,None,1023.6289532651222,None,1023.6289532651222,None,1023.6289532651222,None,1023.6289532651222,None,1024.628617072979,None,1024.628617072979,None,1025.5952599474222,None,1025.5952599474222,None,c,,,,,,,,,,,,,,,,,,,,,,,,,,,,,,,,,,,,,,,,,,,,,,,61_62Exp,001,2021_May_21_1042,ComputerHuman,2020.1.3,60.05700788560534,
Computer.xlsx,c,Sychronize.jpg,Number9.jpg,9,Computer,,,,,0,2,2,1,0,6,6,7,,,,,,,,,,,,,,,,,,,,,,,,,,,,,1026.6623434324642,None,1026.6623434324642,None,1027.095183117252,None,1027.095183117252,None,v,9.00629173329844,1027.095183117252,None,t,6.59735088290563,1027.095183117252,None,9.00629173329844,6.59735088290563,8.527749668465534,False,False,False,1036.1777118724267,None,1036.1777118724267,None,1036.1777118724267,None,1036.1777118724267,None,1036.1777118724267,None,1036.1777118724267,None,1036.1777118724267,None,1036.1777118724267,None,1037.1930188803326,None,1037.1930188803326,None,1038.176075822877,None,1038.176075822877,None,c,,,,,,,,,,,,,,,,,,,,,,,,,,,,,,,,,,,,,,,,,,,,,,,61_62Exp,001,2021_May_21_1042,ComputerHuman,2020.1.3,60.05700788560534,
Computer.xlsx,c,Sychronize.jpg,Number6.jpg,6,Computer,,,,,0,2,2,1,0,7,7,0,,,,,,,,,,,,,,,,,,,,,,,,,,,,,1039.2259483874486,None,1039.2259483874486,None,1039.676076945656,None,1039.676076945656,None,v,6.133149090629104,1039.676076945656,None,t,4.828327395970518,1039.676076945656,None,6.133149090629104,4.828327395970518,6.4201428093781665,False,True,False,1045.9079754207614,None,1045.9079754207614,None,1045.9079754207614,None,1045.9079754207614,None,1045.9079754207614,None,1045.9079754207614,None,1045.9079754207614,None,1045.9079754207614,None,1046.8911568313893,None,1046.8911568313893,None,1047.8742804990916,None,1047.8742804990916,None,c,,,,,,,,,,,,,,,,,,,,,,,,,,,,,,,,,,,,,,,,,,,,,,,61_62Exp,001,2021_May_21_1042,ComputerHuman,2020.1.3,60.05700788560534,
Computer.xlsx,c,Sychronize.jpg,Number9.jpg,9,Computer,,,,,0,2,2,1,0,8,8,6,,,,,,,,,,,,,,,,,,,,,,,,,,,,,1048.9407538338896,None,1048.9407538338896,None,1049.3909715728373,None,1049.3909715728373,None,v,9.74191992018632,1049.3909715728373,None,t,6.213276702494113,1049.3909715728373,None,9.74191992018632,6.213276702494113,9.460069422547662,False,True,False,1059.2220799322486,None,1059.2220799322486,None,1059.2220799322486,None,1059.2220799322486,None,1059.2220799322486,None,1059.2220799322486,None,1059.2220799322486,None,1059.2220799322486,None,1060.205249152703,None,1060.205249152703,None,1061.1883795570798,None,1061.1883795570798,None,c,,,,,,,,,,,,,,,,,,,,,,,,,,,,,,,,,,,,,,,,,,,,,,,61_62Exp,001,2021_May_21_1042,ComputerHuman,2020.1.3,60.05700788560534,
Computer.xlsx,c,Sychronize.jpg,Number7.jpg,7,Computer,,,,,0,2,2,1,0,9,9,2,,,,,,,,,,,,,,,,,,,,,,,,,,,,,1062.2552080108685,None,1062.2552080108685,None,1062.6882892535605,None,1062.6882892535605,None,v,8.028354984257021,1062.6882892535605,None,t,5.523327019037424,1062.6882892535605,None,8.028354984257021,5.523327019037424,7.128428754567618,False,False,False,1070.7877443849015,None,1070.7877443849015,None,1070.7877443849015,None,1070.7877443849015,None,1070.7877443849015,None,1070.7877443849015,None,1070.7877443849015,None,1070.7877443849015,None,1071.8030109727597,None,1071.8030109727597,None,1072.7861060897935,None,1072.7861060897935,None,c,,,,,,,,,,,,,,,,,,,,,,,,,,,,,,,,,,,,,,,,,,,,,,,61_62Exp,001,2021_May_21_1042,ComputerHuman,2020.1.3,60.05700788560534,
Computer.xlsx,c,,,,,,,,,0,2,2,1,,,,,,,,,,,,,,,,,,,,,,,,,,,,,,,,,,,,,,,,,,,,,,,,,,,,,,,,,,,,,,,,,,,,,,,,,,,,,,,c,1073.7867460738821,None,1073.7867460738821,None,a,1,3.069732281343022,1073.7867460738821,None,o,0,2.9493267335305973,1073.7867460738821,None,c,h,1076.9523668985476,None,1076.9523668985476,None,1078.934927251934,None,None,None,None,None,None,None,None,,,,,,,,,,,,,,,,,,61_62Exp,001,2021_May_21_1042,ComputerHuman,2020.1.3,60.05700788560534,
Computer.xlsx,c,Sychronize.jpg,Number6.jpg,6,Computer,,,,,0,3,3,9,0,0,0,0,,,,,,,,,,,,,,,,,,,,,,,,,1083.9542040859537,None,1083.9542040859537,None,1087.033672145294,None,1087.033672145294,None,1087.4667453681354,None,1087.4667453681354,None,v,6.313299639266916,1087.4667453681354,None,t,4.976305832195976,1087.4667453681354,None,6.313299639266916,4.976305832195976,6.362707936018946,False,True,False,1093.849362502065,None,1093.849362502065,None,1093.849362502065,None,1093.849362502065,None,1093.849362502065,None,1093.849362502065,None,1093.849362502065,None,1093.849362502065,None,1094.8818675986804,None,1094.8818675986804,None,1095.848345264198,None,1095.848345264198,None,c,,,,,,,,,,,,,,,,,,,,,,,,,,,,,,,,,,,,,,,,,,,,,,,61_62Exp,001,2021_May_21_1042,ComputerHuman,2020.1.3,60.05700788560534,
Computer.xlsx,c,Sychronize.jpg,Number7.jpg,7,Computer,,,,,0,3,3,9,0,1,1,2,,,,,,,,,,,,,,,,,,,,,,,,,,,,,1096.8983400512952,None,1096.8983400512952,None,1097.3486267609587,None,1097.3486267609587,None,v,7.375171183713974,1097.3486267609587,None,t,6.258301427693823,1097.3486267609587,None,7.375171183713974,6.258301427693823,7.163145092188672,False,True,False,1104.7981073152268,None,1104.7981073152268,None,1104.7981073152268,None,1104.7981073152268,None,1104.7981073152268,None,1104.7981073152268,None,1104.7981073152268,None,1104.7981073152268,None,1105.8131387610615,None,1105.8131387610615,None,1106.7962014778982,None,1106.7962014778982,None,c,,,,,,,,,,,,,,,,,,,,,,,,,,,,,,,,,,,,,,,,,,,,,,,61_62Exp,001,2021_May_21_1042,ComputerHuman,2020.1.3,60.05700788560534,
Computer.xlsx,c,Sychronize.jpg,Number9.jpg,9,Computer,,,,,0,3,3,9,0,2,2,7,,,,,,,,,,,,,,,,,,,,,,,,,,,,,1107.8464955658246,None,1107.8464955658246,None,1108.2797205242418,None,1108.2797205242418,None,v,7.799782180854436,1108.2797205242418,None,t,7.695240860177364,1108.2797205242418,None,7.799782180854436,7.695240860177364,9.2430847367185,False,False,False,1116.1777109100449,None,1116.1777109100449,None,1116.1777109100449,None,1116.1777109100449,None,1116.1777109100449,None,1116.1777109100449,None,1116.1777109100449,None,1116.1777109100449,None,1117.177531265388,None,1117.177531265388,None,1118.1607222998368,None,1118.1607222998368,None,c,,,,,,,,,,,,,,,,,,,,,,,,,,,,,,,,,,,,,,,,,,,,,,,61_62Exp,001,2021_May_21_1042,ComputerHuman,2020.1.3,60.05700788560534,
Computer.xlsx,c,Sychronize.jpg,Number10.jpg,10,Computer,,,,,0,3,3,9,0,3,3,8,,,,,,,,,,,,,,,,,,,,,,,,,,,,,1119.2109855915364,None,1119.2109855915364,None,1119.6609402793797,None,1119.6609402793797,None,v,10.334196162340959,1119.6609402793797,None,t,7.205290855926705,1119.6609402793797,None,10.334196162340959,7.205290855926705,9.943840224648248,False,False,False,1130.0748771759863,None,1130.0748771759863,None,1130.0748771759863,None,1130.0748771759863,None,1130.0748771759863,None,1130.0748771759863,None,1130.0748771759863,None,1130.0748771759863,None,1131.0747908823923,None,1131.0747908823923,None,1132.0746070674136,None,1132.0746070674136,None,c,,,,,,,,,,,,,,,,,,,,,,,,,,,,,,,,,,,,,,,,,,,,,,,61_62Exp,001,2021_May_21_1042,ComputerHuman,2020.1.3,60.05700788560534,
Computer.xlsx,c,Sychronize.jpg,Number8.jpg,8,Computer,,,,,0,3,3,9,0,4,4,5,,,,,,,,,,,,,,,,,,,,,,,,,,,,,1133.141845816766,None,1133.141845816766,None,1133.5744567754105,None,1133.5744567754105,None,v,7.972722883681854,1133.5744567754105,None,t,5.927279843067481,1133.5744567754105,None,7.972722883681854,5.927279843067481,8.319386304102771,False,False,False,1141.6243091299584,None,1141.6243091299584,None,1141.6243091299584,None,1141.6243091299584,None,1141.6243091299584,None,1141.6243091299584,None,1141.6243091299584,None,1141.6243091299584,None,1142.6225011348092,None,1142.6225011348092,None,1143.6057168703978,None,1143.6057168703978,None,c,,,,,,,,,,,,,,,,,,,,,,,,,,,,,,,,,,,,,,,,,,,,,,,61_62Exp,001,2021_May_21_1042,ComputerHuman,2020.1.3,60.05700788560534,
Computer.xlsx,c,Sychronize.jpg,Number6.jpg,6,Computer,,,,,0,3,3,9,0,5,5,1,,,,,,,,,,,,,,,,,,,,,,,,,,,,,1144.656107196533,None,1144.656107196533,None,1145.105643568962,None,1145.105643568962,None,v,7.636924034369713,1145.105643568962,None,t,5.09633444702331,1145.105643568962,None,7.636924034369713,5.09633444702331,6.25809092326282,False,False,False,1152.8373137991157,None,1152.8373137991157,None,1152.8373137991157,None,1152.8373137991157,None,1152.8373137991157,None,1152.8373137991157,None,1152.8373137991157,None,1152.8373137991157,None,1153.8370693540655,None,1153.8370693540655,None,1154.8203428325792,None,1154.8203428325792,None,c,,,,,,,,,,,,,,,,,,,,,,,,,,,,,,,,,,,,,,,,,,,,,,,61_62Exp,001,2021_May_21_1042,ComputerHuman,2020.1.3,60.05700788560534,
Computer.xlsx,c,Sychronize.jpg,Number8.jpg,8,Computer,,,,,0,3,3,9,0,6,6,4,,,,,,,,,,,,,,,,,,,,,,,,,,,,,1155.8706138233356,None,1155.8706138233356,None,1156.3201521205287,None,1156.3201521205287,None,v,8.49816008584412,1156.3201521205287,None,t,6.645068032394192,1156.3201521205287,None,8.49816008584412,6.645068032394192,7.504589837355375,False,False,False,1164.8696575363342,None,1164.8696575363342,None,1164.8696575363342,None,1164.8696575363342,None,1164.8696575363342,None,1164.8696575363342,None,1164.8696575363342,None,1164.8696575363342,None,1165.9013895193384,None,1165.9013895193384,None,1166.8845738171121,None,1166.8845738171121,None,c,,,,,,,,,,,,,,,,,,,,,,,,,,,,,,,,,,,,,,,,,,,,,,,61_62Exp,001,2021_May_21_1042,ComputerHuman,2020.1.3,60.05700788560534,
Computer.xlsx,c,Sychronize.jpg,Number7.jpg,7,Computer,,,,,0,3,3,9,0,7,7,3,,,,,,,,,,,,,,,,,,,,,,,,,,,,,1167.9349628600712,None,1167.9349628600712,None,1168.384822913676,None,1168.384822913676,None,v,7.297240369362044,1168.384822913676,None,t,5.668286141858516,1168.384822913676,None,7.297240369362044,5.668286141858516,7.2068126028070285,False,True,False,1175.7661851013631,None,1175.7661851013631,None,1175.7661851013631,None,1175.7661851013631,None,1175.7661851013631,None,1175.7661851013631,None,1175.7661851013631,None,1175.7661851013631,None,1176.7493065235071,None,1176.7493065235071,None,1177.7324670825228,None,1177.7324670825228,None,c,,,,,,,,,,,,,,,,,,,,,,,,,,,,,,,,,,,,,,,,,,,,,,,61_62Exp,001,2021_May_21_1042,ComputerHuman,2020.1.3,60.05700788560534,
Computer.xlsx,c,Sychronize.jpg,Number9.jpg,9,Computer,,,,,0,3,3,9,0,8,8,6,,,,,,,,,,,,,,,,,,,,,,,,,,,,,1178.7825805634106,None,1178.7825805634106,None,1179.2322474990096,None,1179.2322474990096,None,v,9.64542186820836,1179.2322474990096,None,t,7.521326226676138,1179.2322474990096,None,9.64542186820836,7.521326226676138,8.899579310089534,False,False,False,1188.963498772161,None,1188.963498772161,None,1188.963498772161,None,1188.963498772161,None,1188.963498772161,None,1188.963498772161,None,1188.963498772161,None,1188.963498772161,None,1189.9633993260118,None,1189.9633993260118,None,1190.929993118968,None,1190.929993118968,None,c,,,,,,,,,,,,,,,,,,,,,,,,,,,,,,,,,,,,,,,,,,,,,,,61_62Exp,001,2021_May_21_1042,ComputerHuman,2020.1.3,60.05700788560534,
Computer.xlsx,c,Sychronize.jpg,Number10.jpg,10,Computer,,,,,0,3,3,9,0,9,9,9,,,,,,,,,,,,,,,,,,,,,,,,,,,,,1191.9969996134432,None,1191.9969996134432,None,1192.4302043618368,None,1192.4302043618368,None,v,9.067190630247751,1192.4302043618368,None,t,7.4862775542019335,1192.4302043618368,None,9.067190630247751,7.4862775542019335,9.768050731860253,False,False,False,1201.5944948536621,None,1201.5944948536621,None,1201.5944948536621,None,1201.5944948536621,None,1201.5944948536621,None,1201.5944948536621,None,1201.5944948536621,None,1201.5944948536621,None,1202.5943363814113,None,1202.5943363814113,None,1203.5775258118897,None,1203.5775258118897,None,c,,,,,,,,,,,,,,,,,,,,,,,,,,,,,,,,,,,,,,,,,,,,,,,61_62Exp,001,2021_May_21_1042,ComputerHuman,2020.1.3,60.05700788560534,
Computer.xlsx,c,,,,,,,,,0,3,3,9,,,,,,,,,,,,,,,,,,,,,,,,,,,,,,,,,,,,,,,,,,,,,,,,,,,,,,,,,,,,,,,,,,,,,,,,,,,,,,,c,1204.5780243258114,None,1204.5780243258114,None,q,0,3.1751817699168896,1204.5780243258114,None,l,1,3.8144007647729268,1204.5780243258114,None,h,c,1208.4603371866046,None,1208.4603371866046,None,1210.459483232898,None,None,None,None,None,None,None,None,,,,,,,,,,,,,,,,,,61_62Exp,001,2021_May_21_1042,ComputerHuman,2020.1.3,60.05700788560534,
Human.xlsx,h,Sychronize.jpg,Number9.jpg,9,Human,,,,,0,4,4,6,0,0,0,7,,,,,,,,,,,,,,,,,,,,,,,,,1215.4775234059343,None,1215.4775234059343,None,1218.5584141867953,None,1218.5584141867953,None,1218.991646523475,None,1218.991646523475,None,v,9.58530827504228,1218.991646523475,None,t,6.996280714023214,1218.991646523475,None,9.58530827504228,6.996280714023214,8.887101271088268,False,False,False,1228.6725369835417,None,1228.6725369835417,None,1228.6725369835417,None,1228.6725369835417,None,1228.6725369835417,None,1228.6725369835417,None,1228.6725369835417,None,1228.6725369835417,None,1229.6574785910084,None,1229.6574785910084,None,1230.655583981471,None,1230.655583981471,None,h,,,,,,,,,,,,,,,,,,,,,,,,,,,,,,,,,,,,,,,,,,,,,,,61_62Exp,001,2021_May_21_1042,ComputerHuman,2020.1.3,60.05700788560534,
Human.xlsx,h,Sychronize.jpg,Number10.jpg,10,Human,,,,,0,4,4,6,0,1,1,9,,,,,,,,,,,,,,,,,,,,,,,,,,,,,1231.7221586871829,None,1231.7221586871829,None,1232.1722782631573,None,1232.1722782631573,None,v,10.020059571450929,1232.1722782631573,None,t,7.235242432067935,1232.1722782631573,None,10.020059571450929,7.235242432067935,10.56040713200321,False,False,False,1242.2717609827846,None,1242.2717609827846,None,1242.2717609827846,None,1242.2717609827846,None,1242.2717609827846,None,1242.2717609827846,None,1242.2717609827846,None,1242.2717609827846,None,1243.2552981539907,None,1243.2552981539907,None,1244.2529348643766,None,1244.2529348643766,None,h,,,,,,,,,,,,,,,,,,,,,,,,,,,,,,,,,,,,,,,,,,,,,,,61_62Exp,001,2021_May_21_1042,ComputerHuman,2020.1.3,60.05700788560534,
Human.xlsx,h,Sychronize.jpg,Number6.jpg,6,Human,,,,,0,4,4,6,0,2,2,1,,,,,,,,,,,,,,,,,,,,,,,,,,,,,1245.3027647633426,None,1245.3027647633426,None,1245.7529456109764,None,1245.7529456109764,None,v,6.451155740689046,1245.7529456109764,None,t,5.506337767241348,1245.7529456109764,None,6.451155740689046,5.506337767241348,6.063407406591551,False,False,False,1252.286459765211,None,1252.286459765211,None,1252.286459765211,None,1252.286459765211,None,1252.286459765211,None,1252.286459765211,None,1252.286459765211,None,1252.286459765211,None,1253.2873265506782,None,1253.2873265506782,None,1254.2843268057095,None,1254.2843268057095,None,h,,,,,,,,,,,,,,,,,,,,,,,,,,,,,,,,,,,,,,,,,,,,,,,61_62Exp,001,2021_May_21_1042,ComputerHuman,2020.1.3,60.05700788560534,
Human.xlsx,h,Sychronize.jpg,Number10.jpg,10,Human,,,,,0,4,4,6,0,3,3,8,,,,,,,,,,,,,,,,,,,,,,,,,,,,,1255.334498991905,None,1255.334498991905,None,1255.7845890548288,None,1255.7845890548288,None,v,10.687175777484299,1255.7845890548288,None,t,7.682261854542503,1255.7845890548288,None,10.687175777484299,7.682261854542503,10.741516669344678,False,False,False,1266.5653051633403,None,1266.5653051633403,None,1266.5653051633403,None,1266.5653051633403,None,1266.5653051633403,None,1266.5653051633403,None,1266.5653051633403,None,1266.5653051633403,None,1267.550428981816,None,1267.550428981816,None,1268.548260414177,None,1268.548260414177,None,h,,,,,,,,,,,,,,,,,,,,,,,,,,,,,,,,,,,,,,,,,,,,,,,61_62Exp,001,2021_May_21_1042,ComputerHuman,2020.1.3,60.05700788560534,
Human.xlsx,h,Sychronize.jpg,Number8.jpg,8,Human,,,,,0,4,4,6,0,4,4,5,,,,,,,,,,,,,,,,,,,,,,,,,,,,,1269.5983235304025,None,1269.5983235304025,None,1270.0482496675772,None,1270.0482496675772,None,v,8.771204244746514,1270.0482496675772,None,t,5.190355327506495,1270.0482496675772,None,8.771204244746514,5.190355327506495,7.892292040956424,False,False,False,1278.912915969608,None,1278.912915969608,None,1278.912915969608,None,1278.912915969608,None,1278.912915969608,None,1278.912915969608,None,1278.912915969608,None,1278.912915969608,None,1279.8813851244604,None,1279.8813851244604,None,1280.8791260929052,None,1280.8791260929052,None,h,,,,,,,,,,,,,,,,,,,,,,,,,,,,,,,,,,,,,,,,,,,,,,,61_62Exp,001,2021_May_21_1042,ComputerHuman,2020.1.3,60.05700788560534,
Human.xlsx,h,Sychronize.jpg,Number7.jpg,7,Human,,,,,0,4,4,6,0,5,5,3,,,,,,,,,,,,,,,,,,,,,,,,,,,,,1281.9461733282224,None,1281.9461733282224,None,1282.3957016808004,None,1282.3957016808004,None,v,9.52745531740129,1282.3957016808004,None,None,,1282.3957016808004,None,9.52745531740129,13,7.419321223094717,False,False,False,1295.4614487379163,None,1295.4614487379163,None,1295.4614487379163,None,1295.4614487379163,None,1295.4614487379163,None,1295.4614487379163,None,1295.4614487379163,None,1295.4614487379163,None,1296.4446493961855,None,1296.4446493961855,None,1297.4425716132573,None,1297.4425716132573,None,h,,,,,,,,,,,,,,,,,,,,,,,,,,,,,,,,,,,,,,,,,,,,,,,61_62Exp,001,2021_May_21_1042,ComputerHuman,2020.1.3,60.05700788560534,
Human.xlsx,h,Sychronize.jpg,Number7.jpg,7,Human,,,,,0,4,4,6,0,6,6,2,,,,,,,,,,,,,,,,,,,,,,,,,,,,,1298.5094032749862,None,1298.5094032749862,None,1298.9595539679817,None,1298.9595539679817,None,v,7.343205983450389,1298.9595539679817,None,t,5.51840988815502,1298.9595539679817,None,7.343205983450389,5.51840988815502,6.784981217567396,False,False,False,1306.390935323112,None,1306.390935323112,None,1306.390935323112,None,1306.390935323112,None,1306.390935323112,None,1306.390935323112,None,1306.390935323112,None,1306.390935323112,None,1307.3769185487922,None,1307.3769185487922,None,1308.3572384766776,None,1308.3572384766776,None,h,,,,,,,,,,,,,,,,,,,,,,,,,,,,,,,,,,,,,,,,,,,,,,,61_62Exp,001,2021_May_21_1042,ComputerHuman,2020.1.3,60.05700788560534,
Human.xlsx,h,Sychronize.jpg,Number6.jpg,6,Human,,,,,0,4,4,6,0,7,7,0,,,,,,,,,,,,,,,,,,,,,,,,,,,,,1309.4240447956786,None,1309.4240447956786,None,1309.857395826149,None,1309.857395826149,None,v,6.313124164933015,1309.857395826149,None,t,4.312347843382213,1309.857395826149,None,6.313124164933015,4.312347843382213,6.091578685009094,False,False,False,1316.2556651423606,None,1316.2556651423606,None,1316.2556651423606,None,1316.2556651423606,None,1316.2556651423606,None,1316.2556651423606,None,1316.2556651423606,None,1316.2556651423606,None,1317.2417308121062,None,1317.2417308121062,None,1318.238626488284,None,1318.238626488284,None,h,,,,,,,,,,,,,,,,,,,,,,,,,,,,,,,,,,,,,,,,,,,,,,,61_62Exp,001,2021_May_21_1042,ComputerHuman,2020.1.3,60.05700788560534,
Human.xlsx,h,Sychronize.jpg,Number8.jpg,8,Human,,,,,0,4,4,6,0,8,8,4,,,,,,,,,,,,,,,,,,,,,,,,,,,,,1319.288675168778,None,1319.288675168778,None,1319.7389743894087,None,1319.7389743894087,None,v,8.12724712207637,1319.7389743894087,None,t,6.394298527715819,1319.7389743894087,None,8.12724712207637,6.394298527715819,7.702418023984408,False,False,False,1327.9533533401877,None,1327.9533533401877,None,1327.9533533401877,None,1327.9533533401877,None,1327.9533533401877,None,1327.9533533401877,None,1327.9533533401877,None,1327.9533533401877,None,1328.922361429009,None,1328.922361429009,None,1329.919719369383,None,1329.919719369383,None,h,,,,,,,,,,,,,,,,,,,,,,,,,,,,,,,,,,,,,,,,,,,,,,,61_62Exp,001,2021_May_21_1042,ComputerHuman,2020.1.3,60.05700788560534,
Human.xlsx,h,Sychronize.jpg,Number9.jpg,9,Human,,,,,0,4,4,6,0,9,9,6,,,,,,,,,,,,,,,,,,,,,,,,,,,,,1331.0033542223714,None,1331.0033542223714,None,1331.4198058233742,None,1331.4198058233742,None,v,9.05010096992055,1331.4198058233742,None,t,6.665264582895361,1331.4198058233742,None,9.05010096992055,6.665264582895361,9.611665381449887,False,False,False,1340.5522145213836,None,1340.5522145213836,None,1340.5522145213836,None,1340.5522145213836,None,1340.5522145213836,None,1340.5522145213836,None,1340.5522145213836,None,1340.5522145213836,None,1341.5528788858182,None,1341.5528788858182,None,1342.5339074477147,None,1342.5339074477147,None,h,,,,,,,,,,,,,,,,,,,,,,,,,,,,,,,,,,,,,,,,,,,,,,,61_62Exp,001,2021_May_21_1042,ComputerHuman,2020.1.3,60.05700788560534,
Human.xlsx,h,,,,,,,,,0,4,4,6,,,,,,,,,,,,,,,,,,,,,,,,,,,,,,,,,,,,,,,,,,,,,,,,,,,,,,,,,,,,,,,,,,,,,,,,,,,,,,,h,1343.534498991905,None,1343.534498991905,None,q,1,3.235247885566423,1343.534498991905,None,o,0,2.7384771586634997,1343.534498991905,None,h,h,1346.8500621538433,None,1346.8500621538433,None,None,None,1348.866064643205,None,1348.866064643205,None,"['space', 'space']",1349.849155269122,None,"[3.1125050324567383, 30.207775084890272]",,,,,,,,,,,,,,,,,61_62Exp,001,2021_May_21_1042,ComputerHuman,2020.1.3,60.05700788560534,
Human.xlsx,h,Sychronize.jpg,Number7.jpg,7,Human,,,,,0,5,5,4,0,0,0,2,,,,,,,,,,,,,,,,,,,,,,,,,1380.0970629702642,None,1380.0970629702642,None,1383.1766192479627,None,1383.1766192479627,None,1383.626541856403,None,1383.626541856403,None,v,7.2300029031857775,1383.626541856403,None,t,5.1293162435658815,1383.626541856403,None,7.2300029031857775,5.1293162435658815,7.452888840697932,False,False,False,1390.926172141284,None,1390.926172141284,None,1390.926172141284,None,1390.926172141284,None,1390.926172141284,None,1390.926172141284,None,1390.926172141284,None,1390.926172141284,None,1391.9265439415644,None,1391.9265439415644,None,1392.907511873389,None,1392.907511873389,None,h,,,,,,,,,,,,,,,,,,,,,,,,,,,,,,,,,,,,,,,,,,,,,,,61_62Exp,001,2021_May_21_1042,ComputerHuman,2020.1.3,60.05700788560534,
Human.xlsx,h,Sychronize.jpg,Number7.jpg,7,Human,,,,,0,5,5,4,0,1,1,3,,,,,,,,,,,,,,,,,,,,,,,,,,,,,1393.9571313314718,None,1393.9571313314718,None,1394.407457819595,None,1394.407457819595,None,v,6.924944783327646,1394.407457819595,None,t,4.632307808287351,1394.407457819595,None,6.924944783327646,4.632307808287351,6.958151158708196,False,False,False,1401.4225338557999,None,1401.4225338557999,None,1401.4225338557999,None,1401.4225338557999,None,1401.4225338557999,None,1401.4225338557999,None,1401.4225338557999,None,1401.4225338557999,None,1402.4085850898146,None,1402.4085850898146,None,1403.4054762748756,None,1403.4054762748756,None,h,,,,,,,,,,,,,,,,,,,,,,,,,,,,,,,,,,,,,,,,,,,,,,,61_62Exp,001,2021_May_21_1042,ComputerHuman,2020.1.3,60.05700788560534,
Human.xlsx,h,Sychronize.jpg,Number10.jpg,10,Human,,,,,0,5,5,4,0,2,2,9,,,,,,,,,,,,,,,,,,,,,,,,,,,,,1404.4557742123307,None,1404.4557742123307,None,1404.905853047463,None,1404.905853047463,None,v,10.150201859642948,1404.905853047463,None,t,6.005289572750826,1404.905853047463,None,10.150201859642948,6.005289572750826,9.793433310433471,False,False,False,1415.1698472860026,None,1415.1698472860026,None,1415.1698472860026,None,1415.1698472860026,None,1415.1698472860026,None,1415.1698472860026,None,1415.1698472860026,None,1415.1698472860026,None,1416.1392980705846,None,1416.1392980705846,None,1417.136145306864,None,1417.136145306864,None,h,,,,,,,,,,,,,,,,,,,,,,,,,,,,,,,,,,,,,,,,,,,,,,,61_62Exp,001,2021_May_21_1042,ComputerHuman,2020.1.3,60.05700788560534,
Human.xlsx,h,Sychronize.jpg,Number8.jpg,8,Human,,,,,0,5,5,4,0,3,3,4,,,,,,,,,,,,,,,,,,,,,,,,,,,,,1418.1864291293814,None,1418.1864291293814,None,1418.6364142926573,None,1418.6364142926573,None,v,8.563284481749179,1418.6364142926573,None,t,5.118309158830016,1418.6364142926573,None,8.563284481749179,5.118309158830016,7.612608703653003,False,False,False,1427.2690932596365,None,1427.2690932596365,None,1427.2690932596365,None,1427.2690932596365,None,1427.2690932596365,None,1427.2690932596365,None,1427.2690932596365,None,1427.2690932596365,None,1428.2526730964487,None,1428.2526730964487,None,1429.250515756601,None,1429.250515756601,None,h,,,,,,,,,,,,,,,,,,,,,,,,,,,,,,,,,,,,,,,,,,,,,,,61_62Exp,001,2021_May_21_1042,ComputerHuman,2020.1.3,60.05700788560534,
Human.xlsx,h,Sychronize.jpg,Number10.jpg,10,Human,,,,,0,5,5,4,0,4,4,8,,,,,,,,,,,,,,,,,,,,,,,,,,,,,1430.3003649032084,None,1430.3003649032084,None,1430.7506990903885,None,1430.7506990903885,None,v,10.20488184353917,1430.7506990903885,None,t,5.528288740290009,1430.7506990903885,None,10.20488184353917,5.528288740290009,10.30192288906886,False,False,False,1441.048015487936,None,1441.048015487936,None,1441.048015487936,None,1441.048015487936,None,1441.048015487936,None,1441.048015487936,None,1441.048015487936,None,1441.048015487936,None,1442.016066648168,None,1442.016066648168,None,1443.014475188988,None,1443.014475188988,None,h,,,,,,,,,,,,,,,,,,,,,,,,,,,,,,,,,,,,,,,,,,,,,,,61_62Exp,001,2021_May_21_1042,ComputerHuman,2020.1.3,60.05700788560534,
Human.xlsx,h,Sychronize.jpg,Number9.jpg,9,Human,,,,,0,5,5,4,0,5,5,6,,,,,,,,,,,,,,,,,,,,,,,,,,,,,1444.0820273541071,None,1444.0820273541071,None,1444.5145844193548,None,1444.5145844193548,None,v,9.284502280043853,1444.5145844193548,None,t,5.600276845247208,1444.5145844193548,None,9.284502280043853,5.600276845247208,8.460020388580572,False,False,False,1453.880409269023,None,1453.880409269023,None,1453.880409269023,None,1453.880409269023,None,1453.880409269023,None,1453.880409269023,None,1453.880409269023,None,1453.880409269023,None,1454.881283111959,None,1454.881283111959,None,1455.8786134640463,None,1455.8786134640463,None,h,,,,,,,,,,,,,,,,,,,,,,,,,,,,,,,,,,,,,,,,,,,,,,,61_62Exp,001,2021_May_21_1042,ComputerHuman,2020.1.3,60.05700788560534,
Human.xlsx,h,Sychronize.jpg,Number6.jpg,6,Human,,,,,0,5,5,4,0,6,6,1,,,,,,,,,,,,,,,,,,,,,,,,,,,,,1456.928461327478,None,1456.928461327478,None,1457.378633192879,None,1457.378633192879,None,v,6.068207226526738,1457.378633192879,None,None,,1457.378633192879,None,6.068207226526738,13,5.827516535412842,False,False,False,1470.4591993301824,None,1470.4591993301824,None,1470.4591993301824,None,1470.4591993301824,None,1470.4591993301824,None,1470.4591993301824,None,1470.4591993301824,None,1470.4591993301824,None,1471.444884538209,None,1471.444884538209,None,1472.4421584305474,None,1472.4421584305474,None,h,,,,,,,,,,,,,,,,,,,,,,,,,,,,,,,,,,,,,,,,,,,,,,,61_62Exp,001,2021_May_21_1042,ComputerHuman,2020.1.3,60.05700788560534,
Human.xlsx,h,Sychronize.jpg,Number9.jpg,9,Human,,,,,0,5,5,4,0,7,7,7,,,,,,,,,,,,,,,,,,,,,,,,,,,,,1473.4921493681163,None,1473.4921493681163,None,1473.9426166848184,None,1473.9426166848184,None,v,8.811774103260177,1473.9426166848184,None,t,6.019295440073165,1473.9426166848184,None,8.811774103260177,6.019295440073165,8.849252582059716,False,False,False,1482.8400838555594,None,1482.8400838555594,None,1482.8400838555594,None,1482.8400838555594,None,1482.8400838555594,None,1482.8400838555594,None,1482.8400838555594,None,1482.8400838555594,None,1483.8256240646851,None,1483.8256240646851,None,1484.8230737521517,None,1484.8230737521517,None,h,,,,,,,,,,,,,,,,,,,,,,,,,,,,,,,,,,,,,,,,,,,,,,,61_62Exp,001,2021_May_21_1042,ComputerHuman,2020.1.3,60.05700788560534,
Human.xlsx,h,Sychronize.jpg,Number6.jpg,6,Human,,,,,0,5,5,4,0,8,8,0,,,,,,,,,,,,,,,,,,,,,,,,,,,,,1485.8728240941982,None,1485.8728240941982,None,1486.3229532939936,None,1486.3229532939936,None,v,6.6671607964030954,1486.3229532939936,None,t,3.138350124227145,1486.3229532939936,None,6.6671607964030954,3.138350124227145,6.0247546068120235,False,False,False,1493.0881147416085,None,1493.0881147416085,None,1493.0881147416085,None,1493.0881147416085,None,1493.0881147416085,None,1493.0881147416085,None,1493.0881147416085,None,1493.0881147416085,None,1494.056939657039,None,1494.056939657039,None,1495.054437142816,None,1495.054437142816,None,h,,,,,,,,,,,,,,,,,,,,,,,,,,,,,,,,,,,,,,,,,,,,,,,61_62Exp,001,2021_May_21_1042,ComputerHuman,2020.1.3,60.05700788560534,
Human.xlsx,h,Sychronize.jpg,Number8.jpg,8,Human,,,,,0,5,5,4,0,9,9,5,,,,,,,,,,,,,,,,,,,,,,,,,,,,,1496.104615424098,None,1496.104615424098,None,1496.554653518389,None,1496.554653518389,None,v,8.047211257303843,1496.554653518389,None,t,5.514399962787593,1496.554653518389,None,8.047211257303843,5.514399962787593,8.185453651681094,False,False,False,1504.6857010873314,None,1504.6857010873314,None,1504.6857010873314,None,1504.6857010873314,None,1504.6857010873314,None,1504.6857010873314,None,1504.6857010873314,None,1504.6857010873314,None,1505.6719322867966,None,1505.6719322867966,None,1506.6688093569205,None,1506.6688093569205,None,h,,,,,,,,,,,,,,,,,,,,,,,,,,,,,,,,,,,,,,,,,,,,,,,61_62Exp,001,2021_May_21_1042,ComputerHuman,2020.1.3,60.05700788560534,
Human.xlsx,h,,,,,,,,,0,5,5,4,,,,,,,,,,,,,,,,,,,,,,,,,,,,,,,,,,,,,,,,,,,,,,,,,,,,,,,,,,,,,,,,,,,,,,,,,,,,,,,h,1507.6690287800366,None,1507.6690287800366,None,q,0,2.3408269749284045,1507.6690287800366,None,o,1,3.4044327318979413,1507.6690287800366,None,h,h,1511.151946658369,None,1511.151946658369,None,1513.1509990328063,None,None,None,None,None,None,None,None,,,,,,,,,,,,,,,,,,61_62Exp,001,2021_May_21_1042,ComputerHuman,2020.1.3,60.05700788560534,
Computer.xlsx,c,Sychronize.jpg,Number8.jpg,8,Computer,,,,,0,6,6,3,0,0,0,5,,,,,,,,,,,,,,,,,,,,,,,,,1518.1691370480212,None,1518.1691370480212,None,1521.232873688955,None,1521.232873688955,None,1521.6830295146547,None,1521.6830295146547,None,v,8.150157910861253,1521.6830295146547,None,t,5.645336216202395,1521.6830295146547,None,8.150157910861253,5.645336216202395,7.502714942587502,False,False,False,1529.9310032993667,None,1529.9310032993667,None,1529.9310032993667,None,1529.9310032993667,None,1529.9310032993667,None,1529.9310032993667,None,1529.9310032993667,None,1529.9310032993667,None,1530.9140903965495,None,1530.9140903965495,None,1531.9138995241024,None,1531.9138995241024,None,c,,,,,,,,,,,,,,,,,,,,,,,,,,,,,,,,,,,,,,,,,,,,,,,61_62Exp,001,2021_May_21_1042,ComputerHuman,2020.1.3,60.05700788560534,
Computer.xlsx,c,Sychronize.jpg,Number9.jpg,9,Computer,,,,,0,6,6,3,0,1,1,6,,,,,,,,,,,,,,,,,,,,,,,,,,,,,1532.9804350929421,None,1532.9804350929421,None,1533.4307920564984,None,1533.4307920564984,None,v,9.690088908065263,1533.4307920564984,None,t,6.673295019832949,1533.4307920564984,None,9.690088908065263,6.673295019832949,8.631569360419059,False,False,False,1543.2116910176069,None,1543.2116910176069,None,1543.2116910176069,None,1543.2116910176069,None,1543.2116910176069,None,1543.2116910176069,None,1543.2116910176069,None,1543.2116910176069,None,1544.194689896432,None,1544.194689896432,None,1545.1780268921634,None,1545.1780268921634,None,c,,,,,,,,,,,,,,,,,,,,,,,,,,,,,,,,,,,,,,,,,,,,,,,61_62Exp,001,2021_May_21_1042,ComputerHuman,2020.1.3,60.05700788560534,
Computer.xlsx,c,Sychronize.jpg,Number10.jpg,10,Computer,,,,,0,6,6,3,0,2,2,9,,,,,,,,,,,,,,,,,,,,,,,,,,,,,1546.2283912339826,None,1546.2283912339826,None,1546.678018391122,None,1546.678018391122,None,v,9.110574173193527,1546.678018391122,None,t,5.518097755564668,1546.678018391122,None,9.110574173193527,5.518097755564668,10.674371909705883,False,False,False,1555.8608806116904,None,1555.8608806116904,None,1555.8608806116904,None,1555.8608806116904,None,1555.8608806116904,None,1555.8608806116904,None,1555.8608806116904,None,1555.8608806116904,None,1556.8757115612566,None,1556.8757115612566,None,1557.8420589843981,None,1557.8420589843981,None,c,,,,,,,,,,,,,,,,,,,,,,,,,,,,,,,,,,,,,,,,,,,,,,,61_62Exp,001,2021_May_21_1042,ComputerHuman,2020.1.3,60.05700788560534,
Computer.xlsx,c,Sychronize.jpg,Number8.jpg,8,Computer,,,,,0,6,6,3,0,3,3,4,,,,,,,,,,,,,,,,,,,,,,,,,,,,,1558.909090500808,None,1558.909090500808,None,1559.3422779263233,None,1559.3422779263233,None,v,9.069979934333787,1559.3422779263233,None,t,4.9773237116510245,1559.3422779263233,None,9.069979934333787,4.9773237116510245,8.222575045293052,False,False,False,1568.50686547342,None,1568.50686547342,None,1568.50686547342,None,1568.50686547342,None,1568.50686547342,None,1568.50686547342,None,1568.50686547342,None,1568.50686547342,None,1569.506582212292,None,1569.506582212292,None,1570.4897703595943,None,1570.4897703595943,None,c,,,,,,,,,,,,,,,,,,,,,,,,,,,,,,,,,,,,,,,,,,,,,,,61_62Exp,001,2021_May_21_1042,ComputerHuman,2020.1.3,60.05700788560534,
Computer.xlsx,c,Sychronize.jpg,Number6.jpg,6,Computer,,,,,0,6,6,3,0,4,4,0,,,,,,,,,,,,,,,,,,,,,,,,,,,,,1571.5400314057356,None,1571.5400314057356,None,1571.9899681291135,None,1571.9899681291135,None,v,6.4981190242087905,1571.9899681291135,None,t,3.833309968834783,1571.9899681291135,None,6.4981190242087905,3.833309968834783,5.931329319725404,False,False,False,1578.5564704957715,None,1578.5564704957715,None,1578.5564704957715,None,1578.5564704957715,None,1578.5564704957715,None,1578.5564704957715,None,1578.5564704957715,None,1578.5564704957715,None,1579.5547061286097,None,1579.5547061286097,None,1580.537874065888,None,1580.537874065888,None,c,,,,,,,,,,,,,,,,,,,,,,,,,,,,,,,,,,,,,,,,,,,,,,,61_62Exp,001,2021_May_21_1042,ComputerHuman,2020.1.3,60.05700788560534,
Computer.xlsx,c,Sychronize.jpg,Number9.jpg,9,Computer,,,,,0,6,6,3,0,5,5,7,,,,,,,,,,,,,,,,,,,,,,,,,,,,,1581.6044134842564,None,1581.6044134842564,None,1582.0545875952157,None,1582.0545875952157,None,v,10.077073331910924,1582.0545875952157,None,t,5.364098656995793,1582.0545875952157,None,10.077073331910924,5.364098656995793,8.46943515420551,False,False,False,1592.2189114496205,None,1592.2189114496205,None,1592.2189114496205,None,1592.2189114496205,None,1592.2189114496205,None,1592.2189114496205,None,1592.2189114496205,None,1592.2189114496205,None,1593.2020995969224,None,1593.2020995969224,None,1594.1851684088456,None,1594.1851684088456,None,c,,,,,,,,,,,,,,,,,,,,,,,,,,,,,,,,,,,,,,,,,,,,,,,61_62Exp,001,2021_May_21_1042,ComputerHuman,2020.1.3,60.05700788560534,
Computer.xlsx,c,Sychronize.jpg,Number7.jpg,7,Computer,,,,,0,6,6,3,0,6,6,2,,,,,,,,,,,,,,,,,,,,,,,,,,,,,1595.2354868771185,None,1595.2354868771185,None,1595.685171456389,None,1595.685171456389,None,v,6.650187584308696,1595.685171456389,None,t,4.497352326478449,1595.685171456389,None,6.650187584308696,4.497352326478449,6.6104948680019735,False,True,False,1602.433581360584,None,1602.433581360584,None,1602.433581360584,None,1602.433581360584,None,1602.433581360584,None,1602.433581360584,None,1602.433581360584,None,1602.433581360584,None,1603.4334257754795,None,1603.4334257754795,None,1604.4165584254147,None,1604.4165584254147,None,c,,,,,,,,,,,,,,,,,,,,,,,,,,,,,,,,,,,,,,,,,,,,,,,61_62Exp,001,2021_May_21_1042,ComputerHuman,2020.1.3,60.05700788560534,
Computer.xlsx,c,Sychronize.jpg,Number6.jpg,6,Computer,,,,,0,6,6,3,0,7,7,1,,,,,,,,,,,,,,,,,,,,,,,,,,,,,1605.4670446689647,None,1605.4670446689647,None,1605.916722190767,None,1605.916722190767,None,v,6.162436943923694,1605.916722190767,None,t,3.433330178858796,1605.916722190767,None,6.162436943923694,3.433330178858796,6.005986087796904,False,True,False,1612.1651091581884,None,1612.1651091581884,None,1612.1651091581884,None,1612.1651091581884,None,1612.1651091581884,None,1612.1651091581884,None,1612.1651091581884,None,1612.1651091581884,None,1613.1481763661418,None,1613.1481763661418,None,1614.1313507193004,None,1614.1313507193004,None,c,,,,,,,,,,,,,,,,,,,,,,,,,,,,,,,,,,,,,,,,,,,,,,,61_62Exp,001,2021_May_21_1042,ComputerHuman,2020.1.3,60.05700788560534,
Computer.xlsx,c,Sychronize.jpg,Number10.jpg,10,Computer,,,,,0,6,6,3,0,8,8,8,,,,,,,,,,,,,,,,,,,,,,,,,,,,,1615.1982789400327,None,1615.1982789400327,None,1615.64788684953,None,1615.64788684953,None,v,9.322947840494635,1615.64788684953,None,t,5.9662845475122595,1615.64788684953,None,9.322947840494635,5.9662845475122595,10.119085920152889,False,False,False,1625.0624919600996,None,1625.0624919600996,None,1625.0624919600996,None,1625.0624919600996,None,1625.0624919600996,None,1625.0624919600996,None,1625.0624919600996,None,1625.0624919600996,None,1626.0453458400234,None,1626.0453458400234,None,1627.0288907102863,None,1627.0288907102863,None,c,,,,,,,,,,,,,,,,,,,,,,,,,,,,,,,,,,,,,,,,,,,,,,,61_62Exp,001,2021_May_21_1042,ComputerHuman,2020.1.3,60.05700788560534,
Computer.xlsx,c,Sychronize.jpg,Number7.jpg,7,Computer,,,,,0,6,6,3,0,9,9,3,,,,,,,,,,,,,,,,,,,,,,,,,,,,,1628.0785345487152,None,1628.0785345487152,None,1628.5289049856206,None,1628.5289049856206,None,v,7.653682635258974,1628.5289049856206,None,t,5.181355130218435,1628.5289049856206,None,7.653682635258974,5.181355130218435,7.428668152882552,False,True,False,1636.277079106204,None,1636.277079106204,None,1636.277079106204,None,1636.277079106204,None,1636.277079106204,None,1636.277079106204,None,1636.277079106204,None,1636.277079106204,None,1637.2769007447237,None,1637.2769007447237,None,1638.2600491135659,None,1638.2600491135659,None,c,,,,,,,,,,,,,,,,,,,,,,,,,,,,,,,,,,,,,,,,,,,,,,,61_62Exp,001,2021_May_21_1042,ComputerHuman,2020.1.3,60.05700788560534,
Computer.xlsx,c,,,,,,,,,0,6,6,3,,,,,,,,,,,,,,,,,,,,,,,,,,,,,,,,,,,,,,,,,,,,,,,,,,,,,,,,,,,,,,,,,,,,,,,,,,,,,,,c,1639.261183762048,None,1639.261183762048,None,a,0,2.713257294455161,1639.261183762048,None,o,0,3.2124192200535617,1639.261183762048,None,c,h,1642.5428935300656,None,1642.5428935300656,None,1644.5421181708966,None,None,None,None,None,None,None,None,,,,,,,,,,,,,,,,,,61_62Exp,001,2021_May_21_1042,ComputerHuman,2020.1.3,60.05700788560534,
Human.xlsx,h,Sychronize.jpg,Number9.jpg,9,Human,,,,,0,7,7,8,0,0,0,7,,,,,,,,,,,,,,,,,,,,,,,,,1649.5610928169408,None,1649.5610928169408,None,1652.6237859148969,None,1652.6237859148969,None,1653.0742503444526,None,1653.0742503444526,None,v,9.167682888686159,1653.0742503444526,None,t,4.883295452905259,1653.0742503444526,None,9.167682888686159,4.883295452905259,9.454615375528908,False,False,False,1662.3387164710093,None,1662.3387164710093,None,1662.3387164710093,None,1662.3387164710093,None,1662.3387164710093,None,1662.3387164710093,None,1662.3387164710093,None,1662.3387164710093,None,1663.3237867168818,None,1663.3237867168818,None,1664.3216842328134,None,1664.3216842328134,None,h,,,,,,,,,,,,,,,,,,,,,,,,,,,,,,,,,,,,,,,,,,,,,,,61_62Exp,001,2021_May_21_1042,ComputerHuman,2020.1.3,60.05700788560534,
Human.xlsx,h,Sychronize.jpg,Number7.jpg,7,Human,,,,,0,7,7,8,0,1,1,2,,,,,,,,,,,,,,,,,,,,,,,,,,,,,1665.3884100325126,None,1665.3884100325126,None,1665.8385126064036,None,1665.8385126064036,None,None,,1665.8385126064036,None,t,2.4183500600688603,1665.8385126064036,None,13,2.4183500600688603,7.403919190471557,False,False,False,1678.9028051833902,None,1678.9028051833902,None,1678.9028051833902,None,1678.9028051833902,None,1678.9028051833902,None,1678.9028051833902,None,1678.9028051833902,None,1678.9028051833902,None,1679.887432733502,None,1679.887432733502,None,1680.8850194000192,None,1680.8850194000192,None,h,,,,,,,,,,,,,,,,,,,,,,,,,,,,,,,,,,,,,,,,,,,,,,,61_62Exp,001,2021_May_21_1042,ComputerHuman,2020.1.3,60.05700788560534,
Human.xlsx,h,Sychronize.jpg,Number6.jpg,6,Human,,,,,0,7,7,8,0,2,2,1,,,,,,,,,,,,,,,,,,,,,,,,,,,,,1681.9519594901303,None,1681.9519594901303,None,1682.4020825948387,None,1682.4020825948387,None,v,6.15116937443554,1682.4020825948387,None,t,3.1144949178205934,1682.4020825948387,None,6.15116937443554,3.1144949178205934,6.0538745074141564,False,False,False,1688.650090062924,None,1688.650090062924,None,1688.650090062924,None,1688.650090062924,None,1688.650090062924,None,1688.650090062924,None,1688.650090062924,None,1688.650090062924,None,1689.6364065936004,None,1689.6364065936004,None,1690.6165744651162,None,1690.6165744651162,None,h,,,,,,,,,,,,,,,,,,,,,,,,,,,,,,,,,,,,,,,,,,,,,,,61_62Exp,001,2021_May_21_1042,ComputerHuman,2020.1.3,60.05700788560534,
Human.xlsx,h,Sychronize.jpg,Number8.jpg,8,Human,,,,,0,7,7,8,0,3,3,5,,,,,,,,,,,,,,,,,,,,,,,,,,,,,1691.666816905204,None,1691.666816905204,None,1692.1164504782237,None,1692.1164504782237,None,v,7.812528290023238,1692.1164504782237,None,t,2.8683352233447295,1692.1164504782237,None,7.812528290023238,2.8683352233447295,7.662042289872497,False,False,False,1699.9992179041565,None,1699.9992179041565,None,1699.9992179041565,None,1699.9992179041565,None,1699.9992179041565,None,1699.9992179041565,None,1699.9992179041565,None,1699.9992179041565,None,1700.9999387283406,None,1700.9999387283406,None,1701.9975366226486,None,1701.9975366226486,None,h,,,,,,,,,,,,,,,,,,,,,,,,,,,,,,,,,,,,,,,,,,,,,,,61_62Exp,001,2021_May_21_1042,ComputerHuman,2020.1.3,60.05700788560534,
Human.xlsx,h,Sychronize.jpg,Number7.jpg,7,Human,,,,,0,7,7,8,0,4,4,3,,,,,,,,,,,,,,,,,,,,,,,,,,,,,1703.0148444229158,None,1703.0148444229158,None,1703.4976169815527,None,1703.4976169815527,None,v,6.3471472588953475,1703.4976169815527,None,t,3.470354942553513,1703.4976169815527,None,6.3471472588953475,3.470354942553513,7.2505041507910315,False,False,False,1709.9293614755243,None,1709.9293614755243,None,1709.9293614755243,None,1709.9293614755243,None,1709.9293614755243,None,1709.9293614755243,None,1709.9293614755243,None,1709.9293614755243,None,1710.8972025156668,None,1710.8972025156668,None,1711.8957903803498,None,1711.8957903803498,None,h,,,,,,,,,,,,,,,,,,,,,,,,,,,,,,,,,,,,,,,,,,,,,,,61_62Exp,001,2021_May_21_1042,ComputerHuman,2020.1.3,60.05700788560534,
Human.xlsx,h,Sychronize.jpg,Number10.jpg,10,Human,,,,,0,7,7,8,0,5,5,9,,,,,,,,,,,,,,,,,,,,,,,,,,,,,1712.962354499858,None,1712.962354499858,None,1713.3960968990446,None,1713.3960968990446,None,v,9.5803160783571,1713.3960968990446,None,t,3.75936373712193,1713.3960968990446,None,9.5803160783571,3.75936373712193,9.44196450104559,False,False,False,1723.0601764687958,None,1723.0601764687958,None,1723.0601764687958,None,1723.0601764687958,None,1723.0601764687958,None,1723.0601764687958,None,1723.0601764687958,None,1723.0601764687958,None,1724.0455736037843,None,1724.0455736037843,None,1725.02657265263,None,1725.02657265263,None,h,,,,,,,,,,,,,,,,,,,,,,,,,,,,,,,,,,,,,,,,,,,,,,,61_62Exp,001,2021_May_21_1042,ComputerHuman,2020.1.3,60.05700788560534,
Human.xlsx,h,Sychronize.jpg,Number6.jpg,6,Human,,,,,0,7,7,8,0,6,6,0,,,,,,,,,,,,,,,,,,,,,,,,,,,,,1726.093171738688,None,1726.093171738688,None,1726.5267248693967,None,1726.5267248693967,None,v,5.297500854113878,1726.5267248693967,None,t,2.7043838108083946,1726.5267248693967,None,5.297500854113878,2.7043838108083946,6.185310901295403,False,False,False,1731.8935467469082,None,1731.8935467469082,None,1731.8935467469082,None,1731.8935467469082,None,1731.8935467469082,None,1731.8935467469082,None,1731.8935467469082,None,1731.8935467469082,None,1732.8943118406678,None,1732.8943118406678,None,1733.8914920611496,None,1733.8914920611496,None,h,,,,,,,,,,,,,,,,,,,,,,,,,,,,,,,,,,,,,,,,,,,,,,,61_62Exp,001,2021_May_21_1042,ComputerHuman,2020.1.3,60.05700788560534,
Human.xlsx,h,Sychronize.jpg,Number8.jpg,8,Human,,,,,0,7,7,8,0,7,7,4,,,,,,,,,,,,,,,,,,,,,,,,,,,,,1734.9412927678595,None,1734.9412927678595,None,1735.3914620669084,None,1735.3914620669084,None,v,7.11645849807428,1735.3914620669084,None,t,2.399357128765587,1735.3914620669084,None,7.11645849807428,2.399357128765587,8.001252000002149,False,False,False,1742.5912650993741,None,1742.5912650993741,None,1742.5912650993741,None,1742.5912650993741,None,1742.5912650993741,None,1742.5912650993741,None,1742.5912650993741,None,1742.5912650993741,None,1743.574890809732,None,1743.574890809732,None,1744.5727806266068,None,1744.5727806266068,None,h,,,,,,,,,,,,,,,,,,,,,,,,,,,,,,,,,,,,,,,,,,,,,,,61_62Exp,001,2021_May_21_1042,ComputerHuman,2020.1.3,60.05700788560534,
Human.xlsx,h,Sychronize.jpg,Number10.jpg,10,Human,,,,,0,7,7,8,0,8,8,8,,,,,,,,,,,,,,,,,,,,,,,,,,,,,1745.6232177886704,None,1745.6232177886704,None,1746.0729142373202,None,1746.0729142373202,None,v,8.930714905533932,1746.0729142373202,None,None,,1746.0729142373202,None,8.930714905533932,13,10.420562034476006,False,False,False,1759.153258385155,None,1759.153258385155,None,1759.153258385155,None,1759.153258385155,None,1759.153258385155,None,1759.153258385155,None,1759.153258385155,None,1759.153258385155,None,1760.1225381865197,None,1760.1225381865197,None,1761.119653285813,None,1761.119653285813,None,h,,,,,,,,,,,,,,,,,,,,,,,,,,,,,,,,,,,,,,,,,,,,,,,61_62Exp,001,2021_May_21_1042,ComputerHuman,2020.1.3,60.05700788560534,
Human.xlsx,h,Sychronize.jpg,Number9.jpg,9,Human,,,,,0,7,7,8,0,9,9,6,,,,,,,,,,,,,,,,,,,,,,,,,,,,,1762.1692063395321,None,1762.1692063395321,None,1762.6198853802935,None,1762.6198853802935,None,v,8.683302510373323,1762.6198853802935,None,t,3.046156486536347,1762.6198853802935,None,8.683302510373323,3.046156486536347,8.521144666851635,False,False,False,1771.400924207599,None,1771.400924207599,None,1771.400924207599,None,1771.400924207599,None,1771.400924207599,None,1771.400924207599,None,1771.400924207599,None,1771.400924207599,None,1772.3860868421516,None,1772.3860868421516,None,1773.383854757295,None,1773.383854757295,None,h,,,,,,,,,,,,,,,,,,,,,,,,,,,,,,,,,,,,,,,,,,,,,,,61_62Exp,001,2021_May_21_1042,ComputerHuman,2020.1.3,60.05700788560534,
Human.xlsx,h,,,,,,,,,0,7,7,8,,,,,,,,,,,,,,,,,,,,,,,,,,,,,,,,,,,,,,,,,,,,,,,,,,,,,,,,,,,,,,,,,,,,,,,,,,,,,,,h,1774.3849775363979,None,1774.3849775363979,None,q,0,4.38609261644433,1774.3849775363979,None,l,0,4.433289117222557,1774.3849775363979,None,h,c,1778.8997704718722,None,1778.8997704718722,None,1780.8990826894733,None,None,None,None,None,None,None,None,,,,,,,,,,,,,,,,,,61_62Exp,001,2021_May_21_1042,ComputerHuman,2020.1.3,60.05700788560534,
Computer.xlsx,c,Sychronize.jpg,Number9.jpg,9,Computer,,,,,0,8,8,5,0,0,0,6,,,,,,,,,,,,,,,,,,,,,,,,,1785.91765153107,None,1785.91765153107,None,1788.9816502607255,None,1788.9816502607255,None,1789.4313204042646,None,1789.4313204042646,None,v,8.935306109682642,1789.4313204042646,None,t,3.510345447050895,1789.4313204042646,None,8.935306109682642,3.510345447050895,8.597936013986432,False,False,False,1798.4790497439262,None,1798.4790497439262,None,1798.4790497439262,None,1798.4790497439262,None,1798.4790497439262,None,1798.4790497439262,None,1798.4790497439262,None,1798.4790497439262,None,1799.4788591922725,None,1799.4788591922725,None,1800.4619604043928,None,1800.4619604043928,None,c,,,,,,,,,,,,,,,,,,,,,,,,,,,,,,,,,,,,,,,,,,,,,,,61_62Exp,001,2021_May_21_1042,ComputerHuman,2020.1.3,60.05700788560534,
Computer.xlsx,c,Sychronize.jpg,Number6.jpg,6,Computer,,,,,0,8,8,5,0,1,1,0,,,,,,,,,,,,,,,,,,,,,,,,,,,,,1801.511917017001,None,1801.511917017001,None,1801.9617937518951,None,1801.9617937518951,None,v,4.976527500870361,1801.9617937518951,None,t,2.7513477359161698,1801.9617937518951,None,4.976527500870361,2.7513477359161698,5.601756598964303,False,False,False,1807.0273448038588,None,1807.0273448038588,None,1807.0273448038588,None,1807.0273448038588,None,1807.0273448038588,None,1807.0273448038588,None,1807.0273448038588,None,1807.0273448038588,None,1808.0270378039722,None,1808.0270378039722,None,1808.9936412207499,None,1808.9936412207499,None,c,,,,,,,,,,,,,,,,,,,,,,,,,,,,,,,,,,,,,,,,,,,,,,,61_62Exp,001,2021_May_21_1042,ComputerHuman,2020.1.3,60.05700788560534,
Computer.xlsx,c,Sychronize.jpg,Number7.jpg,7,Computer,,,,,0,8,8,5,0,2,2,2,,,,,,,,,,,,,,,,,,,,,,,,,,,,,1810.0435740945995,None,1810.0435740945995,None,1810.4936381732068,None,1810.4936381732068,None,v,6.780442150410636,1810.4936381732068,None,t,3.335372193252624,1810.4936381732068,None,6.780442150410636,3.335372193252624,6.518884807855538,False,True,False,1817.3586307227652,None,1817.3586307227652,None,1817.3586307227652,None,1817.3586307227652,None,1817.3586307227652,None,1817.3586307227652,None,1817.3586307227652,None,1817.3586307227652,None,1818.3578479853331,None,1818.3578479853331,None,1819.3417017802467,None,1819.3417017802467,None,c,,,,,,,,,,,,,,,,,,,,,,,,,,,,,,,,,,,,,,,,,,,,,,,61_62Exp,001,2021_May_21_1042,ComputerHuman,2020.1.3,60.05700788560534,
Computer.xlsx,c,Sychronize.jpg,Number10.jpg,10,Computer,,,,,0,8,8,5,0,3,3,8,,,,,,,,,,,,,,,,,,,,,,,,,,,,,1820.3915688913203,None,1820.3915688913203,None,1820.841552129832,None,1820.841552129832,None,v,9.82016607506921,1820.841552129832,None,t,2.1558516840887023,1820.841552129832,None,9.82016607506921,2.1558516840887023,10.293017134046838,False,False,False,1830.7393548511272,None,1830.7393548511272,None,1830.7393548511272,None,1830.7393548511272,None,1830.7393548511272,None,1830.7393548511272,None,1830.7393548511272,None,1830.7393548511272,None,1831.7559979661664,None,1831.7559979661664,None,1832.7390901960534,None,1832.7390901960534,None,c,,,,,,,,,,,,,,,,,,,,,,,,,,,,,,,,,,,,,,,,,,,,,,,61_62Exp,001,2021_May_21_1042,ComputerHuman,2020.1.3,60.05700788560534,
Computer.xlsx,c,Sychronize.jpg,Number8.jpg,8,Computer,,,,,0,8,8,5,0,4,4,4,,,,,,,,,,,,,,,,,,,,,,,,,,,,,1833.7895379443198,None,1833.7895379443198,None,1834.23892867626,None,1834.23892867626,None,v,7.410558614683396,1834.23892867626,None,t,2.818370911681086,1834.23892867626,None,7.410558614683396,2.818370911681086,8.089091283152786,False,False,False,1841.7370971027485,None,1841.7370971027485,None,1841.7370971027485,None,1841.7370971027485,None,1841.7370971027485,None,1841.7370971027485,None,1841.7370971027485,None,1841.7370971027485,None,1842.7204527045342,None,1842.7204527045342,None,1843.7036556083622,None,1843.7036556083622,None,c,,,,,,,,,,,,,,,,,,,,,,,,,,,,,,,,,,,,,,,,,,,,,,,61_62Exp,001,2021_May_21_1042,ComputerHuman,2020.1.3,60.05700788560534,
Computer.xlsx,c,Sychronize.jpg,Number7.jpg,7,Computer,,,,,0,8,8,5,0,5,5,3,,,,,,,,,,,,,,,,,,,,,,,,,,,,,1844.7543875801384,None,1844.7543875801384,None,1845.203873587905,None,1845.203873587905,None,v,6.70133081403128,1845.203873587905,None,t,2.1683591225000782,1845.203873587905,None,6.70133081403128,2.1683591225000782,7.47833374971069,False,False,False,1852.0019526732567,None,1852.0019526732567,None,1852.0019526732567,None,1852.0019526732567,None,1852.0019526732567,None,1852.0019526732567,None,1852.0019526732567,None,1852.0019526732567,None,1853.0017287590244,None,1853.0017287590244,None,1853.9848883556579,None,1853.9848883556579,None,c,,,,,,,,,,,,,,,,,,,,,,,,,,,,,,,,,,,,,,,,,,,,,,,61_62Exp,001,2021_May_21_1042,ComputerHuman,2020.1.3,60.05700788560534,
Computer.xlsx,c,Sychronize.jpg,Number6.jpg,6,Computer,,,,,0,8,8,5,0,6,6,1,,,,,,,,,,,,,,,,,,,,,,,,,,,,,1855.0347496924387,None,1855.0347496924387,None,1855.4848692684136,None,1855.4848692684136,None,v,5.712111097387606,1855.4848692684136,None,t,1.6634068646717424,1855.4848692684136,None,5.712111097387606,1.6634068646717424,5.862692298403405,False,True,False,1861.2683082766462,None,1861.2683082766462,None,1861.2683082766462,None,1861.2683082766462,None,1861.2683082766462,None,1861.2683082766462,None,1861.2683082766462,None,1861.2683082766462,None,1862.2666003692339,None,1862.2666003692339,None,1863.2498173879985,None,1863.2498173879985,None,c,,,,,,,,,,,,,,,,,,,,,,,,,,,,,,,,,,,,,,,,,,,,,,,61_62Exp,001,2021_May_21_1042,ComputerHuman,2020.1.3,60.05700788560534,
Computer.xlsx,c,Sychronize.jpg,Number10.jpg,10,Computer,,,,,0,8,8,5,0,7,7,9,,,,,,,,,,,,,,,,,,,,,,,,,,,,,1864.3162451700455,None,1864.3162451700455,None,1864.74990384199,None,1864.74990384199,None,v,9.166753869177228,1864.74990384199,None,t,2.6503970628100433,1864.74990384199,None,9.166753869177228,2.6503970628100433,9.83784654659595,False,False,False,1874.014310621651,None,1874.014310621651,None,1874.014310621651,None,1874.014310621651,None,1874.014310621651,None,1874.014310621651,None,1874.014310621651,None,1874.014310621651,None,1875.0141588860752,None,1875.0141588860752,None,1875.980648420972,None,1875.980648420972,None,c,,,,,,,,,,,,,,,,,,,,,,,,,,,,,,,,,,,,,,,,,,,,,,,61_62Exp,001,2021_May_21_1042,ComputerHuman,2020.1.3,60.05700788560534,
Computer.xlsx,c,Sychronize.jpg,Number8.jpg,8,Computer,,,,,0,8,8,5,0,8,8,5,,,,,,,,,,,,,,,,,,,,,,,,,,,,,1877.047338612534,None,1877.047338612534,None,1877.4810309678514,None,1877.4810309678514,None,v,7.455659047273002,1877.4810309678514,None,t,2.7783627635126322,1877.4810309678514,None,7.455659047273002,2.7783627635126322,7.445531026199121,False,True,False,1885.0289266392174,None,1885.0289266392174,None,1885.0289266392174,None,1885.0289266392174,None,1885.0289266392174,None,1885.0289266392174,None,1885.0289266392174,None,1885.0289266392174,None,1886.0285237219168,None,1886.0285237219168,None,1887.0118815692604,None,1887.0118815692604,None,c,,,,,,,,,,,,,,,,,,,,,,,,,,,,,,,,,,,,,,,,,,,,,,,61_62Exp,001,2021_May_21_1042,ComputerHuman,2020.1.3,60.05700788560534,
Computer.xlsx,c,Sychronize.jpg,Number9.jpg,9,Computer,,,,,0,8,8,5,0,9,9,7,,,,,,,,,,,,,,,,,,,,,,,,,,,,,1888.0623103906792,None,1888.0623103906792,None,1888.5119417181413,None,1888.5119417181413,None,v,8.116140911984985,1888.5119417181413,None,t,2.719459526218998,1888.5119417181413,None,8.116140911984985,2.719459526218998,9.201503959498766,False,False,False,1896.6946502783694,None,1896.6946502783694,None,1896.6946502783694,None,1896.6946502783694,None,1896.6946502783694,None,1896.6946502783694,None,1896.6946502783694,None,1896.6946502783694,None,1897.7096711380009,None,1897.7096711380009,None,1898.7096127534878,None,1898.7096127534878,None,c,,,,,,,,,,,,,,,,,,,,,,,,,,,,,,,,,,,,,,,,,,,,,,,61_62Exp,001,2021_May_21_1042,ComputerHuman,2020.1.3,60.05700788560534,
Computer.xlsx,c,,,,,,,,,0,8,8,5,,,,,,,,,,,,,,,,,,,,,,,,,,,,,,,,,,,,,,,,,,,,,,,,,,,,,,,,,,,,,,,,,,,,,,,,,,,,,,,c,1899.710710510656,None,1899.710710510656,None,a,0,2.2012260747806067,1899.710710510656,None,o,0,2.448390175361965,1899.710710510656,None,c,h,1902.2427660144394,None,1902.2427660144394,None,1904.2418860764164,None,None,None,None,None,None,None,None,,,,,,,,,,,,,,,,,,61_62Exp,001,2021_May_21_1042,ComputerHuman,2020.1.3,60.05700788560534,
Human.xlsx,h,Sychronize.jpg,Number9.jpg,9,Human,,,,,0,9,9,2,0,0,0,6,,,,,,,,,,,,,,,,,,,,,,,,,1909.243667124868,None,1909.243667124868,None,1912.2903269372355,None,1912.2903269372355,None,1912.7407756478842,None,1912.7407756478842,None,v,9.386665233786516,1912.7407756478842,None,t,2.758350027988854,1912.7407756478842,None,9.386665233786516,2.758350027988854,8.683411663915905,False,False,False,1922.2068248929754,None,1922.2068248929754,None,1922.2068248929754,None,1922.2068248929754,None,1922.2068248929754,None,1922.2068248929754,None,1922.2068248929754,None,1922.2068248929754,None,1923.2232274124917,None,1923.2232274124917,None,1924.2213385772466,None,1924.2213385772466,None,h,,,,,,,,,,,,,,,,,,,,,,,,,,,,,,,,,,,,,,,,,,,,,,,61_62Exp,001,2021_May_21_1042,ComputerHuman,2020.1.3,60.05700788560534,
Human.xlsx,h,Sychronize.jpg,Number10.jpg,10,Human,,,,,0,9,9,2,0,1,1,8,,,,,,,,,,,,,,,,,,,,,,,,,,,,,1925.2717443014953,None,1925.2717443014953,None,1925.7045349047967,None,1925.7045349047967,None,v,9.490655109527324,1925.7045349047967,None,t,2.6543938356226136,1925.7045349047967,None,9.490655109527324,2.6543938356226136,10.519035597934067,False,False,False,1935.2704893552518,None,1935.2704893552518,None,1935.2704893552518,None,1935.2704893552518,None,1935.2704893552518,None,1935.2704893552518,None,1935.2704893552518,None,1935.2704893552518,None,1936.2712435420153,None,1936.2712435420153,None,1937.2688006954813,None,1937.2688006954813,None,h,,,,,,,,,,,,,,,,,,,,,,,,,,,,,,,,,,,,,,,,,,,,,,,61_62Exp,001,2021_May_21_1042,ComputerHuman,2020.1.3,60.05700788560534,
Human.xlsx,h,Sychronize.jpg,Number8.jpg,8,Human,,,,,0,9,9,2,0,2,2,4,,,,,,,,,,,,,,,,,,,,,,,,,,,,,1938.3184766133136,None,1938.3184766133136,None,1938.7687549823322,None,1938.7687549823322,None,v,7.7179075247049695,1938.7687549823322,None,t,2.2573477070445733,1938.7687549823322,None,7.7179075247049695,2.2573477070445733,8.169779701075548,False,False,False,1946.5509845970746,None,1946.5509845970746,None,1946.5509845970746,None,1946.5509845970746,None,1946.5509845970746,None,1946.5509845970746,None,1946.5509845970746,None,1946.5509845970746,None,1947.5528163309828,None,1947.5528163309828,None,1948.5666480071477,None,1948.5666480071477,None,h,,,,,,,,,,,,,,,,,,,,,,,,,,,,,,,,,,,,,,,,,,,,,,,61_62Exp,001,2021_May_21_1042,ComputerHuman,2020.1.3,60.05700788560534,
Human.xlsx,h,Sychronize.jpg,Number8.jpg,8,Human,,,,,0,9,9,2,0,3,3,5,,,,,,,,,,,,,,,,,,,,,,,,,,,,,1949.617070091892,None,1949.617070091892,None,1950.0669147473827,None,1950.0669147473827,None,v,7.39566414789806,1950.0669147473827,None,t,2.971363358585222,1950.0669147473827,None,7.39566414789806,2.971363358585222,8.572597629122725,False,False,False,1957.5482947391383,None,1957.5482947391383,None,1957.5482947391383,None,1957.5482947391383,None,1957.5482947391383,None,1957.5482947391383,None,1957.5482947391383,None,1957.5482947391383,None,1958.5163667509823,None,1958.5163667509823,None,1959.5145722291818,None,1959.5145722291818,None,h,,,,,,,,,,,,,,,,,,,,,,,,,,,,,,,,,,,,,,,,,,,,,,,61_62Exp,001,2021_May_21_1042,ComputerHuman,2020.1.3,60.05700788560534,
Human.xlsx,h,Sychronize.jpg,Number7.jpg,7,Human,,,,,0,9,9,2,0,4,4,2,,,,,,,,,,,,,,,,,,,,,,,,,,,,,1960.5808861293472,None,1960.5808861293472,None,1961.0146609287312,None,1961.0146609287312,None,v,7.5316609271267225,1961.0146609287312,None,t,2.051349821077565,1961.0146609287312,None,7.5316609271267225,2.051349821077565,6.791624648118595,False,False,False,1968.6293905073844,None,1968.6293905073844,None,1968.6293905073844,None,1968.6293905073844,None,1968.6293905073844,None,1968.6293905073844,None,1968.6293905073844,None,1968.6293905073844,None,1969.6144235411493,None,1969.6144235411493,None,1970.6124278814923,None,1970.6124278814923,None,h,,,,,,,,,,,,,,,,,,,,,,,,,,,,,,,,,,,,,,,,,,,,,,,61_62Exp,001,2021_May_21_1042,ComputerHuman,2020.1.3,60.05700788560534,
Human.xlsx,h,Sychronize.jpg,Number7.jpg,7,Human,,,,,0,9,9,2,0,5,5,3,,,,,,,,,,,,,,,,,,,,,,,,,,,,,1971.6458122745416,None,1971.6458122745416,None,1972.1126866018767,None,1972.1126866018767,None,v,7.325352512539212,1972.1126866018767,None,t,1.9763911634072429,1972.1126866018767,None,7.325352512539212,1.9763911634072429,7.148438962572666,False,False,False,1979.5273600415749,None,1979.5273600415749,None,1979.5273600415749,None,1979.5273600415749,None,1979.5273600415749,None,1979.5273600415749,None,1979.5273600415749,None,1979.5273600415749,None,1980.4955918088453,None,1980.4955918088453,None,1981.4935746559886,None,1981.4935746559886,None,h,,,,,,,,,,,,,,,,,,,,,,,,,,,,,,,,,,,,,,,,,,,,,,,61_62Exp,001,2021_May_21_1042,ComputerHuman,2020.1.3,60.05700788560534,
Human.xlsx,h,Sychronize.jpg,Number10.jpg,10,Human,,,,,0,9,9,2,0,6,6,9,,,,,,,,,,,,,,,,,,,,,,,,,,,,,1982.5605394472395,None,1982.5605394472395,None,1983.0105496324504,None,1983.0105496324504,None,v,9.515142921760344,1983.0105496324504,None,t,5.250321997007632,1983.0105496324504,None,9.515142921760344,5.250321997007632,9.903583740956806,False,False,False,1992.6247823011518,None,1992.6247823011518,None,1992.6247823011518,None,1992.6247823011518,None,1992.6247823011518,None,1992.6247823011518,None,1992.6247823011518,None,1992.6247823011518,None,1993.5936126700808,None,1993.5936126700808,None,1994.5910613951655,None,1994.5910613951655,None,h,,,,,,,,,,,,,,,,,,,,,,,,,,,,,,,,,,,,,,,,,,,,,,,61_62Exp,001,2021_May_21_1042,ComputerHuman,2020.1.3,60.05700788560534,
Human.xlsx,h,Sychronize.jpg,Number6.jpg,6,Human,,,,,0,9,9,2,0,7,7,0,,,,,,,,,,,,,,,,,,,,,,,,,,,,,1995.6415768309726,None,1995.6415768309726,None,1996.0913762545051,None,1996.0913762545051,None,v,5.438083063197155,1996.0913762545051,None,t,1.493410730238793,1996.0913762545051,None,5.438083063197155,1.493410730238793,5.567286761199045,False,False,False,2001.607760649159,None,2001.607760649159,None,2001.607760649159,None,2001.607760649159,None,2001.607760649159,None,2001.607760649159,None,2001.607760649159,None,2001.607760649159,None,2002.6086579100593,None,2002.6086579100593,None,2003.605997244379,None,2003.605997244379,None,h,,,,,,,,,,,,,,,,,,,,,,,,,,,,,,,,,,,,,,,,,,,,,,,61_62Exp,001,2021_May_21_1042,ComputerHuman,2020.1.3,60.05700788560534,
Human.xlsx,h,Sychronize.jpg,Number9.jpg,9,Human,,,,,0,9,9,2,0,8,8,7,,,,,,,,,,,,,,,,,,,,,,,,,,,,,2004.6559798413036,None,2004.6559798413036,None,2005.1060875478988,None,2005.1060875478988,None,v,7.939449806160155,2005.1060875478988,None,t,2.2025172707481033,2005.1060875478988,None,7.939449806160155,2.2025172707481033,9.123421662326724,False,False,False,2013.1374512593575,None,2013.1374512593575,None,2013.1374512593575,None,2013.1374512593575,None,2013.1374512593575,None,2013.1374512593575,None,2013.1374512593575,None,2013.1374512593575,None,2014.1064869364654,None,2014.1064869364654,None,2015.1204623283556,None,2015.1204623283556,None,h,,,,,,,,,,,,,,,,,,,,,,,,,,,,,,,,,,,,,,,,,,,,,,,61_62Exp,001,2021_May_21_1042,ComputerHuman,2020.1.3,60.05700788560534,
Human.xlsx,h,Sychronize.jpg,Number6.jpg,6,Human,,,,,0,9,9,2,0,9,9,1,,,,,,,,,,,,,,,,,,,,,,,,,,,,,2016.1875839878867,None,2016.1875839878867,None,2016.620612941152,None,2016.620612941152,None,v,5.272749349189326,2016.620612941152,None,t,1.4874269592091878,2016.620612941152,None,5.272749349189326,1.4874269592091878,5.5955814690450145,False,False,False,2021.985724665693,None,2021.985724665693,None,2021.985724665693,None,2021.985724665693,None,2021.985724665693,None,2021.985724665693,None,2021.985724665693,None,2021.985724665693,None,2022.9711801851945,None,2022.9711801851945,None,2023.9520698432761,None,2023.9520698432761,None,h,,,,,,,,,,,,,,,,,,,,,,,,,,,,,,,,,,,,,,,,,,,,,,,61_62Exp,001,2021_May_21_1042,ComputerHuman,2020.1.3,60.05700788560534,
Human.xlsx,h,,,,,,,,,0,9,9,2,,,,,,,,,,,,,,,,,,,,,,,,,,,,,,,,,,,,,,,,,,,,,,,,,,,,,,,,,,,,,,,,,,,,,,,,,,,,,,,h,2024.952694429251,None,2024.952694429251,None,q,1,2.55635051880472,2024.952694429251,None,o,0,2.287388784719951,2024.952694429251,None,h,h,2027.5852226230363,None,2027.5852226230363,None,None,None,2029.5842570330078,None,2029.5842570330078,None,"['space', 'space']",2030.5674612200119,None,"[431.4425943896331, 431.7226796566865]",,,,,,,,,,,,,,,,,61_62Exp,001,2021_May_21_1042,ComputerHuman,2020.1.3,60.05700788560534,
Human.xlsx,h,Sychronize.jpg,Number8.jpg,8,Human,,,,,1,0,10,0,0,0,0,4,,,,,,,,,,,,,,,,,,,,,,,,,2462.33774767304,None,2462.33774767304,None,2465.43425695281,None,2465.43425695281,None,2465.866681530123,None,2465.866681530123,None,v,7.907069177628728,2465.866681530123,None,t,4.5543545383534365,2465.866681530123,None,7.907069177628728,4.5543545383534365,8.09976150947551,False,False,False,2473.849736227109,None,2473.849736227109,None,2473.849736227109,None,2473.849736227109,None,2473.849736227109,None,2473.849736227109,None,2473.849736227109,None,2473.849736227109,None,2474.8666237871985,None,2474.8666237871985,None,2475.847932723076,None,2475.847932723076,None,h,,,,,,,,,,,,,,,,,,,,,,,,,,,,,,,,,,,,,,,,,,,,,,,61_62Exp,001,2021_May_21_1042,ComputerHuman,2020.1.3,60.05700788560534,
Human.xlsx,h,Sychronize.jpg,Number6.jpg,6,Human,,,,,1,0,10,0,0,1,1,1,,,,,,,,,,,,,,,,,,,,,,,,,,,,,2476.914909704501,None,2476.914909704501,None,2477.348377824792,None,2477.348377824792,None,v,5.897167869910845,2477.348377824792,None,t,2.752411168123217,2477.348377824792,None,5.897167869910845,2.752411168123217,5.856627033363705,False,False,False,2483.3148888528885,None,2483.3148888528885,None,2483.3148888528885,None,2483.3148888528885,None,2483.3148888528885,None,2483.3148888528885,None,2483.3148888528885,None,2483.3148888528885,None,2484.3156751190545,None,2484.3156751190545,None,2485.3127581389454,None,2485.3127581389454,None,h,,,,,,,,,,,,,,,,,,,,,,,,,,,,,,,,,,,,,,,,,,,,,,,61_62Exp,001,2021_May_21_1042,ComputerHuman,2020.1.3,60.05700788560534,
Human.xlsx,h,Sychronize.jpg,Number6.jpg,6,Human,,,,,1,0,10,0,0,2,2,0,,,,,,,,,,,,,,,,,,,,,,,,,,,,,2486.3463831275176,None,2486.3463831275176,None,2486.8127807549245,None,2486.8127807549245,None,v,5.692501279165299,2486.8127807549245,None,t,0.9153864044283182,2486.8127807549245,None,5.692501279165299,0.9153864044283182,6.40619377669385,False,False,False,2492.5795609292118,None,2492.5795609292118,None,2492.5795609292118,None,2492.5795609292118,None,2492.5795609292118,None,2492.5795609292118,None,2492.5795609292118,None,2492.5795609292118,None,2493.562924550848,None,2493.562924550848,None,2494.5609914460274,None,2494.5609914460274,None,h,,,,,,,,,,,,,,,,,,,,,,,,,,,,,,,,,,,,,,,,,,,,,,,61_62Exp,001,2021_May_21_1042,ComputerHuman,2020.1.3,60.05700788560534,
Human.xlsx,h,Sychronize.jpg,Number8.jpg,8,Human,,,,,1,0,10,0,0,3,3,5,,,,,,,,,,,,,,,,,,,,,,,,,,,,,2495.6109708350114,None,2495.6109708350114,None,2496.0608610432546,None,2496.0608610432546,None,v,7.06813697263442,2496.0608610432546,None,t,3.5353122047690704,2496.0608610432546,None,7.06813697263442,3.5353122047690704,7.406840528872072,False,False,False,2503.22596603112,None,2503.22596603112,None,2503.22596603112,None,2503.22596603112,None,2503.22596603112,None,2503.22596603112,None,2503.22596603112,None,2503.22596603112,None,2504.2111601034885,None,2504.2111601034885,None,2505.2089312265725,None,2505.2089312265725,None,h,,,,,,,,,,,,,,,,,,,,,,,,,,,,,,,,,,,,,,,,,,,,,,,61_62Exp,001,2021_May_21_1042,ComputerHuman,2020.1.3,60.05700788560534,
Human.xlsx,h,Sychronize.jpg,Number9.jpg,9,Human,,,,,1,0,10,0,0,4,4,6,,,,,,,,,,,,,,,,,,,,,,,,,,,,,2506.2593648599013,None,2506.2593648599013,None,2506.7092194600073,None,2506.7092194600073,None,v,7.679543766731513,2506.7092194600073,None,t,4.247354652236027,2506.7092194600073,None,7.679543766731513,4.247354652236027,8.944014057642253,False,False,False,2514.473811177427,None,2514.473811177427,None,2514.473811177427,None,2514.473811177427,None,2514.473811177427,None,2514.473811177427,None,2514.473811177427,None,2514.473811177427,None,2515.459985596348,None,2515.459985596348,None,2516.456769956998,None,2516.456769956998,None,h,,,,,,,,,,,,,,,,,,,,,,,,,,,,,,,,,,,,,,,,,,,,,,,61_62Exp,001,2021_May_21_1042,ComputerHuman,2020.1.3,60.05700788560534,
Human.xlsx,h,Sychronize.jpg,Number10.jpg,10,Human,,,,,1,0,10,0,0,5,5,9,,,,,,,,,,,,,,,,,,,,,,,,,,,,,2517.507138148345,None,2517.507138148345,None,2517.9570848163376,None,2517.9570848163376,None,v,9.195336296400455,2517.9570848163376,None,t,4.114341578275344,2517.9570848163376,None,9.195336296400455,4.114341578275344,9.652299824117039,False,False,False,2527.237948008912,None,2527.237948008912,None,2527.237948008912,None,2527.237948008912,None,2527.237948008912,None,2527.237948008912,None,2527.237948008912,None,2527.237948008912,None,2528.206492550361,None,2528.206492550361,None,2529.204269768531,None,2529.204269768531,None,h,,,,,,,,,,,,,,,,,,,,,,,,,,,,,,,,,,,,,,,,,,,,,,,61_62Exp,001,2021_May_21_1042,ComputerHuman,2020.1.3,60.05700788560534,
Human.xlsx,h,Sychronize.jpg,Number10.jpg,10,Human,,,,,1,0,10,0,0,6,6,8,,,,,,,,,,,,,,,,,,,,,,,,,,,,,2530.2546241657355,None,2530.2546241657355,None,2530.704429363561,None,2530.704429363561,None,v,10.251615438533008,2530.704429363561,None,t,5.223295420825707,2530.704429363561,None,10.251615438533008,5.223295420825707,10.739217077005492,False,False,False,2541.0518627707306,None,2541.0518627707306,None,2541.0518627707306,None,2541.0518627707306,None,2541.0518627707306,None,2541.0518627707306,None,2541.0518627707306,None,2541.0518627707306,None,2542.0212558123867,None,2542.0212558123867,None,2543.0182175721347,None,2543.0182175721347,None,h,,,,,,,,,,,,,,,,,,,,,,,,,,,,,,,,,,,,,,,,,,,,,,,61_62Exp,001,2021_May_21_1042,ComputerHuman,2020.1.3,60.05700788560534,
Human.xlsx,h,Sychronize.jpg,Number7.jpg,7,Human,,,,,1,0,10,0,0,7,7,2,,,,,,,,,,,,,,,,,,,,,,,,,,,,,2544.0846232193926,None,2544.0846232193926,None,2544.5185776634326,None,2544.5185776634326,None,v,6.613216714011287,2544.5185776634326,None,t,3.5923371930202848,2544.5185776634326,None,6.613216714011287,3.5923371930202848,7.448162073266538,False,False,False,2551.216556821445,None,2551.216556821445,None,2551.216556821445,None,2551.216556821445,None,2551.216556821445,None,2551.216556821445,None,2551.216556821445,None,2551.216556821445,None,2552.2019639010477,None,2552.2019639010477,None,2553.1996156887526,None,2553.1996156887526,None,h,,,,,,,,,,,,,,,,,,,,,,,,,,,,,,,,,,,,,,,,,,,,,,,61_62Exp,001,2021_May_21_1042,ComputerHuman,2020.1.3,60.05700788560534,
Human.xlsx,h,Sychronize.jpg,Number9.jpg,9,Human,,,,,1,0,10,0,0,8,8,7,,,,,,,,,,,,,,,,,,,,,,,,,,,,,2554.266306201109,None,2554.266306201109,None,2554.6997547529645,None,2554.6997547529645,None,v,8.699754432171176,2554.6997547529645,None,t,4.303295677461392,2554.6997547529645,None,8.699754432171176,4.303295677461392,8.78276256024061,False,False,False,2563.464551778562,None,2563.464551778562,None,2563.464551778562,None,2563.464551778562,None,2563.464551778562,None,2563.464551778562,None,2563.464551778562,None,2563.464551778562,None,2564.466793808034,None,2564.466793808034,None,2565.4806569220136,None,2565.4806569220136,None,h,,,,,,,,,,,,,,,,,,,,,,,,,,,,,,,,,,,,,,,,,,,,,,,61_62Exp,001,2021_May_21_1042,ComputerHuman,2020.1.3,60.05700788560534,
Human.xlsx,h,Sychronize.jpg,Number7.jpg,7,Human,,,,,1,0,10,0,0,9,9,3,,,,,,,,,,,,,,,,,,,,,,,,,,,,,2566.531272445557,None,2566.531272445557,None,2566.980936173216,None,2566.980936173216,None,v,6.862303012416305,2566.980936173216,None,t,2.82180629494178,2566.980936173216,None,6.862303012416305,2.82180629494178,7.126473149628864,False,False,False,2573.9288915122715,None,2573.9288915122715,None,2573.9288915122715,None,2573.9288915122715,None,2573.9288915122715,None,2573.9288915122715,None,2573.9288915122715,None,2573.9288915122715,None,2574.9144240223404,None,2574.9144240223404,None,2575.8952726187863,None,2575.8952726187863,None,h,,,,,,,,,,,,,,,,,,,,,,,,,,,,,,,,,,,,,,,,,,,,,,,61_62Exp,001,2021_May_21_1042,ComputerHuman,2020.1.3,60.05700788560534,
Human.xlsx,h,,,,,,,,,1,0,10,0,,,,,,,,,,,,,,,,,,,,,,,,,,,,,,,,,,,,,,,,,,,,,,,,,,,,,,,,,,,,,,,,,,,,,,,,,,,,,,,h,2576.8956858014963,None,2576.8956858014963,None,q,1,8.307320038559737,2576.8956858014963,None,o,0,2.9343174224841277,2576.8956858014963,None,h,h,2585.2768510216492,None,2585.2768510216492,None,2587.2930405339293,None,None,None,None,None,None,None,None,,,,,,,,,,,,,,,,,,61_62Exp,001,2021_May_21_1042,ComputerHuman,2020.1.3,60.05700788560534,
Computer.xlsx,c,Sychronize.jpg,Number6.jpg,6,Computer,,,,,1,1,11,5,0,0,0,0,,,,,,,,,,,,,,,,,,,,,,,,,2592.2941488773013,None,2592.2941488773013,None,2595.3582618096316,None,2595.3582618096316,None,2595.7916179728063,None,2595.7916179728063,None,v,5.918913855574829,2595.7916179728063,None,t,2.3703688970936128,2595.7916179728063,None,5.918913855574829,2.3703688970936128,5.624446317313417,False,True,False,2601.79191278252,None,2601.79191278252,None,2601.79191278252,None,2601.79191278252,None,2601.79191278252,None,2601.79191278252,None,2601.79191278252,None,2601.79191278252,None,2602.8066625711963,None,2602.8066625711963,None,2603.789855209615,None,2603.789855209615,None,c,,,,,,,,,,,,,,,,,,,,,,,,,,,,,,,,,,,,,,,,,,,,,,,61_62Exp,001,2021_May_21_1042,ComputerHuman,2020.1.3,60.05700788560534,
Computer.xlsx,c,Sychronize.jpg,Number9.jpg,9,Computer,,,,,1,1,11,5,0,1,1,7,,,,,,,,,,,,,,,,,,,,,,,,,,,,,2604.8399943540253,None,2604.8399943540253,None,2605.2900667732774,None,2605.2900667732774,None,v,9.120188370254255,2605.2900667732774,None,t,3.235458968038074,2605.2900667732774,None,9.120188370254255,3.235458968038074,8.790319925510309,False,False,False,2614.504451498349,None,2614.504451498349,None,2614.504451498349,None,2614.504451498349,None,2614.504451498349,None,2614.504451498349,None,2614.504451498349,None,2614.504451498349,None,2615.5042339999973,None,2615.5042339999973,None,2616.487429204768,None,2616.487429204768,None,c,,,,,,,,,,,,,,,,,,,,,,,,,,,,,,,,,,,,,,,,,,,,,,,61_62Exp,001,2021_May_21_1042,ComputerHuman,2020.1.3,60.05700788560534,
Computer.xlsx,c,Sychronize.jpg,Number6.jpg,6,Computer,,,,,1,1,11,5,0,2,2,1,,,,,,,,,,,,,,,,,,,,,,,,,,,,,2617.5544581548247,None,2617.5544581548247,None,2617.9876481466927,None,2617.9876481466927,None,v,5.938332801350043,2617.9876481466927,None,t,2.0695115750504556,2617.9876481466927,None,5.938332801350043,2.0695115750504556,6.167212116986764,False,True,False,2624.0192354515902,None,2624.0192354515902,None,2624.0192354515902,None,2624.0192354515902,None,2624.0192354515902,None,2624.0192354515902,None,2624.0192354515902,None,2624.0192354515902,None,2625.019091735865,None,2625.019091735865,None,2625.9855007514598,None,2625.9855007514598,None,c,,,,,,,,,,,,,,,,,,,,,,,,,,,,,,,,,,,,,,,,,,,,,,,61_62Exp,001,2021_May_21_1042,ComputerHuman,2020.1.3,60.05700788560534,
Computer.xlsx,c,Sychronize.jpg,Number9.jpg,9,Computer,,,,,1,1,11,5,0,3,3,6,,,,,,,,,,,,,,,,,,,,,,,,,,,,,2627.035560659745,None,2627.035560659745,None,2627.4853312118157,None,2627.4853312118157,None,v,7.992377613068129,2627.4853312118157,None,t,3.2593023050658303,2627.4853312118157,None,7.992377613068129,3.2593023050658303,9.22313089620958,False,False,False,2635.5520736928047,None,2635.5520736928047,None,2635.5520736928047,None,2635.5520736928047,None,2635.5520736928047,None,2635.5520736928047,None,2635.5520736928047,None,2635.5520736928047,None,2636.5668337468906,None,2636.5668337468906,None,2637.5501450791,None,2637.5501450791,None,c,,,,,,,,,,,,,,,,,,,,,,,,,,,,,,,,,,,,,,,,,,,,,,,61_62Exp,001,2021_May_21_1042,ComputerHuman,2020.1.3,60.05700788560534,
Computer.xlsx,c,Sychronize.jpg,Number8.jpg,8,Computer,,,,,1,1,11,5,0,4,4,5,,,,,,,,,,,,,,,,,,,,,,,,,,,,,2638.6001238264953,None,2638.6001238264953,None,2639.0502264003862,None,2639.0502264003862,None,v,7.783245890226681,2639.0502264003862,None,t,5.9743262122401575,2639.0502264003862,None,7.783245890226681,5.9743262122401575,8.292703420417809,False,False,False,2646.93149154788,None,2646.93149154788,None,2646.93149154788,None,2646.93149154788,None,2646.93149154788,None,2646.93149154788,None,2646.93149154788,None,2646.93149154788,None,2647.9146142532,None,2647.9146142532,None,2648.9144933138505,None,2648.9144933138505,None,c,,,,,,,,,,,,,,,,,,,,,,,,,,,,,,,,,,,,,,,,,,,,,,,61_62Exp,001,2021_May_21_1042,ComputerHuman,2020.1.3,60.05700788560534,
Computer.xlsx,c,Sychronize.jpg,Number10.jpg,10,Computer,,,,,1,1,11,5,0,5,5,8,,,,,,,,,,,,,,,,,,,,,,,,,,,,,2649.9814606714544,None,2649.9814606714544,None,2650.414773848229,None,2650.414773848229,None,v,9.69433237148587,2650.414773848229,None,t,7.761224021698581,2650.414773848229,None,9.69433237148587,7.761224021698581,10.51888552508252,False,False,False,2660.180650987324,None,2660.180650987324,None,2660.180650987324,None,2660.180650987324,None,2660.180650987324,None,2660.180650987324,None,2660.180650987324,None,2660.180650987324,None,2661.1786428166997,None,2661.1786428166997,None,2662.1619137288617,None,2662.1619137288617,None,c,,,,,,,,,,,,,,,,,,,,,,,,,,,,,,,,,,,,,,,,,,,,,,,61_62Exp,001,2021_May_21_1042,ComputerHuman,2020.1.3,60.05700788560534,
Computer.xlsx,c,Sychronize.jpg,Number7.jpg,7,Computer,,,,,1,1,11,5,0,6,6,2,,,,,,,,,,,,,,,,,,,,,,,,,,,,,2663.211674657112,None,2663.211674657112,None,2663.662173732423,None,2663.662173732423,None,v,7.518671976877158,2663.662173732423,None,t,6.894271420620498,2663.662173732423,None,7.518671976877158,6.894271420620498,7.2176347386116815,False,False,False,2671.2766845295473,None,2671.2766845295473,None,2671.2766845295473,None,2671.2766845295473,None,2671.2766845295473,None,2671.2766845295473,None,2671.2766845295473,None,2671.2766845295473,None,2672.2765619862284,None,2672.2765619862284,None,2673.259703618396,None,2673.259703618396,None,c,,,,,,,,,,,,,,,,,,,,,,,,,,,,,,,,,,,,,,,,,,,,,,,61_62Exp,001,2021_May_21_1042,ComputerHuman,2020.1.3,60.05700788560534,
Computer.xlsx,c,Sychronize.jpg,Number10.jpg,10,Computer,,,,,1,1,11,5,0,7,7,9,,,,,,,,,,,,,,,,,,,,,,,,,,,,,2674.3099181494035,None,2674.3099181494035,None,2674.743308316746,None,2674.743308316746,None,v,10.369183883949518,2674.743308316746,None,t,9.112245510085813,2674.743308316746,None,10.369183883949518,9.112245510085813,10.363495768654197,False,True,False,2685.207335917864,None,2685.207335917864,None,2685.207335917864,None,2685.207335917864,None,2685.207335917864,None,2685.207335917864,None,2685.207335917864,None,2685.207335917864,None,2686.20724962427,None,2686.20724962427,None,2687.1903838781755,None,2687.1903838781755,None,c,,,,,,,,,,,,,,,,,,,,,,,,,,,,,,,,,,,,,,,,,,,,,,,61_62Exp,001,2021_May_21_1042,ComputerHuman,2020.1.3,60.05700788560534,
Computer.xlsx,c,Sychronize.jpg,Number8.jpg,8,Computer,,,,,1,1,11,5,0,8,8,4,,,,,,,,,,,,,,,,,,,,,,,,,,,,,2688.239900682169,None,2688.239900682169,None,2688.690313463886,None,2688.690313463886,None,v,7.8258871157895555,2688.690313463886,None,t,7.361228833608948,2688.690313463886,None,7.8258871157895555,7.361228833608948,7.868386941485882,False,True,False,2696.5736031424985,None,2696.5736031424985,None,2696.5736031424985,None,2696.5736031424985,None,2696.5736031424985,None,2696.5736031424985,None,2696.5736031424985,None,2696.5736031424985,None,2697.5883872561362,None,2697.5883872561362,None,2698.5881543596715,None,2698.5881543596715,None,c,,,,,,,,,,,,,,,,,,,,,,,,,,,,,,,,,,,,,,,,,,,,,,,61_62Exp,001,2021_May_21_1042,ComputerHuman,2020.1.3,60.05700788560534,
Computer.xlsx,c,Sychronize.jpg,Number7.jpg,7,Computer,,,,,1,1,11,5,0,9,9,3,,,,,,,,,,,,,,,,,,,,,,,,,,,,,2699.638519343078,None,2699.638519343078,None,2700.0883421845756,None,2700.0883421845756,None,v,7.259586849369953,2700.0883421845756,None,t,7.095293149604004,2700.0883421845756,None,7.259586849369953,7.095293149604004,7.065343669053936,False,True,True,2707.4207483162327,None,2707.4207483162327,None,2707.4207483162327,None,2707.4207483162327,None,2707.4207483162327,None,2707.4207483162327,None,2707.4207483162327,None,2707.4207483162327,None,2708.4363071474518,None,2708.4363071474518,None,2709.4027719812084,None,2709.4027719812084,None,c,,,,,,,,,,,,,,,,,,,,,,,,,,,,,,,,,,,,,,,,,,,,,,,61_62Exp,001,2021_May_21_1042,ComputerHuman,2020.1.3,60.05700788560534,
Computer.xlsx,c,,,,,,,,,1,1,11,5,,,,,,,,,,,,,,,,,,,,,,,,,,,,,,,,,,,,,,,,,,,,,,,,,,,,,,,,,,,,,,,,,,,,,,,,,,,,,,,c,2710.403580702956,None,2710.403580702956,None,a,0,2.272263346235377,2710.403580702956,None,o,0,2.619432739918011,2710.403580702956,None,c,h,2713.1190485890675,None,2713.1190485890675,None,2715.1182985726273,None,None,None,None,None,None,None,None,,,,,,,,,,,,,,,,,,61_62Exp,001,2021_May_21_1042,ComputerHuman,2020.1.3,60.05700788560534,
