Condition,CorrectTuringReply,Sychronize,NumberImage,Number,Partner,trials.thisRepN,trials.thisTrialN,trials.thisN,trials.thisIndex,Block.thisRepN,Block.thisTrialN,Block.thisN,Block.thisIndex,trials_loop.thisRepN,trials_loop.thisTrialN,trials_loop.thisN,trials_loop.thisIndex,key_resp_Istr.keys,key_resp_Istr.rt,key_resp_Istr.started,key_resp_Istr.stopped,key_respPrLeft.keys,key_respPrLeft.rt,key_respPrRight.keys,key_respPrRight.rt,RTPrLeft,RTPrRight,CompPr,SychronizedRTsPr,SychronizedRTsLeftCPr,SychronizedRTsRightCPr,CreditLeftPr.started,CreditLeftPr.stopped,CreditRightPr.started,CreditRightPr.stopped,text_StartExp.started,text_StartExp.stopped,key_startExp.keys,key_startExp.rt,key_startExp.started,key_startExp.stopped,SychroLeft.started,SychroLeft.stopped,SychroRight.started,SychroRight.stopped,NumberLeft.started,NumberLeft.stopped,NumberRight.started,NumberRight.stopped,CrossLeft.started,CrossLeft.stopped,CrossRight.started,CrossRight.stopped,key_respLeft.keys,key_respLeft.rt,key_respLeft.started,key_respLeft.stopped,key_respRight.keys,key_respRight.rt,key_respRight.started,key_respRight.stopped,RTLeft,RTRight,Comp,SychronizedRTs,SychronizedRTsLeftC,SychronizedRTsRightC,FeedbackLeftLeft.started,FeedbackLeftLeft.stopped,FeedbackLeftRight.started,FeedbackLeftRight.stopped,FeedbackRightLeft.started,FeedbackRightLeft.stopped,FeedbackRightRight.started,FeedbackRightRight.stopped,textLeftLeft.started,textLeftLeft.stopped,textLeftRight.started,textLeftRight.stopped,textRightLeft.started,textRightLeft.stopped,textRightRight.started,textRightRight.stopped,CreditLeft.started,CreditLeft.stopped,CreditRight.started,CreditRight.stopped,BlankLeft.started,BlankLeft.stopped,BlankRight.started,BlankRight.stopped,CorrectTuringReply,TuringtextLeft.started,TuringtextLeft.stopped,TuringtextRight.started,TuringtextRight.stopped,keyTuringLeft.keys,keyTuringLeft.corr,keyTuringLeft.rt,keyTuringLeft.started,keyTuringLeft.stopped,keyTuringRight.keys,keyTuringRight.corr,keyTuringRight.rt,keyTuringRight.started,keyTuringRight.stopped,RespTuringLeft,RespTuringRight,ScoreLeft.started,ScoreLeft.stopped,ScoreRight.started,ScoreRight.stopped,BlockText.started,BlockText.stopped,text_Pause.started,text_Pause.stopped,text_LongPause.started,text_LongPause.stopped,key_respPause.keys,key_respPause.started,key_respPause.stopped,key_respPause.rt,QuestImageLeft.started,QuestImageLeft.stopped,QuestImageRight.started,QuestImageRight.stopped,respQuestLeft.keys,respQuestLeft.rt,respQuestLeft.started,respQuestLeft.stopped,respQuestRight.keys,respQuestRight.rt,respQuestRight.started,respQuestRight.stopped,RespInclusionLeft,RespInclusionRight,EndText.started,EndText.stopped,participant,session,date,expName,psychopyVersion,frameRate,
,,,,,,,,,,,,,,,,,,"['t', 't', 'v']","[55.860116801108234, 189.6927062665527, 192.2688914801911]",24.140207200864097,None,,,,,,,,,,,,,,,,,,,,,,,,,,,,,,,,,,,,,,,,,,,,,,,,,,,,,,,,,,,,,,,,,,,,,,,,,,,,,,,,,,,,,,,,,,,,,,,,,,,,,,,,,,,,,,,,,,,,,,63_64Exp,001,2021_May_21_1444,ComputerHuman,2020.1.3,60.0009431487529,
,,,,,,,,,,,,,,,,,,,,,,v,7.153391835468938,t,7.388449169382511,7.153391835468938,7.388449169382511,7,False,True,False,282.79006019699955,None,282.79006019699955,None,283.80666225040113,None,"['space', 'space']","[56.52397053185996, 57.507971892027854]",284.78976410410905,None,,,,,,,,,,,,,,,,,,,,,,,,,,,,,,,,,,,,,,,,,,,,,,,,,,,,,,,,,,,,,,,,,,,,,,,,,,,,,,,,,,,,,,,,,,,,,,,,,,63_64Exp,001,2021_May_21_1444,ComputerHuman,2020.1.3,60.0009431487529,
Human.xlsx,h,Sychronize.jpg,Number7.jpg,7,Human,,,,,0,0,0,4,0,0,0,3,,,,,,,,,,,,,,,,,,,,,,,,,342.39887305057346,None,342.39887305057346,None,345.4449249582576,None,345.4449249582576,None,345.87860608578194,None,345.87860608578194,None,v,5.902898855245439,345.87860608578194,None,t,6.246293786378374,345.87860608578194,None,5.902898855245439,6.246293786378374,6.617936385100164,False,False,False,352.2099972251308,None,352.2099972251308,None,352.2099972251308,None,352.2099972251308,None,352.2099972251308,None,352.2099972251308,None,352.2099972251308,None,352.2099972251308,None,353.21396865521456,None,353.21396865521456,None,354.2096478804342,None,354.2096478804342,None,h,,,,,,,,,,,,,,,,,,,,,,,,,,,,,,,,,,,,,,,,,,,,,,,63_64Exp,001,2021_May_21_1444,ComputerHuman,2020.1.3,60.0009431487529,
Human.xlsx,h,Sychronize.jpg,Number10.jpg,10,Human,,,,,0,0,0,4,0,1,1,8,,,,,,,,,,,,,,,,,,,,,,,,,,,,,355.259986558729,None,355.259986558729,None,355.6929353134874,None,355.6929353134874,None,v,9.672515169550024,355.6929353134874,None,t,10.031168989484286,355.6929353134874,None,9.672515169550024,10.031168989484286,10.531149459162705,False,False,False,365.7925280654672,None,365.7925280654672,None,365.7925280654672,None,365.7925280654672,None,365.7925280654672,None,365.7925280654672,None,365.7925280654672,None,365.7925280654672,None,366.7931356493573,None,366.7931356493573,None,367.77366313098173,None,367.77366313098173,None,h,,,,,,,,,,,,,,,,,,,,,,,,,,,,,,,,,,,,,,,,,,,,,,,63_64Exp,001,2021_May_21_1444,ComputerHuman,2020.1.3,60.0009431487529,
Human.xlsx,h,Sychronize.jpg,Number9.jpg,9,Human,,,,,0,0,0,4,0,2,2,6,,,,,,,,,,,,,,,,,,,,,,,,,,,,,368.84087108410677,None,368.84087108410677,None,369.27377300293665,None,369.27377300293665,None,v,9.463075163646863,369.27377300293665,None,t,8.894231642163504,369.27377300293665,None,9.463075163646863,8.894231642163504,9.199855886112784,False,False,False,378.82140626478576,None,378.82140626478576,None,378.82140626478576,None,378.82140626478576,None,378.82140626478576,None,378.82140626478576,None,378.82140626478576,None,378.82140626478576,None,379.80653329120105,None,379.80653329120105,None,380.8045090808773,None,380.8045090808773,None,h,,,,,,,,,,,,,,,,,,,,,,,,,,,,,,,,,,,,,,,,,,,,,,,63_64Exp,001,2021_May_21_1444,ComputerHuman,2020.1.3,60.0009431487529,
Human.xlsx,h,Sychronize.jpg,Number6.jpg,6,Human,,,,,0,0,0,4,0,3,3,0,,,,,,,,,,,,,,,,,,,,,,,,,,,,,381.8544842995361,None,381.8544842995361,None,382.30443706261576,None,382.30443706261576,None,v,5.932407414831687,382.30443706261576,None,t,6.163312711625622,382.30443706261576,None,5.932407414831687,6.163312711625622,5.891360353611773,True,False,False,388.55304698188775,None,388.55304698188775,None,388.55304698188775,None,388.55304698188775,None,388.55304698188775,None,388.55304698188775,None,388.55304698188775,None,388.55304698188775,None,389.5216316225924,None,389.5216316225924,None,390.519264804243,None,390.519264804243,None,h,,,,,,,,,,,,,,,,,,,,,,,,,,,,,,,,,,,,,,,,,,,,,,,63_64Exp,001,2021_May_21_1444,ComputerHuman,2020.1.3,60.0009431487529,
Human.xlsx,h,Sychronize.jpg,Number7.jpg,7,Human,,,,,0,0,0,4,0,4,4,2,,,,,,,,,,,,,,,,,,,,,,,,,,,,,391.58600888920046,None,391.58600888920046,None,392.0361470712305,None,392.0361470712305,None,v,6.552261357312091,392.0361470712305,None,t,7.1312596137941,392.0361470712305,None,6.552261357312091,7.1312596137941,6.835034175035231,False,False,False,399.2509376007474,None,399.2509376007474,None,399.2509376007474,None,399.2509376007474,None,399.2509376007474,None,399.2509376007474,None,399.2509376007474,None,399.2509376007474,None,400.23615573266943,None,400.23615573266943,None,401.21720450458815,None,401.21720450458815,None,h,,,,,,,,,,,,,,,,,,,,,,,,,,,,,,,,,,,,,,,,,,,,,,,63_64Exp,001,2021_May_21_1444,ComputerHuman,2020.1.3,60.0009431487529,
Human.xlsx,h,Sychronize.jpg,Number9.jpg,9,Human,,,,,0,0,0,4,0,5,5,7,,,,,,,,,,,,,,,,,,,,,,,,,,,,,402.283752584397,None,402.283752584397,None,402.717433391128,None,402.717433391128,None,v,9.354892189145176,402.717433391128,None,t,9.214470377079124,402.717433391128,None,9.354892189145176,9.214470377079124,8.878982981548317,True,False,False,412.1650600767025,None,412.1650600767025,None,412.1650600767025,None,412.1650600767025,None,412.1650600767025,None,412.1650600767025,None,412.1650600767025,None,412.1650600767025,None,413.15017876247293,None,413.15017876247293,None,414.16468667245135,None,414.16468667245135,None,h,,,,,,,,,,,,,,,,,,,,,,,,,,,,,,,,,,,,,,,,,,,,,,,63_64Exp,001,2021_May_21_1444,ComputerHuman,2020.1.3,60.0009431487529,
Human.xlsx,h,Sychronize.jpg,Number8.jpg,8,Human,,,,,0,0,0,4,0,6,6,5,,,,,,,,,,,,,,,,,,,,,,,,,,,,,415.21597040995766,None,415.21597040995766,None,415.6651016195283,None,415.6651016195283,None,v,8.418538045370951,415.6651016195283,None,t,8.906248265706381,415.6651016195283,None,8.418538045370951,8.906248265706381,7.7207069903741,False,False,False,424.6626764166649,None,424.6626764166649,None,424.6626764166649,None,424.6626764166649,None,424.6626764166649,None,424.6626764166649,None,424.6626764166649,None,424.6626764166649,None,425.64785701568326,None,425.64785701568326,None,426.6456874856631,None,426.6456874856631,None,h,,,,,,,,,,,,,,,,,,,,,,,,,,,,,,,,,,,,,,,,,,,,,,,63_64Exp,001,2021_May_21_1444,ComputerHuman,2020.1.3,60.0009431487529,
Human.xlsx,h,Sychronize.jpg,Number6.jpg,6,Human,,,,,0,0,0,4,0,7,7,1,,,,,,,,,,,,,,,,,,,,,,,,,,,,,427.6958381786608,None,427.6958381786608,None,428.14592856237505,None,428.14592856237505,None,v,6.349489376101701,428.14592856237505,None,t,6.3888235360136605,428.14592856237505,None,6.349489376101701,6.3888235360136605,6.010132916703773,True,False,False,434.6274080002804,None,434.6274080002804,None,434.6274080002804,None,434.6274080002804,None,434.6274080002804,None,434.6274080002804,None,434.6274080002804,None,434.6274080002804,None,435.5963009240477,None,435.5963009240477,None,436.59377306709575,None,436.59377306709575,None,h,,,,,,,,,,,,,,,,,,,,,,,,,,,,,,,,,,,,,,,,,,,,,,,63_64Exp,001,2021_May_21_1444,ComputerHuman,2020.1.3,60.0009431487529,
Human.xlsx,h,Sychronize.jpg,Number8.jpg,8,Human,,,,,0,0,0,4,0,8,8,4,,,,,,,,,,,,,,,,,,,,,,,,,,,,,437.6608668175468,None,437.6608668175468,None,438.09386625776096,None,438.09386625776096,None,v,8.46526426210039,438.09386625776096,None,t,8.148201708867418,438.09386625776096,None,8.46526426210039,8.148201708867418,7.678077776619755,False,False,False,446.6417311328987,None,446.6417311328987,None,446.6417311328987,None,446.6417311328987,None,446.6417311328987,None,446.6417311328987,None,446.6417311328987,None,446.6417311328987,None,447.6272508112088,None,447.6272508112088,None,448.62467772229866,None,448.62467772229866,None,h,,,,,,,,,,,,,,,,,,,,,,,,,,,,,,,,,,,,,,,,,,,,,,,63_64Exp,001,2021_May_21_1444,ComputerHuman,2020.1.3,60.0009431487529,
Human.xlsx,h,Sychronize.jpg,Number10.jpg,10,Human,,,,,0,0,0,4,0,9,9,9,,,,,,,,,,,,,,,,,,,,,,,,,,,,,449.6743972681179,None,449.6743972681179,None,450.10817655861683,None,450.10817655861683,None,v,11.02660184488559,450.10817655861683,None,t,10.194140376257565,450.10817655861683,None,11.02660184488559,10.194140376257565,9.871877852312887,False,False,False,461.22226920072353,None,461.22226920072353,None,461.22226920072353,None,461.22226920072353,None,461.22226920072353,None,461.22226920072353,None,461.22226920072353,None,461.22226920072353,None,462.20759191149773,None,462.20759191149773,None,463.20526711716593,None,463.20526711716593,None,h,,,,,,,,,,,,,,,,,,,,,,,,,,,,,,,,,,,,,,,,,,,,,,,63_64Exp,001,2021_May_21_1444,ComputerHuman,2020.1.3,60.0009431487529,
Human.xlsx,h,,,,,,,,,0,0,0,4,,,,,,,,,,,,,,,,,,,,,,,,,,,,,,,,,,,,,,,,,,,,,,,,,,,,,,,,,,,,,,,,,,,,,,,,,,,,,,,h,464.2062561251587,None,464.2062561251587,None,a,0,7.480255608683365,464.2062561251587,None,o,1,8.315238839171798,464.2062561251587,None,c,h,472.636932375015,None,472.636932375015,None,474.61970573563667,None,None,None,None,None,None,None,None,,,,,,,,,,,,,,,,,,63_64Exp,001,2021_May_21_1444,ComputerHuman,2020.1.3,60.0009431487529,
Computer.xlsx,c,Sychronize.jpg,Number6.jpg,6,Computer,,,,,0,1,1,3,0,0,0,0,,,,,,,,,,,,,,,,,,,,,,,,,479.621886172652,None,479.621886172652,None,482.7018556330622,None,482.7018556330622,None,483.1350693636887,None,483.1350693636887,None,v,5.60305427995263,483.1350693636887,None,t,5.958300625708944,483.1350693636887,None,5.60305427995263,5.958300625708944,5.636598104470857,False,True,False,489.1668780164655,None,489.1668780164655,None,489.1668780164655,None,489.1668780164655,None,489.1668780164655,None,489.1668780164655,None,489.1668780164655,None,489.1668780164655,None,490.16648953489494,None,490.16648953489494,None,491.1664946675992,None,491.1664946675992,None,c,,,,,,,,,,,,,,,,,,,,,,,,,,,,,,,,,,,,,,,,,,,,,,,63_64Exp,001,2021_May_21_1444,ComputerHuman,2020.1.3,60.0009431487529,
Computer.xlsx,c,Sychronize.jpg,Number7.jpg,7,Computer,,,,,0,1,1,3,0,1,1,3,,,,,,,,,,,,,,,,,,,,,,,,,,,,,492.21715510230933,None,492.21715510230933,None,492.66665875374747,None,492.66665875374747,None,v,6.967116366431583,492.66665875374747,None,t,7.718383903840731,492.66665875374747,None,6.967116366431583,7.718383903840731,7.0393102847481765,False,True,False,500.46611308310094,None,500.46611308310094,None,500.46611308310094,None,500.46611308310094,None,500.46611308310094,None,500.46611308310094,None,500.46611308310094,None,500.46611308310094,None,501.48118013707426,None,501.48118013707426,None,502.4476443292442,None,502.4476443292442,None,c,,,,,,,,,,,,,,,,,,,,,,,,,,,,,,,,,,,,,,,,,,,,,,,63_64Exp,001,2021_May_21_1444,ComputerHuman,2020.1.3,60.0009431487529,
Computer.xlsx,c,Sychronize.jpg,Number9.jpg,9,Computer,,,,,0,1,1,3,0,2,2,6,,,,,,,,,,,,,,,,,,,,,,,,,,,,,503.49719898693,None,503.49719898693,None,503.94761593897056,None,503.94761593897056,None,v,10.22582841048279,503.94761593897056,None,t,9.82924358371747,503.94761593897056,None,10.22582841048279,9.82924358371747,9.378410066997098,False,False,False,514.2620069195254,None,514.2620069195254,None,514.2620069195254,None,514.2620069195254,None,514.2620069195254,None,514.2620069195254,None,514.2620069195254,None,514.2620069195254,None,515.2618555047447,None,515.2618555047447,None,516.245014780583,None,516.245014780583,None,c,,,,,,,,,,,,,,,,,,,,,,,,,,,,,,,,,,,,,,,,,,,,,,,63_64Exp,001,2021_May_21_1444,ComputerHuman,2020.1.3,60.0009431487529,
Computer.xlsx,c,Sychronize.jpg,Number9.jpg,9,Computer,,,,,0,1,1,3,0,3,3,7,,,,,,,,,,,,,,,,,,,,,,,,,,,,,517.2781566533486,None,517.2781566533486,None,517.7285088049939,None,517.7285088049939,None,v,9.41659435434849,517.7285088049939,None,t,9.78848349434702,517.7285088049939,None,9.41659435434849,9.78848349434702,8.995193380446686,False,False,False,527.6094897289768,None,527.6094897289768,None,527.6094897289768,None,527.6094897289768,None,527.6094897289768,None,527.6094897289768,None,527.6094897289768,None,527.6094897289768,None,528.6092356601039,None,528.6092356601039,None,529.5924084092949,None,529.5924084092949,None,c,,,,,,,,,,,,,,,,,,,,,,,,,,,,,,,,,,,,,,,,,,,,,,,63_64Exp,001,2021_May_21_1444,ComputerHuman,2020.1.3,60.0009431487529,
Computer.xlsx,c,Sychronize.jpg,Number7.jpg,7,Computer,,,,,0,1,1,3,0,4,4,2,,,,,,,,,,,,,,,,,,,,,,,,,,,,,530.6426928733999,None,530.6426928733999,None,531.0922770441393,None,531.0922770441393,None,v,7.616536932211602,531.0922770441393,None,t,7.732313742977567,531.0922770441393,None,7.616536932211602,7.732313742977567,6.758587532947922,False,False,False,538.8912488992755,None,538.8912488992755,None,538.8912488992755,None,538.8912488992755,None,538.8912488992755,None,538.8912488992755,None,538.8912488992755,None,538.8912488992755,None,539.8903503551992,None,539.8903503551992,None,540.8735195756526,None,540.8735195756526,None,c,,,,,,,,,,,,,,,,,,,,,,,,,,,,,,,,,,,,,,,,,,,,,,,63_64Exp,001,2021_May_21_1444,ComputerHuman,2020.1.3,60.0009431487529,
Computer.xlsx,c,Sychronize.jpg,Number10.jpg,10,Computer,,,,,0,1,1,3,0,5,5,8,,,,,,,,,,,,,,,,,,,,,,,,,,,,,541.940438814152,None,541.940438814152,None,542.3902135365461,None,542.3902135365461,None,v,10.366267545428855,542.3902135365461,None,t,10.445222975911747,542.3902135365461,None,10.366267545428855,10.445222975911747,10.217591567451478,False,True,True,552.921143053285,None,552.921143053285,None,552.921143053285,None,552.921143053285,None,552.921143053285,None,552.921143053285,None,552.921143053285,None,552.921143053285,None,553.9037136720799,None,553.9037136720799,None,554.8875543144386,None,554.8875543144386,None,c,,,,,,,,,,,,,,,,,,,,,,,,,,,,,,,,,,,,,,,,,,,,,,,63_64Exp,001,2021_May_21_1444,ComputerHuman,2020.1.3,60.0009431487529,
Computer.xlsx,c,Sychronize.jpg,Number8.jpg,8,Computer,,,,,0,1,1,3,0,6,6,4,,,,,,,,,,,,,,,,,,,,,,,,,,,,,555.9378747074734,None,555.9378747074734,None,556.3878085437063,None,556.3878085437063,None,v,6.3524743645466515,556.3878085437063,None,t,8.347233873282676,556.3878085437063,None,6.3524743645466515,8.347233873282676,8.544558812403714,False,False,True,564.8188854653017,None,564.8188854653017,None,564.8188854653017,None,564.8188854653017,None,564.8188854653017,None,564.8188854653017,None,564.8188854653017,None,564.8188854653017,None,565.8187173692313,None,565.8187173692313,None,566.7853002551892,None,566.7853002551892,None,c,,,,,,,,,,,,,,,,,,,,,,,,,,,,,,,,,,,,,,,,,,,,,,,63_64Exp,001,2021_May_21_1444,ComputerHuman,2020.1.3,60.0009431487529,
Computer.xlsx,c,Sychronize.jpg,Number8.jpg,8,Computer,,,,,0,1,1,3,0,7,7,5,,,,,,,,,,,,,,,,,,,,,,,,,,,,,567.8354689126536,None,567.8354689126536,None,568.2852712233325,None,568.2852712233325,None,v,11.550532598284917,568.2852712233325,None,t,8.462239495198446,568.2852712233325,None,11.550532598284917,8.462239495198446,7.575222773918334,False,False,False,579.9170131509491,None,579.9170131509491,None,579.9170131509491,None,579.9170131509491,None,579.9170131509491,None,579.9170131509491,None,579.9170131509491,None,579.9170131509491,None,580.9323310658547,None,580.9323310658547,None,581.9155920334015,None,581.9155920334015,None,c,,,,,,,,,,,,,,,,,,,,,,,,,,,,,,,,,,,,,,,,,,,,,,,63_64Exp,001,2021_May_21_1444,ComputerHuman,2020.1.3,60.0009431487529,
Computer.xlsx,c,Sychronize.jpg,Number10.jpg,10,Computer,,,,,0,1,1,3,0,8,8,9,,,,,,,,,,,,,,,,,,,,,,,,,,,,,582.9497001377786,None,582.9497001377786,None,583.3991710682276,None,583.3991710682276,None,v,11.456267272755213,583.3991710682276,None,t,11.023187634029455,583.3991710682276,None,11.456267272755213,11.023187634029455,10.144659397860055,False,False,False,594.9464257931213,None,594.9464257931213,None,594.9464257931213,None,594.9464257931213,None,594.9464257931213,None,594.9464257931213,None,594.9464257931213,None,594.9464257931213,None,595.9459449228707,None,595.9459449228707,None,596.9293746280782,None,596.9293746280782,None,c,,,,,,,,,,,,,,,,,,,,,,,,,,,,,,,,,,,,,,,,,,,,,,,63_64Exp,001,2021_May_21_1444,ComputerHuman,2020.1.3,60.0009431487529,
Computer.xlsx,c,Sychronize.jpg,Number6.jpg,6,Computer,,,,,0,1,1,3,0,9,9,1,,,,,,,,,,,,,,,,,,,,,,,,,,,,,597.979045092412,None,597.979045092412,None,598.4294780841519,None,598.4294780841519,None,v,5.925738748548611,598.4294780841519,None,t,6.149299786829943,598.4294780841519,None,5.925738748548611,6.149299786829943,6.121017502678892,False,True,True,604.6609774914868,None,604.6609774914868,None,604.6609774914868,None,604.6609774914868,None,604.6609774914868,None,604.6609774914868,None,604.6609774914868,None,604.6609774914868,None,605.6443584359986,None,605.6443584359986,None,606.6275376010708,None,606.6275376010708,None,c,,,,,,,,,,,,,,,,,,,,,,,,,,,,,,,,,,,,,,,,,,,,,,,63_64Exp,001,2021_May_21_1444,ComputerHuman,2020.1.3,60.0009431487529,
Computer.xlsx,c,,,,,,,,,0,1,1,3,,,,,,,,,,,,,,,,,,,,,,,,,,,,,,,,,,,,,,,,,,,,,,,,,,,,,,,,,,,,,,,,,,,,,,,,,,,,,,,c,607.6448338527516,None,607.6448338527516,None,q,0,3.814215987415082,607.6448338527516,None,o,0,9.029252565953357,607.6448338527516,None,h,h,616.7592854633767,None,616.7592854633767,None,618.7418374761219,None,None,None,None,None,None,None,None,,,,,,,,,,,,,,,,,,63_64Exp,001,2021_May_21_1444,ComputerHuman,2020.1.3,60.0009431487529,
Human.xlsx,h,Sychronize.jpg,Number9.jpg,9,Human,,,,,0,2,2,0,0,0,0,7,,,,,,,,,,,,,,,,,,,,,,,,,623.7432714254319,None,623.7432714254319,None,626.8402641418033,None,626.8402641418033,None,627.2741265179575,None,627.2741265179575,None,v,9.060299653701804,627.2741265179575,None,t,8.399195769368816,627.2741265179575,None,9.060299653701804,8.399195769368816,9.012753452781388,False,False,False,636.4067479024088,None,636.4067479024088,None,636.4067479024088,None,636.4067479024088,None,636.4067479024088,None,636.4067479024088,None,636.4067479024088,None,636.4067479024088,None,637.3902789785279,None,637.3902789785279,None,638.3880452896992,None,638.3880452896992,None,h,,,,,,,,,,,,,,,,,,,,,,,,,,,,,,,,,,,,,,,,,,,,,,,63_64Exp,001,2021_May_21_1444,ComputerHuman,2020.1.3,60.0009431487529,
Human.xlsx,h,Sychronize.jpg,Number7.jpg,7,Human,,,,,0,2,2,0,0,1,1,3,,,,,,,,,,,,,,,,,,,,,,,,,,,,,639.4546629818105,None,639.4546629818105,None,639.8879418336255,None,639.8879418336255,None,v,7.2262146464927355,639.8879418336255,None,t,6.937196228103858,639.8879418336255,None,7.2262146464927355,6.937196228103858,7.452436896245747,True,False,False,647.2029843468554,None,647.2029843468554,None,647.2029843468554,None,647.2029843468554,None,647.2029843468554,None,647.2029843468554,None,647.2029843468554,None,647.2029843468554,None,648.1883266260629,None,648.1883266260629,None,649.185931257045,None,649.185931257045,None,h,,,,,,,,,,,,,,,,,,,,,,,,,,,,,,,,,,,,,,,,,,,,,,,63_64Exp,001,2021_May_21_1444,ComputerHuman,2020.1.3,60.0009431487529,
Human.xlsx,h,Sychronize.jpg,Number6.jpg,6,Human,,,,,0,2,2,0,0,2,2,1,,,,,,,,,,,,,,,,,,,,,,,,,,,,,650.2357845739753,None,650.2357845739753,None,650.6695706011524,None,650.6695706011524,None,v,5.224354682712146,650.6695706011524,None,t,5.92727278559687,650.6695706011524,None,5.224354682712146,5.92727278559687,6.449538679672526,False,False,False,656.6692145197776,None,656.6692145197776,None,656.6692145197776,None,656.6692145197776,None,656.6692145197776,None,656.6692145197776,None,656.6692145197776,None,656.6692145197776,None,657.6701416145224,None,657.6701416145224,None,658.667431225771,None,658.667431225771,None,h,,,,,,,,,,,,,,,,,,,,,,,,,,,,,,,,,,,,,,,,,,,,,,,63_64Exp,001,2021_May_21_1444,ComputerHuman,2020.1.3,60.0009431487529,
Human.xlsx,h,Sychronize.jpg,Number10.jpg,10,Human,,,,,0,2,2,0,0,3,3,9,,,,,,,,,,,,,,,,,,,,,,,,,,,,,659.71726080394,None,659.71726080394,None,660.1674182336101,None,660.1674182336101,None,v,9.726150648082694,660.1674182336101,None,t,9.801149725801224,660.1674182336101,None,9.726150648082694,9.801149725801224,9.544431814430178,True,False,False,670.0491472492722,None,670.0491472492722,None,670.0491472492722,None,670.0491472492722,None,670.0491472492722,None,670.0491472492722,None,670.0491472492722,None,670.0491472492722,None,671.0333664285827,None,671.0333664285827,None,672.0313560124014,None,672.0313560124014,None,h,,,,,,,,,,,,,,,,,,,,,,,,,,,,,,,,,,,,,,,,,,,,,,,63_64Exp,001,2021_May_21_1444,ComputerHuman,2020.1.3,60.0009431487529,
Human.xlsx,h,Sychronize.jpg,Number8.jpg,8,Human,,,,,0,2,2,0,0,4,4,4,,,,,,,,,,,,,,,,,,,,,,,,,,,,,673.0810601601079,None,673.0810601601079,None,673.5316644558588,None,673.5316644558588,None,v,7.621906703472632,673.5316644558588,None,t,7.825215373090032,673.5316644558588,None,7.621906703472632,7.825215373090032,7.429957119923296,True,False,False,681.4463682105925,None,681.4463682105925,None,681.4463682105925,None,681.4463682105925,None,681.4463682105925,None,681.4463682105925,None,681.4463682105925,None,681.4463682105925,None,682.4321721124106,None,682.4321721124106,None,683.4126646274854,None,683.4126646274854,None,h,,,,,,,,,,,,,,,,,,,,,,,,,,,,,,,,,,,,,,,,,,,,,,,63_64Exp,001,2021_May_21_1444,ComputerHuman,2020.1.3,60.0009431487529,
Human.xlsx,h,Sychronize.jpg,Number10.jpg,10,Human,,,,,0,2,2,0,0,5,5,8,,,,,,,,,,,,,,,,,,,,,,,,,,,,,684.4797930236928,None,684.4797930236928,None,684.9127841232621,None,684.9127841232621,None,v,10.12416108351681,684.9127841232621,None,t,10.055171761145175,684.9127841232621,None,10.12416108351681,10.055171761145175,10.542094345667607,True,False,False,695.1120507881096,None,695.1120507881096,None,695.1120507881096,None,695.1120507881096,None,695.1120507881096,None,695.1120507881096,None,695.1120507881096,None,695.1120507881096,None,696.1114165783147,None,696.1114165783147,None,697.1100259361956,None,697.1100259361956,None,h,,,,,,,,,,,,,,,,,,,,,,,,,,,,,,,,,,,,,,,,,,,,,,,63_64Exp,001,2021_May_21_1444,ComputerHuman,2020.1.3,60.0009431487529,
Human.xlsx,h,Sychronize.jpg,Number7.jpg,7,Human,,,,,0,2,2,0,0,6,6,2,,,,,,,,,,,,,,,,,,,,,,,,,,,,,698.1608730730295,None,698.1608730730295,None,698.6104110494271,None,698.6104110494271,None,v,7.306289968928468,698.6104110494271,None,t,7.013350805915252,698.6104110494271,None,7.306289968928468,7.013350805915252,7.411240309939014,True,False,False,705.9930294665355,None,705.9930294665355,None,705.9930294665355,None,705.9930294665355,None,705.9930294665355,None,705.9930294665355,None,705.9930294665355,None,705.9930294665355,None,706.9767777202105,None,706.9767777202105,None,707.9911903543652,None,707.9911903543652,None,h,,,,,,,,,,,,,,,,,,,,,,,,,,,,,,,,,,,,,,,,,,,,,,,63_64Exp,001,2021_May_21_1444,ComputerHuman,2020.1.3,60.0009431487529,
Human.xlsx,h,Sychronize.jpg,Number6.jpg,6,Human,,,,,0,2,2,0,0,7,7,0,,,,,,,,,,,,,,,,,,,,,,,,,,,,,709.0411158499519,None,709.0411158499519,None,709.4912755251789,None,709.4912755251789,None,v,6.197174766984972,709.4912755251789,None,t,6.304297838007187,709.4912755251789,None,6.197174766984972,6.304297838007187,6.100618914903931,True,False,False,715.8748848750402,None,715.8748848750402,None,715.8748848750402,None,715.8748848750402,None,715.8748848750402,None,715.8748848750402,None,715.8748848750402,None,715.8748848750402,None,716.8750407809384,None,716.8750407809384,None,717.855963480808,None,717.855963480808,None,h,,,,,,,,,,,,,,,,,,,,,,,,,,,,,,,,,,,,,,,,,,,,,,,63_64Exp,001,2021_May_21_1444,ComputerHuman,2020.1.3,60.0009431487529,
Human.xlsx,h,Sychronize.jpg,Number8.jpg,8,Human,,,,,0,2,2,0,0,8,8,5,,,,,,,,,,,,,,,,,,,,,,,,,,,,,718.9230097537402,None,718.9230097537402,None,719.3559498470604,None,719.3559498470604,None,v,7.932185104571545,719.3559498470604,None,t,8.531202191665216,719.3559498470604,None,7.932185104571545,8.531202191665216,7.788494154569475,False,False,False,727.9555350603805,None,727.9555350603805,None,727.9555350603805,None,727.9555350603805,None,727.9555350603805,None,727.9555350603805,None,727.9555350603805,None,727.9555350603805,None,728.956041273359,None,728.956041273359,None,729.9536385260799,None,729.9536385260799,None,h,,,,,,,,,,,,,,,,,,,,,,,,,,,,,,,,,,,,,,,,,,,,,,,63_64Exp,001,2021_May_21_1444,ComputerHuman,2020.1.3,60.0009431487529,
Human.xlsx,h,Sychronize.jpg,Number9.jpg,9,Human,,,,,0,2,2,0,0,9,9,6,,,,,,,,,,,,,,,,,,,,,,,,,,,,,731.0034511021659,None,731.0034511021659,None,731.4534147722443,None,731.4534147722443,None,v,8.726415303161048,731.4534147722443,None,t,8.813239169594453,731.4534147722443,None,8.726415303161048,8.813239169594453,8.641963003174345,True,False,False,740.3363236683435,None,740.3363236683435,None,740.3363236683435,None,740.3363236683435,None,740.3363236683435,None,740.3363236683435,None,740.3363236683435,None,740.3363236683435,None,741.3369540286112,None,741.3369540286112,None,742.3345403743333,None,742.3345403743333,None,h,,,,,,,,,,,,,,,,,,,,,,,,,,,,,,,,,,,,,,,,,,,,,,,63_64Exp,001,2021_May_21_1444,ComputerHuman,2020.1.3,60.0009431487529,
Human.xlsx,h,,,,,,,,,0,2,2,0,,,,,,,,,,,,,,,,,,,,,,,,,,,,,,,,,,,,,,,,,,,,,,,,,,,,,,,,,,,,,,,,,,,,,,,,,,,,,,,h,743.3350924608567,None,743.3350924608567,None,a,0,4.880530529164389,743.3350924608567,None,l,0,3.3473528878676007,743.3350924608567,None,c,c,748.3005676450339,None,748.3005676450339,None,750.2997213903836,None,None,None,None,None,None,None,None,,,,,,,,,,,,,,,,,,63_64Exp,001,2021_May_21_1444,ComputerHuman,2020.1.3,60.0009431487529,
Computer.xlsx,c,Sychronize.jpg,Number8.jpg,8,Computer,,,,,0,3,3,5,0,0,0,4,,,,,,,,,,,,,,,,,,,,,,,,,755.285285979855,None,755.285285979855,None,758.3820044173335,None,758.3820044173335,None,758.8151809358533,None,758.8151809358533,None,v,7.356028441598028,758.8151809358533,None,t,7.591263495403837,758.8151809358533,None,7.356028441598028,7.591263495403837,8.3076574944072,False,False,False,766.4811711548427,None,766.4811711548427,None,766.4811711548427,None,766.4811711548427,None,766.4811711548427,None,766.4811711548427,None,766.4811711548427,None,766.4811711548427,None,767.5128790782946,None,767.5128790782946,None,768.4795601272272,None,768.4795601272272,None,c,,,,,,,,,,,,,,,,,,,,,,,,,,,,,,,,,,,,,,,,,,,,,,,63_64Exp,001,2021_May_21_1444,ComputerHuman,2020.1.3,60.0009431487529,
Computer.xlsx,c,Sychronize.jpg,Number9.jpg,9,Computer,,,,,0,3,3,5,0,1,1,7,,,,,,,,,,,,,,,,,,,,,,,,,,,,,769.5293207346804,None,769.5293207346804,None,769.9797360827506,None,769.9797360827506,None,v,8.011148234108987,769.9797360827506,None,t,9.110240226607857,769.9797360827506,None,8.011148234108987,9.110240226607857,9.533632651787343,False,False,False,779.1621803087,None,779.1621803087,None,779.1621803087,None,779.1621803087,None,779.1621803087,None,779.1621803087,None,779.1621803087,None,779.1621803087,None,780.1772342101176,None,780.1772342101176,None,781.1603694264049,None,781.1603694264049,None,c,,,,,,,,,,,,,,,,,,,,,,,,,,,,,,,,,,,,,,,,,,,,,,,63_64Exp,001,2021_May_21_1444,ComputerHuman,2020.1.3,60.0009431487529,
Computer.xlsx,c,Sychronize.jpg,Number6.jpg,6,Computer,,,,,0,3,3,5,0,2,2,0,,,,,,,,,,,,,,,,,,,,,,,,,,,,,782.1942571452855,None,782.1942571452855,None,782.6601206506348,None,782.6601206506348,None,v,5.90683916830676,782.6601206506348,None,t,6.4732767345740285,782.6601206506348,None,5.90683916830676,6.4732767345740285,6.3285534700113155,False,False,True,789.2254056039492,None,789.2254056039492,None,789.2254056039492,None,789.2254056039492,None,789.2254056039492,None,789.2254056039492,None,789.2254056039492,None,789.2254056039492,None,790.2084407325019,None,790.2084407325019,None,791.2083948589534,None,791.2083948589534,None,c,,,,,,,,,,,,,,,,,,,,,,,,,,,,,,,,,,,,,,,,,,,,,,,63_64Exp,001,2021_May_21_1444,ComputerHuman,2020.1.3,60.0009431487529,
Computer.xlsx,c,Sychronize.jpg,Number6.jpg,6,Computer,,,,,0,3,3,5,0,3,3,1,,,,,,,,,,,,,,,,,,,,,,,,,,,,,792.2421106322363,None,792.2421106322363,None,792.7088200714388,None,792.7088200714388,None,v,6.381655714223598,792.7088200714388,None,t,6.373327580426121,792.7088200714388,None,6.381655714223598,6.373327580426121,5.821048271973555,False,False,False,799.1735755542104,None,799.1735755542104,None,799.1735755542104,None,799.1735755542104,None,799.1735755542104,None,799.1735755542104,None,799.1735755542104,None,799.1735755542104,None,800.1899806400797,None,800.1899806400797,None,801.1565391456934,None,801.1565391456934,None,c,,,,,,,,,,,,,,,,,,,,,,,,,,,,,,,,,,,,,,,,,,,,,,,63_64Exp,001,2021_May_21_1444,ComputerHuman,2020.1.3,60.0009431487529,
Computer.xlsx,c,Sychronize.jpg,Number10.jpg,10,Computer,,,,,0,3,3,5,0,4,4,9,,,,,,,,,,,,,,,,,,,,,,,,,,,,,802.2230551460962,None,802.2230551460962,None,802.6568270583339,None,802.6568270583339,None,v,10.285178513855499,802.6568270583339,None,t,10.244197718191572,802.6568270583339,None,10.285178513855499,10.244197718191572,9.766407473965614,False,False,False,813.022579729346,None,813.022579729346,None,813.022579729346,None,813.022579729346,None,813.022579729346,None,813.022579729346,None,813.022579729346,None,813.022579729346,None,814.0373725044228,None,814.0373725044228,None,815.0205221564393,None,815.0205221564393,None,c,,,,,,,,,,,,,,,,,,,,,,,,,,,,,,,,,,,,,,,,,,,,,,,63_64Exp,001,2021_May_21_1444,ComputerHuman,2020.1.3,60.0009431487529,
Computer.xlsx,c,Sychronize.jpg,Number7.jpg,7,Computer,,,,,0,3,3,5,0,5,5,3,,,,,,,,,,,,,,,,,,,,,,,,,,,,,816.0705095652738,None,816.0705095652738,None,816.5205713983232,None,816.5205713983232,None,v,6.917167773674009,816.5205713983232,None,t,7.516259926571365,816.5205713983232,None,6.917167773674009,7.516259926571365,7.295947922681665,False,False,True,824.1520714472463,None,824.1520714472463,None,824.1520714472463,None,824.1520714472463,None,824.1520714472463,None,824.1520714472463,None,824.1520714472463,None,824.1520714472463,None,825.1352419508767,None,825.1352419508767,None,826.1183364263234,None,826.1183364263234,None,c,,,,,,,,,,,,,,,,,,,,,,,,,,,,,,,,,,,,,,,,,,,,,,,63_64Exp,001,2021_May_21_1444,ComputerHuman,2020.1.3,60.0009431487529,
Computer.xlsx,c,Sychronize.jpg,Number9.jpg,9,Computer,,,,,0,3,3,5,0,6,6,6,,,,,,,,,,,,,,,,,,,,,,,,,,,,,827.1685551276496,None,827.1685551276496,None,827.6183795731195,None,827.6183795731195,None,v,9.303076254345797,827.6183795731195,None,t,9.230339736917813,827.6183795731195,None,9.303076254345797,9.230339736917813,8.957793874035637,False,False,True,837.0162369897953,None,837.0162369897953,None,837.0162369897953,None,837.0162369897953,None,837.0162369897953,None,837.0162369897953,None,837.0162369897953,None,837.0162369897953,None,837.9992698727874,None,837.9992698727874,None,838.9825372562154,None,838.9825372562154,None,c,,,,,,,,,,,,,,,,,,,,,,,,,,,,,,,,,,,,,,,,,,,,,,,63_64Exp,001,2021_May_21_1444,ComputerHuman,2020.1.3,60.0009431487529,
Computer.xlsx,c,Sychronize.jpg,Number10.jpg,10,Computer,,,,,0,3,3,5,0,7,7,8,,,,,,,,,,,,,,,,,,,,,,,,,,,,,840.0660373757128,None,840.0660373757128,None,840.4828405669723,None,840.4828405669723,None,v,9.938370013456733,840.4828405669723,None,t,10.37718320386557,840.4828405669723,None,9.938370013456733,10.37718320386557,10.213072584553645,False,True,True,850.9469403467447,None,850.9469403467447,None,850.9469403467447,None,850.9469403467447,None,850.9469403467447,None,850.9469403467447,None,850.9469403467447,None,850.9469403467447,None,851.9466153823923,None,851.9466153823923,None,852.9131584898932,None,852.9131584898932,None,c,,,,,,,,,,,,,,,,,,,,,,,,,,,,,,,,,,,,,,,,,,,,,,,63_64Exp,001,2021_May_21_1444,ComputerHuman,2020.1.3,60.0009431487529,
Computer.xlsx,c,Sychronize.jpg,Number7.jpg,7,Computer,,,,,0,3,3,5,0,8,8,2,,,,,,,,,,,,,,,,,,,,,,,,,,,,,853.9640444428042,None,853.9640444428042,None,854.4135362248635,None,854.4135362248635,None,v,7.283256636826991,854.4135362248635,None,t,7.578256901484565,854.4135362248635,None,7.283256636826991,7.578256901484565,7.2528441846068645,False,True,False,862.0632785470589,None,862.0632785470589,None,862.0632785470589,None,862.0632785470589,None,862.0632785470589,None,862.0632785470589,None,862.0632785470589,None,862.0632785470589,None,863.0778631268113,None,863.0778631268113,None,864.0609736419574,None,864.0609736419574,None,c,,,,,,,,,,,,,,,,,,,,,,,,,,,,,,,,,,,,,,,,,,,,,,,63_64Exp,001,2021_May_21_1444,ComputerHuman,2020.1.3,60.0009431487529,
Computer.xlsx,c,Sychronize.jpg,Number8.jpg,8,Computer,,,,,0,3,3,5,0,9,9,5,,,,,,,,,,,,,,,,,,,,,,,,,,,,,865.1113960474977,None,865.1113960474977,None,865.5612288336088,None,865.5612288336088,None,v,8.007288761142263,865.5612288336088,None,t,8.266234343245742,865.5612288336088,None,8.007288761142263,8.266234343245742,7.826056214724066,False,True,False,873.8939329829191,None,873.8939329829191,None,873.8939329829191,None,873.8939329829191,None,873.8939329829191,None,873.8939329829191,None,873.8939329829191,None,873.8939329829191,None,874.9255626326267,None,874.9255626326267,None,875.908695603357,None,875.908695603357,None,c,,,,,,,,,,,,,,,,,,,,,,,,,,,,,,,,,,,,,,,,,,,,,,,63_64Exp,001,2021_May_21_1444,ComputerHuman,2020.1.3,60.0009431487529,
Computer.xlsx,c,,,,,,,,,0,3,3,5,,,,,,,,,,,,,,,,,,,,,,,,,,,,,,,,,,,,,,,,,,,,,,,,,,,,,,,,,,,,,,,,,,,,,,,,,,,,,,,c,876.9091148811531,None,876.9091148811531,None,q,0,3.2792361252577393,876.9091148811531,None,o,0,3.5263822613705997,876.9091148811531,None,h,h,880.5252415178038,None,880.5252415178038,None,882.5240728651552,None,None,None,None,None,None,None,None,,,,,,,,,,,,,,,,,,63_64Exp,001,2021_May_21_1444,ComputerHuman,2020.1.3,60.0009431487529,
Human.xlsx,h,Sychronize.jpg,Number10.jpg,10,Human,,,,,0,4,4,8,0,0,0,8,,,,,,,,,,,,,,,,,,,,,,,,,887.5097834159096,None,887.5097834159096,None,890.6064222964669,None,890.6064222964669,None,891.0395997773667,None,891.0395997773667,None,v,8.76025618611311,891.0395997773667,None,t,10.07519091255017,891.0395997773667,None,8.76025618611311,10.07519091255017,10.545121281543615,False,False,False,901.2037696506377,None,901.2037696506377,None,901.2037696506377,None,901.2037696506377,None,901.2037696506377,None,901.2037696506377,None,901.2037696506377,None,901.2037696506377,None,902.2056982643444,None,902.2056982643444,None,903.1867621135825,None,903.1867621135825,None,h,,,,,,,,,,,,,,,,,,,,,,,,,,,,,,,,,,,,,,,,,,,,,,,63_64Exp,001,2021_May_21_1444,ComputerHuman,2020.1.3,60.0009431487529,
Human.xlsx,h,Sychronize.jpg,Number6.jpg,6,Human,,,,,0,4,4,8,0,1,1,1,,,,,,,,,,,,,,,,,,,,,,,,,,,,,904.2374600811927,None,904.2374600811927,None,904.6868572290114,None,904.6868572290114,None,v,5.608781736551464,904.6868572290114,None,t,5.756340253396047,904.6868572290114,None,5.608781736551464,5.756340253396047,6.36736026086041,True,False,False,910.5352448380218,None,910.5352448380218,None,910.5352448380218,None,910.5352448380218,None,910.5352448380218,None,910.5352448380218,None,910.5352448380218,None,910.5352448380218,None,911.5186033269529,None,911.5186033269529,None,912.5183168578842,None,912.5183168578842,None,h,,,,,,,,,,,,,,,,,,,,,,,,,,,,,,,,,,,,,,,,,,,,,,,63_64Exp,001,2021_May_21_1444,ComputerHuman,2020.1.3,60.0009431487529,
Human.xlsx,h,Sychronize.jpg,Number9.jpg,9,Human,,,,,0,4,4,8,0,2,2,7,,,,,,,,,,,,,,,,,,,,,,,,,,,,,913.5680870891629,None,913.5680870891629,None,914.0181540549165,None,914.0181540549165,None,v,7.569210509853292,914.0181540549165,None,t,8.91620924111703,914.0181540549165,None,7.569210509853292,8.91620924111703,9.421303775460387,False,False,False,923.0162222332692,None,923.0162222332692,None,923.0162222332692,None,923.0162222332692,None,923.0162222332692,None,923.0162222332692,None,923.0162222332692,None,923.0162222332692,None,924.0014358740736,None,924.0014358740736,None,925.015816108029,None,925.015816108029,None,h,,,,,,,,,,,,,,,,,,,,,,,,,,,,,,,,,,,,,,,,,,,,,,,63_64Exp,001,2021_May_21_1444,ComputerHuman,2020.1.3,60.0009431487529,
Human.xlsx,h,Sychronize.jpg,Number8.jpg,8,Human,,,,,0,4,4,8,0,3,3,4,,,,,,,,,,,,,,,,,,,,,,,,,,,,,926.0656934845138,None,926.0656934845138,None,926.515782905848,None,926.515782905848,None,v,7.451220220289542,926.515782905848,None,t,8.238505228142458,926.515782905848,None,7.451220220289542,8.238505228142458,8.466671645394918,False,False,False,934.8321913600521,None,934.8321913600521,None,934.8321913600521,None,934.8321913600521,None,934.8321913600521,None,934.8321913600521,None,934.8321913600521,None,934.8321913600521,None,935.8161728309897,None,935.8161728309897,None,936.813495804814,None,936.813495804814,None,h,,,,,,,,,,,,,,,,,,,,,,,,,,,,,,,,,,,,,,,,,,,,,,,63_64Exp,001,2021_May_21_1444,ComputerHuman,2020.1.3,60.0009431487529,
Human.xlsx,h,Sychronize.jpg,Number9.jpg,9,Human,,,,,0,4,4,8,0,4,4,6,,,,,,,,,,,,,,,,,,,,,,,,,,,,,937.8804445563655,None,937.8804445563655,None,938.313833119737,None,938.313833119737,None,v,9.488985376603523,938.313833119737,None,t,9.476194997860148,938.313833119737,None,9.488985376603523,9.476194997860148,9.346328010340713,True,False,False,947.8947692929542,None,947.8947692929542,None,947.8947692929542,None,947.8947692929542,None,947.8947692929542,None,947.8947692929542,None,947.8947692929542,None,947.8947692929542,None,948.8808150734694,None,948.8808150734694,None,949.8610939397186,None,949.8610939397186,None,h,,,,,,,,,,,,,,,,,,,,,,,,,,,,,,,,,,,,,,,,,,,,,,,63_64Exp,001,2021_May_21_1444,ComputerHuman,2020.1.3,60.0009431487529,
Human.xlsx,h,Sychronize.jpg,Number7.jpg,7,Human,,,,,0,4,4,8,0,5,5,3,,,,,,,,,,,,,,,,,,,,,,,,,,,,,950.9278646505809,None,950.9278646505809,None,951.3779582422394,None,951.3779582422394,None,v,7.944432058229722,951.3779582422394,None,t,7.687639004063385,951.3779582422394,None,7.944432058229722,7.687639004063385,7.081426343726168,True,False,False,959.4091496873043,None,959.4091496873043,None,959.4091496873043,None,959.4091496873043,None,959.4091496873043,None,959.4091496873043,None,959.4091496873043,None,959.4091496873043,None,960.3945121765391,None,960.3945121765391,None,961.3921408670722,None,961.3921408670722,None,h,,,,,,,,,,,,,,,,,,,,,,,,,,,,,,,,,,,,,,,,,,,,,,,63_64Exp,001,2021_May_21_1444,ComputerHuman,2020.1.3,60.0009431487529,
Human.xlsx,h,Sychronize.jpg,Number8.jpg,8,Human,,,,,0,4,4,8,0,6,6,5,,,,,,,,,,,,,,,,,,,,,,,,,,,,,962.4419021161157,None,962.4419021161157,None,962.8920880964542,None,962.8920880964542,None,v,8.618003602518002,962.8920880964542,None,t,8.077255542921193,962.8920880964542,None,8.618003602518002,8.077255542921193,8.339982597046255,False,False,False,971.6068236097999,None,971.6068236097999,None,971.6068236097999,None,971.6068236097999,None,971.6068236097999,None,971.6068236097999,None,971.6068236097999,None,971.6068236097999,None,972.5762163306608,None,972.5762163306608,None,973.5731707121449,None,973.5731707121449,None,h,,,,,,,,,,,,,,,,,,,,,,,,,,,,,,,,,,,,,,,,,,,,,,,63_64Exp,001,2021_May_21_1444,ComputerHuman,2020.1.3,60.0009431487529,
Human.xlsx,h,Sychronize.jpg,Number7.jpg,7,Human,,,,,0,4,4,8,0,7,7,2,,,,,,,,,,,,,,,,,,,,,,,,,,,,,974.6394368140027,None,974.6394368140027,None,975.089696576968,None,975.089696576968,None,v,6.512118475653551,975.089696576968,None,t,7.523292052490433,975.089696576968,None,6.512118475653551,7.523292052490433,6.847694812619174,False,False,False,982.7046439747646,None,982.7046439747646,None,982.7046439747646,None,982.7046439747646,None,982.7046439747646,None,982.7046439747646,None,982.7046439747646,None,982.7046439747646,None,983.6895361799507,None,983.6895361799507,None,984.6709817740848,None,984.6709817740848,None,h,,,,,,,,,,,,,,,,,,,,,,,,,,,,,,,,,,,,,,,,,,,,,,,63_64Exp,001,2021_May_21_1444,ComputerHuman,2020.1.3,60.0009431487529,
Human.xlsx,h,Sychronize.jpg,Number6.jpg,6,Human,,,,,0,4,4,8,0,8,8,0,,,,,,,,,,,,,,,,,,,,,,,,,,,,,985.7373033733093,None,985.7373033733093,None,986.1711991120428,None,986.1711991120428,None,v,5.766359292520065,986.1711991120428,None,t,6.565259289793175,986.1711991120428,None,5.766359292520065,6.565259289793175,5.634309826380803,False,False,False,992.8028929205575,None,992.8028929205575,None,992.8028929205575,None,992.8028929205575,None,992.8028929205575,None,992.8028929205575,None,992.8028929205575,None,992.8028929205575,None,993.8046117349659,None,993.8046117349659,None,994.8023167744796,None,994.8023167744796,None,h,,,,,,,,,,,,,,,,,,,,,,,,,,,,,,,,,,,,,,,,,,,,,,,63_64Exp,001,2021_May_21_1444,ComputerHuman,2020.1.3,60.0009431487529,
Human.xlsx,h,Sychronize.jpg,Number10.jpg,10,Human,,,,,0,4,4,8,0,9,9,9,,,,,,,,,,,,,,,,,,,,,,,,,,,,,995.8519785773751,None,995.8519785773751,None,996.3023996997363,None,996.3023996997363,None,v,10.750783459217928,996.3023996997363,None,t,9.582202988840436,996.3023996997363,None,10.750783459217928,9.582202988840436,9.677453899618335,False,False,False,1007.1333527948373,None,1007.1333527948373,None,1007.1333527948373,None,1007.1333527948373,None,1007.1333527948373,None,1007.1333527948373,None,1007.1333527948373,None,1007.1333527948373,None,1008.1353215077943,None,1008.1353215077943,None,1009.1328764157042,None,1009.1328764157042,None,h,,,,,,,,,,,,,,,,,,,,,,,,,,,,,,,,,,,,,,,,,,,,,,,63_64Exp,001,2021_May_21_1444,ComputerHuman,2020.1.3,60.0009431487529,
Human.xlsx,h,,,,,,,,,0,4,4,8,,,,,,,,,,,,,,,,,,,,,,,,,,,,,,,,,,,,,,,,,,,,,,,,,,,,,,,,,,,,,,,,,,,,,,,,,,,,,,,h,1010.1338038312424,None,1010.1338038312424,None,q,0,2.087302811920381,1010.1338038312424,None,l,0,2.3104128137965745,1010.1338038312424,None,h,c,1012.5331930394095,None,1012.5331930394095,None,None,None,1014.5318617441881,None,1014.5318617441881,None,"['space', 'space']",1015.5150328894088,None,"[1.4539995797604206, 3.5219617196489708]",,,,,,,,,,,,,,,,,63_64Exp,001,2021_May_21_1444,ComputerHuman,2020.1.3,60.0009431487529,
Computer.xlsx,c,Sychronize.jpg,Number8.jpg,8,Computer,,,,,0,5,5,7,0,0,0,4,,,,,,,,,,,,,,,,,,,,,,,,,1019.1008416031364,None,1019.1008416031364,None,1022.1804434335863,None,1022.1804434335863,None,1022.5969062623808,None,1022.5969062623808,None,v,8.127727350736677,1022.5969062623808,None,t,7.363277424279659,1022.5969062623808,None,8.127727350736677,7.363277424279659,7.706775752748922,False,False,False,1030.7969293595488,None,1030.7969293595488,None,1030.7969293595488,None,1030.7969293595488,None,1030.7969293595488,None,1030.7969293595488,None,1030.7969293595488,None,1030.7969293595488,None,1031.8285153812722,None,1031.8285153812722,None,1032.8116823561686,None,1032.8116823561686,None,c,,,,,,,,,,,,,,,,,,,,,,,,,,,,,,,,,,,,,,,,,,,,,,,63_64Exp,001,2021_May_21_1444,ComputerHuman,2020.1.3,60.0009431487529,
Computer.xlsx,c,Sychronize.jpg,Number8.jpg,8,Computer,,,,,0,5,5,7,0,1,1,5,,,,,,,,,,,,,,,,,,,,,,,,,,,,,1033.8620165433458,None,1033.8620165433458,None,1034.2949611277836,None,1034.2949611277836,None,v,7.3253772136777116,1034.2949611277836,None,t,7.244236534272204,1034.2949611277836,None,7.3253772136777116,7.244236534272204,7.444343259379977,False,True,True,1041.7099133374904,None,1041.7099133374904,None,1041.7099133374904,None,1041.7099133374904,None,1041.7099133374904,None,1041.7099133374904,None,1041.7099133374904,None,1041.7099133374904,None,1042.7098321766025,None,1042.7098321766025,None,1043.6928381128964,None,1043.6928381128964,None,c,,,,,,,,,,,,,,,,,,,,,,,,,,,,,,,,,,,,,,,,,,,,,,,63_64Exp,001,2021_May_21_1444,ComputerHuman,2020.1.3,60.0009431487529,
Computer.xlsx,c,Sychronize.jpg,Number7.jpg,7,Computer,,,,,0,5,5,7,0,2,2,2,,,,,,,,,,,,,,,,,,,,,,,,,,,,,1044.7430693251918,None,1044.7430693251918,None,1045.192755508433,None,1045.192755508433,None,v,6.615490502088505,1045.192755508433,None,t,6.9102501712222875,1045.192755508433,None,6.615490502088505,6.9102501712222875,7.403638424868807,False,False,False,1052.191184259278,None,1052.191184259278,None,1052.191184259278,None,1052.191184259278,None,1052.191184259278,None,1052.191184259278,None,1052.191184259278,None,1052.191184259278,None,1053.1743781808727,None,1053.1743781808727,None,1054.1575688945268,None,1054.1575688945268,None,c,,,,,,,,,,,,,,,,,,,,,,,,,,,,,,,,,,,,,,,,,,,,,,,63_64Exp,001,2021_May_21_1444,ComputerHuman,2020.1.3,60.0009431487529,
Computer.xlsx,c,Sychronize.jpg,Number6.jpg,6,Computer,,,,,0,5,5,7,0,3,3,0,,,,,,,,,,,,,,,,,,,,,,,,,,,,,1055.224456374417,None,1055.224456374417,None,1055.6573525189524,None,1055.6573525189524,None,v,6.198575995302235,1055.6573525189524,None,t,6.357265744169126,1055.6573525189524,None,6.198575995302235,6.357265744169126,5.587861704595625,False,False,False,1062.1059813650754,None,1062.1059813650754,None,1062.1059813650754,None,1062.1059813650754,None,1062.1059813650754,None,1062.1059813650754,None,1062.1059813650754,None,1062.1059813650754,None,1063.105757130048,None,1063.105757130048,None,1064.0889613170511,None,1064.0889613170511,None,c,,,,,,,,,,,,,,,,,,,,,,,,,,,,,,,,,,,,,,,,,,,,,,,63_64Exp,001,2021_May_21_1444,ComputerHuman,2020.1.3,60.0009431487529,
Computer.xlsx,c,Sychronize.jpg,Number9.jpg,9,Computer,,,,,0,5,5,7,0,4,4,7,,,,,,,,,,,,,,,,,,,,,,,,,,,,,1065.1396284884322,None,1065.1396284884322,None,1065.5893159548505,None,1065.5893159548505,None,v,8.02243697599988,1065.5893159548505,None,t,8.709243519562733,1065.5893159548505,None,8.02243697599988,8.709243519562733,8.756474057908768,False,False,True,1074.3712003952169,None,1074.3712003952169,None,1074.3712003952169,None,1074.3712003952169,None,1074.3712003952169,None,1074.3712003952169,None,1074.3712003952169,None,1074.3712003952169,None,1075.3867512065844,None,1075.3867512065844,None,1076.3699470529464,None,1076.3699470529464,None,c,,,,,,,,,,,,,,,,,,,,,,,,,,,,,,,,,,,,,,,,,,,,,,,63_64Exp,001,2021_May_21_1444,ComputerHuman,2020.1.3,60.0009431487529,
Computer.xlsx,c,Sychronize.jpg,Number10.jpg,10,Computer,,,,,0,5,5,7,0,5,5,8,,,,,,,,,,,,,,,,,,,,,,,,,,,,,1077.419950180687,None,1077.419950180687,None,1077.8701428977001,None,1077.8701428977001,None,v,9.68906300875824,1077.8701428977001,None,t,9.81620426880545,1077.8701428977001,None,9.68906300875824,9.81620426880545,9.366605447127519,False,False,False,1087.7843818218862,None,1087.7843818218862,None,1087.7843818218862,None,1087.7843818218862,None,1087.7843818218862,None,1087.7843818218862,None,1087.7843818218862,None,1087.7843818218862,None,1088.7675616285414,None,1088.7675616285414,None,1089.750688504184,None,1089.750688504184,None,c,,,,,,,,,,,,,,,,,,,,,,,,,,,,,,,,,,,,,,,,,,,,,,,63_64Exp,001,2021_May_21_1444,ComputerHuman,2020.1.3,60.0009431487529,
Computer.xlsx,c,Sychronize.jpg,Number9.jpg,9,Computer,,,,,0,5,5,7,0,6,6,6,,,,,,,,,,,,,,,,,,,,,,,,,,,,,1090.8176616360797,None,1090.8176616360797,None,1091.2675508819411,None,1091.2675508819411,None,v,9.103319095425832,1091.2675508819411,None,t,9.230225855033495,1091.2675508819411,None,9.103319095425832,9.230225855033495,8.71480878279098,False,False,False,1100.566416073063,None,1100.566416073063,None,1100.566416073063,None,1100.566416073063,None,1100.566416073063,None,1100.566416073063,None,1100.566416073063,None,1100.566416073063,None,1101.565046282558,None,1101.565046282558,None,1102.5481789324913,None,1102.5481789324913,None,c,,,,,,,,,,,,,,,,,,,,,,,,,,,,,,,,,,,,,,,,,,,,,,,63_64Exp,001,2021_May_21_1444,ComputerHuman,2020.1.3,60.0009431487529,
Computer.xlsx,c,Sychronize.jpg,Number6.jpg,6,Computer,,,,,0,5,5,7,0,7,7,1,,,,,,,,,,,,,,,,,,,,,,,,,,,,,1103.6151783694986,None,1103.6151783694986,None,1104.048432199379,None,1104.048432199379,None,v,5.810189380754309,1104.048432199379,None,t,6.5412459319341,1104.048432199379,None,5.810189380754309,6.5412459319341,6.384970421758717,False,False,True,1110.6647997523469,None,1110.6647997523469,None,1110.6647997523469,None,1110.6647997523469,None,1110.6647997523469,None,1110.6647997523469,None,1110.6647997523469,None,1110.6647997523469,None,1111.6797673601686,None,1111.6797673601686,None,1112.6629474876208,None,1112.6629474876208,None,c,,,,,,,,,,,,,,,,,,,,,,,,,,,,,,,,,,,,,,,,,,,,,,,63_64Exp,001,2021_May_21_1444,ComputerHuman,2020.1.3,60.0009431487529,
Computer.xlsx,c,Sychronize.jpg,Number7.jpg,7,Computer,,,,,0,5,5,7,0,8,8,3,,,,,,,,,,,,,,,,,,,,,,,,,,,,,1113.7136015064498,None,1113.7136015064498,None,1114.163021109849,None,1114.163021109849,None,v,7.2993053205282195,1114.163021109849,None,t,7.274235587927251,1114.163021109849,None,7.2993053205282195,7.274235587927251,7.487867023454855,False,True,True,1121.5445392034344,None,1121.5445392034344,None,1121.5445392034344,None,1121.5445392034344,None,1121.5445392034344,None,1121.5445392034344,None,1121.5445392034344,None,1121.5445392034344,None,1122.5275691992829,None,1122.5275691992829,None,1123.5108221469782,None,1123.5108221469782,None,c,,,,,,,,,,,,,,,,,,,,,,,,,,,,,,,,,,,,,,,,,,,,,,,63_64Exp,001,2021_May_21_1444,ComputerHuman,2020.1.3,60.0009431487529,
Computer.xlsx,c,Sychronize.jpg,Number10.jpg,10,Computer,,,,,0,5,5,7,0,9,9,9,,,,,,,,,,,,,,,,,,,,,,,,,,,,,1124.5777683321758,None,1124.5777683321758,None,1125.0440325092677,None,1125.0440325092677,None,v,9.942015196011198,1125.0440325092677,None,t,9.797237321818102,1125.0440325092677,None,9.942015196011198,9.797237321818102,9.902143097962934,False,True,True,1135.0593683886364,None,1135.0593683886364,None,1135.0593683886364,None,1135.0593683886364,None,1135.0593683886364,None,1135.0593683886364,None,1135.0593683886364,None,1135.0593683886364,None,1136.0582674235266,None,1136.0582674235266,None,1137.041533844571,None,1137.041533844571,None,c,,,,,,,,,,,,,,,,,,,,,,,,,,,,,,,,,,,,,,,,,,,,,,,63_64Exp,001,2021_May_21_1444,ComputerHuman,2020.1.3,60.0009431487529,
Computer.xlsx,c,,,,,,,,,0,5,5,7,,,,,,,,,,,,,,,,,,,,,,,,,,,,,,,,,,,,,,,,,,,,,,,,,,,,,,,,,,,,,,,,,,,,,,,,,,,,,,,c,1138.0426316017401,None,1138.0426316017401,None,a,1,2.527243593340245,1138.0426316017401,None,o,0,2.0264035941763723,1138.0426316017401,None,c,h,1140.6581211414486,None,1140.6581211414486,None,1142.6565989737792,None,None,None,None,None,None,None,None,,,,,,,,,,,,,,,,,,63_64Exp,001,2021_May_21_1444,ComputerHuman,2020.1.3,60.0009431487529,
Human.xlsx,h,Sychronize.jpg,Number6.jpg,6,Human,,,,,0,6,6,2,0,0,0,1,,,,,,,,,,,,,,,,,,,,,,,,,1147.6594476247592,None,1147.6594476247592,None,1150.7222959870269,None,1150.7222959870269,None,1151.1560518595616,None,1151.1560518595616,None,v,5.633397866400628,1151.1560518595616,None,t,5.5963410233016475,1151.1560518595616,None,5.633397866400628,5.5963410233016475,6.28318642407387,True,False,False,1156.8722941424603,None,1156.8722941424603,None,1156.8722941424603,None,1156.8722941424603,None,1156.8722941424603,None,1156.8722941424603,None,1156.8722941424603,None,1156.8722941424603,None,1157.889331513361,None,1157.889331513361,None,1158.8873400240263,None,1158.8873400240263,None,h,,,,,,,,,,,,,,,,,,,,,,,,,,,,,,,,,,,,,,,,,,,,,,,63_64Exp,001,2021_May_21_1444,ComputerHuman,2020.1.3,60.0009431487529,
Human.xlsx,h,Sychronize.jpg,Number8.jpg,8,Human,,,,,0,6,6,2,0,1,1,5,,,,,,,,,,,,,,,,,,,,,,,,,,,,,1159.9371189167432,None,1159.9371189167432,None,1160.387527207342,None,1160.387527207342,None,v,8.005944313365035,1160.387527207342,None,t,7.609265814742685,1160.387527207342,None,8.005944313365035,7.609265814742685,7.482038112165344,False,False,False,1168.4854332243158,None,1168.4854332243158,None,1168.4854332243158,None,1168.4854332243158,None,1168.4854332243158,None,1168.4854332243158,None,1168.4854332243158,None,1168.4854332243158,None,1169.4543883821243,None,1169.4543883821243,None,1170.4516795973395,None,1170.4516795973395,None,h,,,,,,,,,,,,,,,,,,,,,,,,,,,,,,,,,,,,,,,,,,,,,,,63_64Exp,001,2021_May_21_1444,ComputerHuman,2020.1.3,60.0009431487529,
Human.xlsx,h,Sychronize.jpg,Number8.jpg,8,Human,,,,,0,6,6,2,0,2,2,4,,,,,,,,,,,,,,,,,,,,,,,,,,,,,1171.5017751137602,None,1171.5017751137602,None,1171.9517686176805,None,1171.9517686176805,None,v,7.297134186541371,1171.9517686176805,None,t,8.364213822052989,1171.9517686176805,None,7.297134186541371,8.364213822052989,7.7420547221169995,False,False,False,1180.3997125685491,None,1180.3997125685491,None,1180.3997125685491,None,1180.3997125685491,None,1180.3997125685491,None,1180.3997125685491,None,1180.3997125685491,None,1180.3997125685491,None,1181.3847212219662,None,1181.3847212219662,None,1182.38270150276,None,1182.38270150276,None,h,,,,,,,,,,,,,,,,,,,,,,,,,,,,,,,,,,,,,,,,,,,,,,,63_64Exp,001,2021_May_21_1444,ComputerHuman,2020.1.3,60.0009431487529,
Human.xlsx,h,Sychronize.jpg,Number9.jpg,9,Human,,,,,0,6,6,2,0,3,3,7,,,,,,,,,,,,,,,,,,,,,,,,,,,,,1183.4324213693726,None,1183.4324213693726,None,1183.8663568865632,None,1183.8663568865632,None,v,9.442192434711615,1183.8663568865632,None,t,9.645191538093059,1183.8663568865632,None,9.442192434711615,9.645191538093059,9.213080647391877,True,False,False,1193.5971933730361,None,1193.5971933730361,None,1193.5971933730361,None,1193.5971933730361,None,1193.5971933730361,None,1193.5971933730361,None,1193.5971933730361,None,1193.5971933730361,None,1194.5824490378582,None,1194.5824490378582,None,1195.5801941766258,None,1195.5801941766258,None,h,,,,,,,,,,,,,,,,,,,,,,,,,,,,,,,,,,,,,,,,,,,,,,,63_64Exp,001,2021_May_21_1444,ComputerHuman,2020.1.3,60.0009431487529,
Human.xlsx,h,Sychronize.jpg,Number7.jpg,7,Human,,,,,0,6,6,2,0,4,4,3,,,,,,,,,,,,,,,,,,,,,,,,,,,,,1196.6299852595148,None,1196.6299852595148,None,1197.0801458971255,None,1197.0801458971255,None,v,7.024179208376154,1197.0801458971255,None,t,7.259263488987926,1197.0801458971255,None,7.024179208376154,7.259263488987926,6.8414426898490035,True,False,False,1204.3966772154417,None,1204.3966772154417,None,1204.3966772154417,None,1204.3966772154417,None,1204.3966772154417,None,1204.3966772154417,None,1204.3966772154417,None,1204.3966772154417,None,1205.3971593688693,None,1205.3971593688693,None,1206.3947870970223,None,1206.3947870970223,None,h,,,,,,,,,,,,,,,,,,,,,,,,,,,,,,,,,,,,,,,,,,,,,,,63_64Exp,001,2021_May_21_1444,ComputerHuman,2020.1.3,60.0009431487529,
Human.xlsx,h,Sychronize.jpg,Number10.jpg,10,Human,,,,,0,6,6,2,0,5,5,9,,,,,,,,,,,,,,,,,,,,,,,,,,,,,1207.4619450062783,None,1207.4619450062783,None,1207.9116247736383,None,1207.9116247736383,None,v,9.820331283994165,1207.9116247736383,None,t,10.199160161231703,1207.9116247736383,None,9.820331283994165,10.199160161231703,10.020828924226493,False,False,False,1218.19428216722,None,1218.19428216722,None,1218.19428216722,None,1218.19428216722,None,1218.19428216722,None,1218.19428216722,None,1218.19428216722,None,1218.19428216722,None,1219.1778543049732,None,1219.1778543049732,None,1220.1754461041965,None,1220.1754461041965,None,h,,,,,,,,,,,,,,,,,,,,,,,,,,,,,,,,,,,,,,,,,,,,,,,63_64Exp,001,2021_May_21_1444,ComputerHuman,2020.1.3,60.0009431487529,
Human.xlsx,h,Sychronize.jpg,Number6.jpg,6,Human,,,,,0,6,6,2,0,6,6,0,,,,,,,,,,,,,,,,,,,,,,,,,,,,,1221.225439287322,None,1221.225439287322,None,1221.6754623042943,None,1221.6754623042943,None,v,5.832181094643602,1221.6754623042943,None,t,6.447447040914994,1221.6754623042943,None,5.832181094643602,6.447447040914994,6.106805642850909,False,False,False,1228.192008379141,None,1228.192008379141,None,1228.192008379141,None,1228.192008379141,None,1228.192008379141,None,1228.192008379141,None,1228.192008379141,None,1228.192008379141,None,1229.1928315366204,None,1229.1928315366204,None,1230.1902026295465,None,1230.1902026295465,None,h,,,,,,,,,,,,,,,,,,,,,,,,,,,,,,,,,,,,,,,,,,,,,,,63_64Exp,001,2021_May_21_1444,ComputerHuman,2020.1.3,60.0009431487529,
Human.xlsx,h,Sychronize.jpg,Number7.jpg,7,Human,,,,,0,6,6,2,0,7,7,2,,,,,,,,,,,,,,,,,,,,,,,,,,,,,1231.2408130203876,None,1231.2408130203876,None,1231.6900366186383,None,1231.6900366186383,None,v,6.05342375447799,1231.6900366186383,None,t,7.0403157896435005,1231.6900366186383,None,6.05342375447799,7.0403157896435005,6.56010556420971,False,False,False,1238.8218152771733,None,1238.8218152771733,None,1238.8218152771733,None,1238.8218152771733,None,1238.8218152771733,None,1238.8218152771733,None,1238.8218152771733,None,1238.8218152771733,None,1239.7903165114294,None,1239.7903165114294,None,1240.7881161851801,None,1240.7881161851801,None,h,,,,,,,,,,,,,,,,,,,,,,,,,,,,,,,,,,,,,,,,,,,,,,,63_64Exp,001,2021_May_21_1444,ComputerHuman,2020.1.3,60.0009431487529,
Human.xlsx,h,Sychronize.jpg,Number10.jpg,10,Human,,,,,0,6,6,2,0,8,8,8,,,,,,,,,,,,,,,,,,,,,,,,,,,,,1241.8549353359413,None,1241.8549353359413,None,1242.304785124139,None,1242.304785124139,None,v,9.374319796363125,1242.304785124139,None,t,10.213233074504387,1242.304785124139,None,9.374319796363125,10.213233074504387,10.21051540342596,False,False,False,1252.602479737845,None,1252.602479737845,None,1252.602479737845,None,1252.602479737845,None,1252.602479737845,None,1252.602479737845,None,1252.602479737845,None,1252.602479737845,None,1253.5709488926987,None,1253.5709488926987,None,1254.5687623605954,None,1254.5687623605954,None,h,,,,,,,,,,,,,,,,,,,,,,,,,,,,,,,,,,,,,,,,,,,,,,,63_64Exp,001,2021_May_21_1444,ComputerHuman,2020.1.3,60.0009431487529,
Human.xlsx,h,Sychronize.jpg,Number9.jpg,9,Human,,,,,0,6,6,2,0,9,9,6,,,,,,,,,,,,,,,,,,,,,,,,,,,,,1255.635551677511,None,1255.635551677511,None,1256.0687124771212,None,1256.0687124771212,None,v,9.078033789235633,1256.0687124771212,None,t,9.613198107956123,1256.0687124771212,None,9.078033789235633,9.613198107956123,8.777443238281617,False,False,False,1265.766494026011,None,1265.766494026011,None,1265.766494026011,None,1265.766494026011,None,1265.766494026011,None,1265.766494026011,None,1265.766494026011,None,1265.766494026011,None,1266.7519492247193,None,1266.7519492247193,None,1267.732887643495,None,1267.732887643495,None,h,,,,,,,,,,,,,,,,,,,,,,,,,,,,,,,,,,,,,,,,,,,,,,,63_64Exp,001,2021_May_21_1444,ComputerHuman,2020.1.3,60.0009431487529,
Human.xlsx,h,,,,,,,,,0,6,6,2,,,,,,,,,,,,,,,,,,,,,,,,,,,,,,,,,,,,,,,,,,,,,,,,,,,,,,,,,,,,,,,,,,,,,,,,,,,,,,,h,1268.7334012347346,None,1268.7334012347346,None,q,1,3.849173875176348,1268.7334012347346,None,l,0,1.6444027055767947,1268.7334012347346,None,h,c,1272.6490827696725,None,1272.6490827696725,None,1274.6649187669318,None,None,None,None,None,None,None,None,,,,,,,,,,,,,,,,,,63_64Exp,001,2021_May_21_1444,ComputerHuman,2020.1.3,60.0009431487529,
Computer.xlsx,c,Sychronize.jpg,Number10.jpg,10,Computer,,,,,0,7,7,1,0,0,0,9,,,,,,,,,,,,,,,,,,,,,,,,,1279.6669994370059,None,1279.6669994370059,None,1282.7298487616536,None,1282.7298487616536,None,1283.1800706709255,None,1283.1800706709255,None,v,10.134010743389808,1283.1800706709255,None,t,9.613209656541585,1283.1800706709255,None,10.134010743389808,9.613209656541585,9.903363869848071,False,True,True,1293.4112088641814,None,1293.4112088641814,None,1293.4112088641814,None,1293.4112088641814,None,1293.4112088641814,None,1293.4112088641814,None,1293.4112088641814,None,1293.4112088641814,None,1294.4109464546636,None,1294.4109464546636,None,1295.394195873625,None,1295.394195873625,None,c,,,,,,,,,,,,,,,,,,,,,,,,,,,,,,,,,,,,,,,,,,,,,,,63_64Exp,001,2021_May_21_1444,ComputerHuman,2020.1.3,60.0009431487529,
Computer.xlsx,c,Sychronize.jpg,Number7.jpg,7,Computer,,,,,0,7,7,1,0,1,1,2,,,,,,,,,,,,,,,,,,,,,,,,,,,,,1296.4444261235403,None,1296.4444261235403,None,1296.9110864812574,None,1296.9110864812574,None,v,7.166712486745382,1296.9110864812574,None,t,6.77426654455121,1296.9110864812574,None,7.166712486745382,6.77426654455121,6.5556322004294465,False,False,True,1304.175645958876,None,1304.175645958876,None,1304.175645958876,None,1304.175645958876,None,1304.175645958876,None,1304.175645958876,None,1304.175645958876,None,1304.175645958876,None,1305.158994823989,None,1305.158994823989,None,1306.1421261907453,None,1306.1421261907453,None,c,,,,,,,,,,,,,,,,,,,,,,,,,,,,,,,,,,,,,,,,,,,,,,,63_64Exp,001,2021_May_21_1444,ComputerHuman,2020.1.3,60.0009431487529,
Computer.xlsx,c,Sychronize.jpg,Number6.jpg,6,Computer,,,,,0,7,7,1,0,2,2,1,,,,,,,,,,,,,,,,,,,,,,,,,,,,,1307.2090637145047,None,1307.2090637145047,None,1307.6590456698395,None,1307.6590456698395,None,v,5.618543819662591,1307.6590456698395,None,t,5.978292188825435,1307.6590456698395,None,5.618543819662591,5.978292188825435,6.38737246355023,False,False,False,1313.7089458226983,None,1313.7089458226983,None,1313.7089458226983,None,1313.7089458226983,None,1313.7089458226983,None,1313.7089458226983,None,1313.7089458226983,None,1313.7089458226983,None,1314.723798265466,None,1314.723798265466,None,1315.706957220511,None,1315.706957220511,None,c,,,,,,,,,,,,,,,,,,,,,,,,,,,,,,,,,,,,,,,,,,,,,,,63_64Exp,001,2021_May_21_1444,ComputerHuman,2020.1.3,60.0009431487529,
Computer.xlsx,c,Sychronize.jpg,Number9.jpg,9,Computer,,,,,0,7,7,1,0,3,3,7,,,,,,,,,,,,,,,,,,,,,,,,,,,,,1316.7570687766347,None,1316.7570687766347,None,1317.1905442751886,None,1317.1905442751886,None,v,8.658714289609634,1317.1905442751886,None,t,8.68222720878839,1317.1905442751886,None,8.658714289609634,8.68222720878839,9.309448378123978,False,False,False,1325.939941904202,None,1325.939941904202,None,1325.939941904202,None,1325.939941904202,None,1325.939941904202,None,1325.939941904202,None,1325.939941904202,None,1325.939941904202,None,1326.954720243546,None,1326.954720243546,None,1327.9377938673788,None,1327.9377938673788,None,c,,,,,,,,,,,,,,,,,,,,,,,,,,,,,,,,,,,,,,,,,,,,,,,63_64Exp,001,2021_May_21_1444,ComputerHuman,2020.1.3,60.0009431487529,
Computer.xlsx,c,Sychronize.jpg,Number6.jpg,6,Computer,,,,,0,7,7,1,0,4,4,0,,,,,,,,,,,,,,,,,,,,,,,,,,,,,1328.9877052480297,None,1328.9877052480297,None,1329.4378527330846,None,1329.4378527330846,None,v,6.123194531104673,1329.4378527330846,None,t,6.286279478965298,1329.4378527330846,None,6.123194531104673,6.286279478965298,5.955935739920227,False,True,False,1335.819724662484,None,1335.819724662484,None,1335.819724662484,None,1335.819724662484,None,1335.819724662484,None,1335.819724662484,None,1335.819724662484,None,1335.819724662484,None,1336.8028345360435,None,1336.8028345360435,None,1337.7860047188806,None,1337.7860047188806,None,c,,,,,,,,,,,,,,,,,,,,,,,,,,,,,,,,,,,,,,,,,,,,,,,63_64Exp,001,2021_May_21_1444,ComputerHuman,2020.1.3,60.0009431487529,
Computer.xlsx,c,Sychronize.jpg,Number8.jpg,8,Computer,,,,,0,7,7,1,0,5,5,5,,,,,,,,,,,,,,,,,,,,,,,,,,,,,1338.8525271351646,None,1338.8525271351646,None,1339.2863705844684,None,1339.2863705844684,None,v,8.878342393090861,1339.2863705844684,None,t,7.489227255304286,1339.2863705844684,None,8.878342393090861,7.489227255304286,7.421295983046904,False,False,True,1348.250407328218,None,1348.250407328218,None,1348.250407328218,None,1348.250407328218,None,1348.250407328218,None,1348.250407328218,None,1348.250407328218,None,1348.250407328218,None,1349.2504734117865,None,1349.2504734117865,None,1350.2169039205837,None,1350.2169039205837,None,c,,,,,,,,,,,,,,,,,,,,,,,,,,,,,,,,,,,,,,,,,,,,,,,63_64Exp,001,2021_May_21_1444,ComputerHuman,2020.1.3,60.0009431487529,
Computer.xlsx,c,Sychronize.jpg,Number7.jpg,7,Computer,,,,,0,7,7,1,0,6,6,3,,,,,,,,,,,,,,,,,,,,,,,,,,,,,1351.2838889218583,None,1351.2838889218583,None,1351.7168777758707,None,1351.7168777758707,None,v,7.0675406165355525,1351.7168777758707,None,t,7.363290576835425,1351.7168777758707,None,7.0675406165355525,7.363290576835425,7.4765111691336905,False,False,True,1359.1650212606219,None,1359.1650212606219,None,1359.1650212606219,None,1359.1650212606219,None,1359.1650212606219,None,1359.1650212606219,None,1359.1650212606219,None,1359.1650212606219,None,1360.1649551770533,None,1360.1649551770533,None,1361.148110282571,None,1361.148110282571,None,c,,,,,,,,,,,,,,,,,,,,,,,,,,,,,,,,,,,,,,,,,,,,,,,63_64Exp,001,2021_May_21_1444,ComputerHuman,2020.1.3,60.0009431487529,
Computer.xlsx,c,Sychronize.jpg,Number9.jpg,9,Computer,,,,,0,7,7,1,0,7,7,6,,,,,,,,,,,,,,,,,,,,,,,,,,,,,1362.198529480167,None,1362.198529480167,None,1362.6480895913555,None,1362.6480895913555,None,v,8.876041979106958,1362.6480895913555,None,t,9.419213316799869,1362.6480895913555,None,8.876041979106958,9.419213316799869,8.864533638040655,False,True,False,1372.1474433517833,None,1372.1474433517833,None,1372.1474433517833,None,1372.1474433517833,None,1372.1474433517833,None,1372.1474433517833,None,1372.1474433517833,None,1372.1474433517833,None,1373.1457271037252,None,1373.1457271037252,None,1374.1456250912233,None,1374.1456250912233,None,c,,,,,,,,,,,,,,,,,,,,,,,,,,,,,,,,,,,,,,,,,,,,,,,63_64Exp,001,2021_May_21_1444,ComputerHuman,2020.1.3,60.0009431487529,
Computer.xlsx,c,Sychronize.jpg,Number10.jpg,10,Computer,,,,,0,7,7,1,0,8,8,8,,,,,,,,,,,,,,,,,,,,,,,,,,,,,1375.2125135334973,None,1375.2125135334973,None,1375.6456428952952,None,1375.6456428952952,None,v,9.9501081877861,1375.6456428952952,None,t,10.209189465764211,1375.6456428952952,None,9.9501081877861,10.209189465764211,10.041109255955819,False,True,True,1385.9280147821883,None,1385.9280147821883,None,1385.9280147821883,None,1385.9280147821883,None,1385.9280147821883,None,1385.9280147821883,None,1385.9280147821883,None,1385.9280147821883,None,1386.9263306135326,None,1386.9263306135326,None,1387.9095845236116,None,1387.9095845236116,None,c,,,,,,,,,,,,,,,,,,,,,,,,,,,,,,,,,,,,,,,,,,,,,,,63_64Exp,001,2021_May_21_1444,ComputerHuman,2020.1.3,60.0009431487529,
Computer.xlsx,c,Sychronize.jpg,Number8.jpg,8,Computer,,,,,0,7,7,1,0,9,9,4,,,,,,,,,,,,,,,,,,,,,,,,,,,,,1388.9762153682786,None,1388.9762153682786,None,1389.4097521384938,None,1389.4097521384938,None,v,7.845726622537768,1389.4097521384938,None,t,8.233119417178386,1389.4097521384938,None,7.845726622537768,8.233119417178386,7.408778207530755,False,False,False,1397.7241780855984,None,1397.7241780855984,None,1397.7241780855984,None,1397.7241780855984,None,1397.7241780855984,None,1397.7241780855984,None,1397.7241780855984,None,1397.7241780855984,None,1398.7408843970588,None,1398.7408843970588,None,1399.7239910626777,None,1399.7239910626777,None,c,,,,,,,,,,,,,,,,,,,,,,,,,,,,,,,,,,,,,,,,,,,,,,,63_64Exp,001,2021_May_21_1444,ComputerHuman,2020.1.3,60.0009431487529,
Computer.xlsx,c,,,,,,,,,0,7,7,1,,,,,,,,,,,,,,,,,,,,,,,,,,,,,,,,,,,,,,,,,,,,,,,,,,,,,,,,,,,,,,,,,,,,,,,,,,,,,,,c,1400.707675799138,None,1400.707675799138,None,a,1,3.1239406980130298,1400.707675799138,None,l,0,1.6553709742365754,1400.707675799138,None,c,c,1403.9233308685652,None,1403.9233308685652,None,1405.9061552354397,None,None,None,None,None,None,None,None,,,,,,,,,,,,,,,,,,63_64Exp,001,2021_May_21_1444,ComputerHuman,2020.1.3,60.0009431487529,
Human.xlsx,h,Sychronize.jpg,Number9.jpg,9,Human,,,,,0,8,8,6,0,0,0,6,,,,,,,,,,,,,,,,,,,,,,,,,1410.9249794290808,None,1410.9249794290808,None,1413.9885896771666,None,1413.9885896771666,None,1414.4383409815964,None,1414.4383409815964,None,v,8.424557424539671,1414.4383409815964,None,t,8.796203402660467,1414.4383409815964,None,8.424557424539671,8.796203402660467,9.106206646993265,False,False,False,1423.3042936676866,None,1423.3042936676866,None,1423.3042936676866,None,1423.3042936676866,None,1423.3042936676866,None,1423.3042936676866,None,1423.3042936676866,None,1423.3042936676866,None,1424.3217349182705,None,1424.3217349182705,None,1425.3190550049476,None,1425.3190550049476,None,h,,,,,,,,,,,,,,,,,,,,,,,,,,,,,,,,,,,,,,,,,,,,,,,63_64Exp,001,2021_May_21_1444,ComputerHuman,2020.1.3,60.0009431487529,
Human.xlsx,h,Sychronize.jpg,Number10.jpg,10,Human,,,,,0,8,8,6,0,1,1,8,,,,,,,,,,,,,,,,,,,,,,,,,,,,,1426.3523037021223,None,1426.3523037021223,None,1426.8191882948668,None,1426.8191882948668,None,v,10.07531473904237,1426.8191882948668,None,t,9.866220228312159,1426.8191882948668,None,10.07531473904237,9.866220228312159,9.792385778753715,True,False,False,1436.9833767741911,None,1436.9833767741911,None,1436.9833767741911,None,1436.9833767741911,None,1436.9833767741911,None,1436.9833767741911,None,1436.9833767741911,None,1436.9833767741911,None,1437.9524397187924,None,1437.9524397187924,None,1438.9497960551962,None,1438.9497960551962,None,h,,,,,,,,,,,,,,,,,,,,,,,,,,,,,,,,,,,,,,,,,,,,,,,63_64Exp,001,2021_May_21_1444,ComputerHuman,2020.1.3,60.0009431487529,
Human.xlsx,h,Sychronize.jpg,Number7.jpg,7,Human,,,,,0,8,8,6,0,2,2,2,,,,,,,,,,,,,,,,,,,,,,,,,,,,,1439.9999374451618,None,1439.9999374451618,None,1440.4499671988087,None,1440.4499671988087,None,v,7.336251168890158,1440.4499671988087,None,t,7.163349282142008,1440.4499671988087,None,7.336251168890158,7.163349282142008,7.353238210642518,True,False,False,1447.8813280231225,None,1447.8813280231225,None,1447.8813280231225,None,1447.8813280231225,None,1447.8813280231225,None,1447.8813280231225,None,1447.8813280231225,None,1447.8813280231225,None,1448.8673481401165,None,1448.8673481401165,None,1449.8476789749984,None,1449.8476789749984,None,h,,,,,,,,,,,,,,,,,,,,,,,,,,,,,,,,,,,,,,,,,,,,,,,63_64Exp,001,2021_May_21_1444,ComputerHuman,2020.1.3,60.0009431487529,
Human.xlsx,h,Sychronize.jpg,Number7.jpg,7,Human,,,,,0,8,8,6,0,3,3,3,,,,,,,,,,,,,,,,,,,,,,,,,,,,,1450.8977472239276,None,1450.8977472239276,None,1451.3475001323277,None,1451.3475001323277,None,v,6.834423444910499,1451.3475001323277,None,t,6.741048643601971,1451.3475001323277,None,6.834423444910499,6.741048643601971,7.417084705364172,True,False,False,1458.263841861375,None,1458.263841861375,None,1458.263841861375,None,1458.263841861375,None,1458.263841861375,None,1458.263841861375,None,1458.263841861375,None,1458.263841861375,None,1459.2648363228654,None,1459.2648363228654,None,1460.2623299591141,None,1460.2623299591141,None,h,,,,,,,,,,,,,,,,,,,,,,,,,,,,,,,,,,,,,,,,,,,,,,,63_64Exp,001,2021_May_21_1444,ComputerHuman,2020.1.3,60.0009431487529,
Human.xlsx,h,Sychronize.jpg,Number6.jpg,6,Human,,,,,0,8,8,6,0,4,4,0,,,,,,,,,,,,,,,,,,,,,,,,,,,,,1461.312736966538,None,1461.312736966538,None,1461.7624128843709,None,1461.7624128843709,None,v,5.683314058958786,1461.7624128843709,None,t,6.514504541642964,1461.7624128843709,None,5.683314058958786,6.514504541642964,6.086838285574803,False,False,False,1468.3607033729895,None,1468.3607033729895,None,1468.3607033729895,None,1468.3607033729895,None,1468.3607033729895,None,1468.3607033729895,None,1468.3607033729895,None,1468.3607033729895,None,1469.3298253436915,None,1469.3298253436915,None,1470.3271563373637,None,1470.3271563373637,None,h,,,,,,,,,,,,,,,,,,,,,,,,,,,,,,,,,,,,,,,,,,,,,,,63_64Exp,001,2021_May_21_1444,ComputerHuman,2020.1.3,60.0009431487529,
Human.xlsx,h,Sychronize.jpg,Number10.jpg,10,Human,,,,,0,8,8,6,0,5,5,9,,,,,,,,,,,,,,,,,,,,,,,,,,,,,1471.3774722392845,None,1471.3774722392845,None,1471.8271292302707,None,1471.8271292302707,None,v,10.078269252055179,1471.8271292302707,None,t,9.917186379727355,1471.8271292302707,None,10.078269252055179,9.917186379727355,9.833896504076122,True,False,False,1481.991429345915,None,1481.991429345915,None,1481.991429345915,None,1481.991429345915,None,1481.991429345915,None,1481.991429345915,None,1481.991429345915,None,1481.991429345915,None,1482.976505045288,None,1482.976505045288,None,1483.9577796562044,None,1483.9577796562044,None,h,,,,,,,,,,,,,,,,,,,,,,,,,,,,,,,,,,,,,,,,,,,,,,,63_64Exp,001,2021_May_21_1444,ComputerHuman,2020.1.3,60.0009431487529,
Human.xlsx,h,Sychronize.jpg,Number8.jpg,8,Human,,,,,0,8,8,6,0,6,6,4,,,,,,,,,,,,,,,,,,,,,,,,,,,,,1485.0246841381777,None,1485.0246841381777,None,1485.4576001719433,None,1485.4576001719433,None,v,7.7395338541973615,1485.4576001719433,None,t,8.06317332661638,1485.4576001719433,None,7.7395338541973615,8.06317332661638,7.747348476354156,False,False,False,1493.605726173424,None,1493.605726173424,None,1493.605726173424,None,1493.605726173424,None,1493.605726173424,None,1493.605726173424,None,1493.605726173424,None,1493.605726173424,None,1494.5912105643874,None,1494.5912105643874,None,1495.5887750961156,None,1495.5887750961156,None,h,,,,,,,,,,,,,,,,,,,,,,,,,,,,,,,,,,,,,,,,,,,,,,,63_64Exp,001,2021_May_21_1444,ComputerHuman,2020.1.3,60.0009431487529,
Human.xlsx,h,Sychronize.jpg,Number9.jpg,9,Human,,,,,0,8,8,6,0,7,7,7,,,,,,,,,,,,,,,,,,,,,,,,,,,,,1496.638460958562,None,1496.638460958562,None,1497.0888317162644,None,1497.0888317162644,None,v,8.82793827281057,1497.0888317162644,None,t,9.115232423293492,1497.0888317162644,None,8.82793827281057,9.115232423293492,8.986129511571418,True,False,False,1506.2713651229533,None,1506.2713651229533,None,1506.2713651229533,None,1506.2713651229533,None,1506.2713651229533,None,1506.2713651229533,None,1506.2713651229533,None,1506.2713651229533,None,1507.2555980964062,None,1507.2555980964062,None,1508.269625456931,None,1508.269625456931,None,h,,,,,,,,,,,,,,,,,,,,,,,,,,,,,,,,,,,,,,,,,,,,,,,63_64Exp,001,2021_May_21_1444,ComputerHuman,2020.1.3,60.0009431487529,
Human.xlsx,h,Sychronize.jpg,Number8.jpg,8,Human,,,,,0,8,8,6,0,8,8,5,,,,,,,,,,,,,,,,,,,,,,,,,,,,,1509.3364099619357,None,1509.3364099619357,None,1509.77010744996,None,1509.77010744996,None,v,8.318372676047147,1509.77010744996,None,t,8.1892723268611,1509.77010744996,None,8.318372676047147,8.1892723268611,7.966020288989992,True,False,False,1518.1839728094965,None,1518.1839728094965,None,1518.1839728094965,None,1518.1839728094965,None,1518.1839728094965,None,1518.1839728094965,None,1518.1839728094965,None,1518.1839728094965,None,1519.1537161582346,None,1519.1537161582346,None,1520.1507908374806,None,1520.1507908374806,None,h,,,,,,,,,,,,,,,,,,,,,,,,,,,,,,,,,,,,,,,,,,,,,,,63_64Exp,001,2021_May_21_1444,ComputerHuman,2020.1.3,60.0009431487529,
Human.xlsx,h,Sychronize.jpg,Number6.jpg,6,Human,,,,,0,8,8,6,0,9,9,1,,,,,,,,,,,,,,,,,,,,,,,,,,,,,1521.2169359999862,None,1521.2169359999862,None,1521.6509080876967,None,1521.6509080876967,None,v,5.537355662738264,1521.6509080876967,None,t,5.440346906663763,1521.6509080876967,None,5.537355662738264,5.440346906663763,5.834168282302542,True,False,False,1527.2672368245876,None,1527.2672368245876,None,1527.2672368245876,None,1527.2672368245876,None,1527.2672368245876,None,1527.2672368245876,None,1527.2672368245876,None,1527.2672368245876,None,1528.2684564834854,None,1528.2684564834854,None,1529.2656399119078,None,1529.2656399119078,None,h,,,,,,,,,,,,,,,,,,,,,,,,,,,,,,,,,,,,,,,,,,,,,,,63_64Exp,001,2021_May_21_1444,ComputerHuman,2020.1.3,60.0009431487529,
Human.xlsx,h,,,,,,,,,0,8,8,6,,,,,,,,,,,,,,,,,,,,,,,,,,,,,,,,,,,,,,,,,,,,,,,,,,,,,,,,,,,,,,,,,,,,,,,,,,,,,,,h,1530.2668823471868,None,1530.2668823471868,None,q,1,2.2652305787305522,1530.2668823471868,None,o,0,1.9603828997533128,1530.2668823471868,None,h,h,1532.6155469618388,None,1532.6155469618388,None,1534.5979789976154,None,None,None,None,None,None,None,None,,,,,,,,,,,,,,,,,,63_64Exp,001,2021_May_21_1444,ComputerHuman,2020.1.3,60.0009431487529,
Computer.xlsx,c,Sychronize.jpg,Number8.jpg,8,Computer,,,,,0,9,9,9,0,0,0,5,,,,,,,,,,,,,,,,,,,,,,,,,1539.59985981301,None,1539.59985981301,None,1542.6967068888916,None,1542.6967068888916,None,1543.1301300980194,None,1543.1301300980194,None,v,7.50956335121009,1543.1301300980194,None,t,7.397274213133642,1543.1301300980194,None,7.50956335121009,7.397274213133642,8.074247897881921,False,False,False,1550.7132335556962,None,1550.7132335556962,None,1550.7132335556962,None,1550.7132335556962,None,1550.7132335556962,None,1550.7132335556962,None,1550.7132335556962,None,1550.7132335556962,None,1551.7445485064636,None,1551.7445485064636,None,1552.71114165783,None,1552.71114165783,None,c,,,,,,,,,,,,,,,,,,,,,,,,,,,,,,,,,,,,,,,,,,,,,,,63_64Exp,001,2021_May_21_1444,ComputerHuman,2020.1.3,60.0009431487529,
Computer.xlsx,c,Sychronize.jpg,Number6.jpg,6,Computer,,,,,0,9,9,9,0,1,1,0,,,,,,,,,,,,,,,,,,,,,,,,,,,,,1553.7780673122106,None,1553.7780673122106,None,1554.210918866378,None,1554.210918866378,None,v,5.800579995604494,1554.210918866378,None,t,5.752386466985627,1554.210918866378,None,5.800579995604494,5.752386466985627,6.137797386460139,False,False,False,1560.1095922226705,None,1560.1095922226705,None,1560.1095922226705,None,1560.1095922226705,None,1560.1095922226705,None,1560.1095922226705,None,1560.1095922226705,None,1560.1095922226705,None,1561.1093185853606,None,1561.1093185853606,None,1562.0926305591602,None,1562.0926305591602,None,c,,,,,,,,,,,,,,,,,,,,,,,,,,,,,,,,,,,,,,,,,,,,,,,63_64Exp,001,2021_May_21_1444,ComputerHuman,2020.1.3,60.0009431487529,
Computer.xlsx,c,Sychronize.jpg,Number10.jpg,10,Computer,,,,,0,9,9,9,0,2,2,9,,,,,,,,,,,,,,,,,,,,,,,,,,,,,1563.1421961238448,None,1563.1421961238448,None,1563.5929345115037,None,1563.5929345115037,None,v,10.098157840286149,1563.5929345115037,None,t,9.917169698437647,1563.5929345115037,None,10.098157840286149,9.917169698437647,10.515281203401353,False,False,False,1573.7736515823963,None,1573.7736515823963,None,1573.7736515823963,None,1573.7736515823963,None,1573.7736515823963,None,1573.7736515823963,None,1573.7736515823963,None,1573.7736515823963,None,1574.7734414623083,None,1574.7734414623083,None,1575.7566129283186,None,1575.7566129283186,None,c,,,,,,,,,,,,,,,,,,,,,,,,,,,,,,,,,,,,,,,,,,,,,,,63_64Exp,001,2021_May_21_1444,ComputerHuman,2020.1.3,60.0009431487529,
Computer.xlsx,c,Sychronize.jpg,Number7.jpg,7,Computer,,,,,0,9,9,9,0,3,3,3,,,,,,,,,,,,,,,,,,,,,,,,,,,,,1576.8072108081906,None,1576.8072108081906,None,1577.2567019486632,None,1577.2567019486632,None,v,6.9581530604555155,1577.2567019486632,None,t,7.209301743678225,1577.2567019486632,None,6.9581530604555155,7.209301743678225,6.689584536509131,False,True,False,1584.5549329299865,None,1584.5549329299865,None,1584.5549329299865,None,1584.5549329299865,None,1584.5549329299865,None,1584.5549329299865,None,1584.5549329299865,None,1584.5549329299865,None,1585.5379423950144,None,1585.5379423950144,None,1586.5212643134291,None,1586.5212643134291,None,c,,,,,,,,,,,,,,,,,,,,,,,,,,,,,,,,,,,,,,,,,,,,,,,63_64Exp,001,2021_May_21_1444,ComputerHuman,2020.1.3,60.0009431487529,
Computer.xlsx,c,Sychronize.jpg,Number8.jpg,8,Computer,,,,,0,9,9,9,0,4,4,4,,,,,,,,,,,,,,,,,,,,,,,,,,,,,1587.5881578884037,None,1587.5881578884037,None,1588.0210707142323,None,1588.0210707142323,None,v,8.317472207207175,1588.0210707142323,None,t,7.517227441363502,1588.0210707142323,None,8.317472207207175,7.517227441363502,7.7695119914344675,False,False,True,1596.4206960268057,None,1596.4206960268057,None,1596.4206960268057,None,1596.4206960268057,None,1596.4206960268057,None,1596.4206960268057,None,1596.4206960268057,None,1596.4206960268057,None,1597.4357611560117,None,1597.4357611560117,None,1598.4189165823227,None,1598.4189165823227,None,c,,,,,,,,,,,,,,,,,,,,,,,,,,,,,,,,,,,,,,,,,,,,,,,63_64Exp,001,2021_May_21_1444,ComputerHuman,2020.1.3,60.0009431487529,
Computer.xlsx,c,Sychronize.jpg,Number7.jpg,7,Computer,,,,,0,9,9,9,0,5,5,2,,,,,,,,,,,,,,,,,,,,,,,,,,,,,1599.469039687032,None,1599.469039687032,None,1599.9191015200813,None,1599.9191015200813,None,v,7.347182867033553,1599.9191015200813,None,t,7.006269277717365,1599.9191015200813,None,7.347182867033553,7.006269277717365,7.210706353179363,False,True,True,1607.3670226945724,None,1607.3670226945724,None,1607.3670226945724,None,1607.3670226945724,None,1607.3670226945724,None,1607.3670226945724,None,1607.3670226945724,None,1607.3670226945724,None,1608.3503106088174,None,1608.3503106088174,None,1609.333446466695,None,1609.333446466695,None,c,,,,,,,,,,,,,,,,,,,,,,,,,,,,,,,,,,,,,,,,,,,,,,,63_64Exp,001,2021_May_21_1444,ComputerHuman,2020.1.3,60.0009431487529,
Computer.xlsx,c,Sychronize.jpg,Number9.jpg,9,Computer,,,,,0,9,9,9,0,6,6,6,,,,,,,,,,,,,,,,,,,,,,,,,,,,,1610.3838165828056,None,1610.3838165828056,None,1610.8338957387314,None,1610.8338957387314,None,v,8.844062022315484,1610.8338957387314,None,t,8.911213194900483,1610.8338957387314,None,8.844062022315484,8.911213194900483,8.624681987052092,False,True,True,1619.8314721398383,None,1619.8314721398383,None,1619.8314721398383,None,1619.8314721398383,None,1619.8314721398383,None,1619.8314721398383,None,1619.8314721398383,None,1619.8314721398383,None,1620.8144257867061,None,1620.8144257867061,None,1621.7976328608565,None,1621.7976328608565,None,c,,,,,,,,,,,,,,,,,,,,,,,,,,,,,,,,,,,,,,,,,,,,,,,63_64Exp,001,2021_May_21_1444,ComputerHuman,2020.1.3,60.0009431487529,
Computer.xlsx,c,Sychronize.jpg,Number6.jpg,6,Computer,,,,,0,9,9,9,0,7,7,1,,,,,,,,,,,,,,,,,,,,,,,,,,,,,1622.864417365865,None,1622.864417365865,None,1623.2977023127642,None,1623.2977023127642,None,v,5.816012113184115,1623.2977023127642,None,t,6.45128662465504,1623.2977023127642,None,5.816012113184115,6.45128662465504,5.707953247289112,False,True,False,1629.830947000013,None,1629.830947000013,None,1629.830947000013,None,1629.830947000013,None,1629.830947000013,None,1629.830947000013,None,1629.830947000013,None,1629.830947000013,None,1630.845964972501,None,1630.845964972501,None,1631.8291271354865,None,1631.8291271354865,None,c,,,,,,,,,,,,,,,,,,,,,,,,,,,,,,,,,,,,,,,,,,,,,,,63_64Exp,001,2021_May_21_1444,ComputerHuman,2020.1.3,60.0009431487529,
Computer.xlsx,c,Sychronize.jpg,Number10.jpg,10,Computer,,,,,0,9,9,9,0,8,8,8,,,,,,,,,,,,,,,,,,,,,,,,,,,,,1632.880012446807,None,1632.880012446807,None,1633.3123536176754,None,1633.3123536176754,None,v,0.969200244446256,1633.3123536176754,None,t,9.984145717480715,1633.3123536176754,None,0.969200244446256,9.984145717480715,10.502906367202392,False,False,False,1643.3935526815985,None,1643.3935526815985,None,1643.3935526815985,None,1643.3935526815985,None,1643.3935526815985,None,1643.3935526815985,None,1643.3935526815985,None,1643.3935526815985,None,1644.393354751679,None,1644.393354751679,None,1645.3764870808227,None,1645.3764870808227,None,c,,,,,,,,,,,,,,,,,,,,,,,,,,,,,,,,,,,,,,,,,,,,,,,63_64Exp,001,2021_May_21_1444,ComputerHuman,2020.1.3,60.0009431487529,
Computer.xlsx,c,Sychronize.jpg,Number9.jpg,9,Computer,,,,,0,9,9,9,0,9,9,7,,,,,,,,,,,,,,,,,,,,,,,,,,,,,1646.4258694721175,None,1646.4258694721175,None,1646.8767769182268,None,1646.8767769182268,None,v,8.48861935061359,1646.8767769182268,None,t,8.931222080893349,1646.8767769182268,None,8.48861935061359,8.931222080893349,8.461256035559495,False,True,False,1655.8911340550112,None,1655.8911340550112,None,1655.8911340550112,None,1655.8911340550112,None,1655.8911340550112,None,1655.8911340550112,None,1655.8911340550112,None,1655.8911340550112,None,1656.8741736746779,None,1656.8741736746779,None,1657.8740751909136,None,1657.8740751909136,None,c,,,,,,,,,,,,,,,,,,,,,,,,,,,,,,,,,,,,,,,,,,,,,,,63_64Exp,001,2021_May_21_1444,ComputerHuman,2020.1.3,60.0009431487529,
Computer.xlsx,c,,,,,,,,,0,9,9,9,,,,,,,,,,,,,,,,,,,,,,,,,,,,,,,,,,,,,,,,,,,,,,,,,,,,,,,,,,,,,,,,,,,,,,,,,,,,,,,c,1658.8747831833352,None,1658.8747831833352,None,a,1,4.390536576134764,1658.8747831833352,None,l,0,2.7054366568154364,1658.8747831833352,None,c,c,1663.3571679019915,None,1663.3571679019915,None,None,None,1665.355994437432,None,1665.355994437432,None,"['space', 'space']",1666.3391501845363,None,"[1524.3757710685459, 1530.2796117750659]",,,,,,,,,,,,,,,,,63_64Exp,001,2021_May_21_1444,ComputerHuman,2020.1.3,60.0009431487529,
Computer.xlsx,c,Sychronize.jpg,Number6.jpg,6,Computer,,,,,1,0,10,5,0,0,0,0,,,,,,,,,,,,,,,,,,,,,,,,,3196.679555315317,None,3196.679555315317,None,3199.7423908458222,None,3199.7423908458222,None,3200.192872277461,None,3200.192872277461,None,v,7.217597477272648,3200.192872277461,None,t,6.261322024274705,3200.192872277461,None,7.217597477272648,6.261322024274705,5.908608469833943,False,False,False,3207.5075275922973,None,3207.5075275922973,None,3207.5075275922973,None,3207.5075275922973,None,3207.5075275922973,None,3207.5075275922973,None,3207.5075275922973,None,3207.5075275922973,None,3208.5072725610407,None,3208.5072725610407,None,3209.5071262789643,None,3209.5071262789643,None,c,,,,,,,,,,,,,,,,,,,,,,,,,,,,,,,,,,,,,,,,,,,,,,,63_64Exp,001,2021_May_21_1444,ComputerHuman,2020.1.3,60.0009431487529,
Computer.xlsx,c,Sychronize.jpg,Number10.jpg,10,Computer,,,,,1,0,10,5,0,1,1,8,,,,,,,,,,,,,,,,,,,,,,,,,,,,,3210.5569119083557,None,3210.5569119083557,None,3211.0070824905815,None,3211.0070824905815,None,v,9.039395431573212,3211.0070824905815,None,t,10.16219121569884,3211.0070824905815,None,9.039395431573212,10.16219121569884,10.45426457262875,False,False,True,3221.2549420726173,None,3221.2549420726173,None,3221.2549420726173,None,3221.2549420726173,None,3221.2549420726173,None,3221.2549420726173,None,3221.2549420726173,None,3221.2549420726173,None,3222.237951537645,None,3222.237951537645,None,3223.2211672732337,None,3223.2211672732337,None,c,,,,,,,,,,,,,,,,,,,,,,,,,,,,,,,,,,,,,,,,,,,,,,,63_64Exp,001,2021_May_21_1444,ComputerHuman,2020.1.3,60.0009431487529,
Computer.xlsx,c,Sychronize.jpg,Number8.jpg,8,Computer,,,,,1,0,10,5,0,2,2,5,,,,,,,,,,,,,,,,,,,,,,,,,,,,,3224.305043684126,None,3224.305043684126,None,3224.737768203857,None,3224.737768203857,None,v,7.512117513269914,3224.737768203857,None,t,7.931240045363666,3224.737768203857,None,7.512117513269914,7.931240045363666,8.163849519522705,False,False,True,3232.7526973163986,None,3232.7526973163986,None,3232.7526973163986,None,3232.7526973163986,None,3232.7526973163986,None,3232.7526973163986,None,3232.7526973163986,None,3232.7526973163986,None,3233.7523871085687,None,3233.7523871085687,None,3234.719008489814,None,3234.719008489814,None,c,,,,,,,,,,,,,,,,,,,,,,,,,,,,,,,,,,,,,,,,,,,,,,,63_64Exp,001,2021_May_21_1444,ComputerHuman,2020.1.3,60.0009431487529,
Computer.xlsx,c,Sychronize.jpg,Number7.jpg,7,Computer,,,,,1,0,10,5,0,3,3,3,,,,,,,,,,,,,,,,,,,,,,,,,,,,,3235.7855219238663,None,3235.7855219238663,None,3236.219208825685,None,3236.219208825685,None,v,7.210369025411637,3236.219208825685,None,t,7.053314684508223,3236.219208825685,None,7.210369025411637,7.053314684508223,6.56382514093213,False,False,False,3243.501817137778,None,3243.501817137778,None,3243.501817137778,None,3243.501817137778,None,3243.501817137778,None,3243.501817137778,None,3243.501817137778,None,3243.501817137778,None,3244.5168761718996,None,3244.5168761718996,None,3245.500155103913,None,3245.500155103913,None,c,,,,,,,,,,,,,,,,,,,,,,,,,,,,,,,,,,,,,,,,,,,,,,,63_64Exp,001,2021_May_21_1444,ComputerHuman,2020.1.3,60.0009431487529,
Computer.xlsx,c,Sychronize.jpg,Number6.jpg,6,Computer,,,,,1,0,10,5,0,4,4,1,,,,,,,,,,,,,,,,,,,,,,,,,,,,,3246.567460257629,None,3246.567460257629,None,3247.0001658505134,None,3247.0001658505134,None,v,5.853179630219529,3247.0001658505134,None,t,5.792315699822211,3247.0001658505134,None,5.853179630219529,5.792315699822211,5.898814937942088,False,True,True,3252.933608788473,None,3252.933608788473,None,3252.933608788473,None,3252.933608788473,None,3252.933608788473,None,3252.933608788473,None,3252.933608788473,None,3252.933608788473,None,3253.931890294858,None,3253.931890294858,None,3254.915009150649,None,3254.915009150649,None,c,,,,,,,,,,,,,,,,,,,,,,,,,,,,,,,,,,,,,,,,,,,,,,,63_64Exp,001,2021_May_21_1444,ComputerHuman,2020.1.3,60.0009431487529,
Computer.xlsx,c,Sychronize.jpg,Number9.jpg,9,Computer,,,,,1,0,10,5,0,5,5,7,,,,,,,,,,,,,,,,,,,,,,,,,,,,,3255.9650029753648,None,3255.9650029753648,None,3256.4149445106523,None,3256.4149445106523,None,v,8.754093412015209,3256.4149445106523,None,t,9.045214956058771,3256.4149445106523,None,8.754093412015209,9.045214956058771,9.456749188739654,False,False,False,3265.5462602634034,None,3265.5462602634034,None,3265.5462602634034,None,3265.5462602634034,None,3265.5462602634034,None,3265.5462602634034,None,3265.5462602634034,None,3265.5462602634034,None,3266.546045652198,None,3266.546045652198,None,3267.5125480188544,None,3267.5125480188544,None,c,,,,,,,,,,,,,,,,,,,,,,,,,,,,,,,,,,,,,,,,,,,,,,,63_64Exp,001,2021_May_21_1444,ComputerHuman,2020.1.3,60.0009431487529,
Computer.xlsx,c,Sychronize.jpg,Number10.jpg,10,Computer,,,,,1,0,10,5,0,6,6,9,,,,,,,,,,,,,,,,,,,,,,,,,,,,,3268.5795933294066,None,3268.5795933294066,None,3269.0126668730445,None,3269.0126668730445,None,v,10.636029019027774,3269.0126668730445,None,t,10.603183559946046,3269.0126668730445,None,10.636029019027774,10.603183559946046,10.364800515765186,False,True,True,3279.7435748965836,None,3279.7435748965836,None,3279.7435748965836,None,3279.7435748965836,None,3279.7435748965836,None,3279.7435748965836,None,3279.7435748965836,None,3279.7435748965836,None,3280.743310241509,None,3280.743310241509,None,3281.7265105789847,None,3281.7265105789847,None,c,,,,,,,,,,,,,,,,,,,,,,,,,,,,,,,,,,,,,,,,,,,,,,,63_64Exp,001,2021_May_21_1444,ComputerHuman,2020.1.3,60.0009431487529,
Computer.xlsx,c,Sychronize.jpg,Number9.jpg,9,Computer,,,,,1,0,10,5,0,7,7,6,,,,,,,,,,,,,,,,,,,,,,,,,,,,,3282.776696880115,None,3282.776696880115,None,3283.210061704729,None,3283.210061704729,None,v,10.354471948969149,3283.210061704729,None,t,9.985186694106233,3283.210061704729,None,10.354471948969149,9.985186694106233,8.444629806067917,False,False,False,3293.657495593092,None,3293.657495593092,None,3293.657495593092,None,3293.657495593092,None,3293.657495593092,None,3293.657495593092,None,3293.657495593092,None,3293.657495593092,None,3294.65731947717,None,3294.65731947717,None,3295.6405105116173,None,3295.6405105116173,None,c,,,,,,,,,,,,,,,,,,,,,,,,,,,,,,,,,,,,,,,,,,,,,,,63_64Exp,001,2021_May_21_1444,ComputerHuman,2020.1.3,60.0009431487529,
Computer.xlsx,c,Sychronize.jpg,Number8.jpg,8,Computer,,,,,1,0,10,5,0,8,8,4,,,,,,,,,,,,,,,,,,,,,,,,,,,,,3296.690823847184,None,3296.690823847184,None,3297.1404577409994,None,3297.1404577409994,None,v,8.259606097009964,3297.1404577409994,None,t,8.851208671701897,3297.1404577409994,None,8.259606097009964,8.851208671701897,8.054817818132605,False,True,False,3306.0727224024886,None,3306.0727224024886,None,3306.0727224024886,None,3306.0727224024886,None,3306.0727224024886,None,3306.0727224024886,None,3306.0727224024886,None,3306.0727224024886,None,3307.0714658522775,None,3307.0714658522775,None,3308.071429602551,None,3308.071429602551,None,c,,,,,,,,,,,,,,,,,,,,,,,,,,,,,,,,,,,,,,,,,,,,,,,63_64Exp,001,2021_May_21_1444,ComputerHuman,2020.1.3,60.0009431487529,
Computer.xlsx,c,Sychronize.jpg,Number7.jpg,7,Computer,,,,,1,0,10,5,0,9,9,2,,,,,,,,,,,,,,,,,,,,,,,,,,,,,3309.1215655390224,None,3309.1215655390224,None,3309.5716049164876,None,3309.5716049164876,None,v,7.216144601115957,3309.5716049164876,None,t,7.603280118950352,3309.5716049164876,None,7.216144601115957,7.603280118950352,7.025141855611409,False,True,False,3317.2695799041794,None,3317.2695799041794,None,3317.2695799041794,None,3317.2695799041794,None,3317.2695799041794,None,3317.2695799041794,None,3317.2695799041794,None,3317.2695799041794,None,3318.2527597108347,None,3318.2527597108347,None,3319.235945612578,None,3319.235945612578,None,c,,,,,,,,,,,,,,,,,,,,,,,,,,,,,,,,,,,,,,,,,,,,,,,63_64Exp,001,2021_May_21_1444,ComputerHuman,2020.1.3,60.0009431487529,
Computer.xlsx,c,,,,,,,,,1,0,10,5,,,,,,,,,,,,,,,,,,,,,,,,,,,,,,,,,,,,,,,,,,,,,,,,,,,,,,,,,,,,,,,,,,,,,,,,,,,,,,,c,3320.2363806092835,None,3320.2363806092835,None,a,1,3.591258362699591,3320.2363806092835,None,l,0,2.3584331136444234,3320.2363806092835,None,c,c,3323.9358938043442,None,3323.9358938043442,None,3325.9179934975036,None,None,None,None,None,None,None,None,,,,,,,,,,,,,,,,,,63_64Exp,001,2021_May_21_1444,ComputerHuman,2020.1.3,60.0009431487529,
Human.xlsx,h,Sychronize.jpg,Number8.jpg,8,Human,,,,,1,1,11,0,0,0,0,5,,,,,,,,,,,,,,,,,,,,,,,,,3330.9197472784617,None,3330.9197472784617,None,3333.983174673951,None,3333.983174673951,None,3334.41686221736,None,3334.41686221736,None,v,8.09427976126608,3334.41686221736,None,t,7.789232548406289,3334.41686221736,None,8.09427976126608,7.789232548406289,7.566221961500123,False,False,False,3342.6148245336844,None,3342.6148245336844,None,3342.6148245336844,None,3342.6148245336844,None,3342.6148245336844,None,3342.6148245336844,None,3342.6148245336844,None,3342.6148245336844,None,3343.600386877599,None,3343.600386877599,None,3344.597708247453,None,3344.597708247453,None,h,,,,,,,,,,,,,,,,,,,,,,,,,,,,,,,,,,,,,,,,,,,,,,,63_64Exp,001,2021_May_21_1444,ComputerHuman,2020.1.3,60.0009431487529,
Human.xlsx,h,Sychronize.jpg,Number8.jpg,8,Human,,,,,1,1,11,0,0,1,1,4,,,,,,,,,,,,,,,,,,,,,,,,,,,,,3345.631437814878,None,3345.631437814878,None,3346.09786752169,None,3346.09786752169,None,v,7.705312188729295,3346.09786752169,None,t,8.104436421028367,3346.09786752169,None,7.705312188729295,8.104436421028367,7.97663186433458,False,False,False,3354.2631431719783,None,3354.2631431719783,None,3354.2631431719783,None,3354.2631431719783,None,3354.2631431719783,None,3354.2631431719783,None,3354.2631431719783,None,3354.2631431719783,None,3355.265044838983,None,3355.265044838983,None,3356.2621371619025,None,3356.2621371619025,None,h,,,,,,,,,,,,,,,,,,,,,,,,,,,,,,,,,,,,,,,,,,,,,,,63_64Exp,001,2021_May_21_1444,ComputerHuman,2020.1.3,60.0009431487529,
Human.xlsx,h,Sychronize.jpg,Number10.jpg,10,Human,,,,,1,1,11,0,0,2,2,8,,,,,,,,,,,,,,,,,,,,,,,,,,,,,3357.329291863218,None,3357.329291863218,None,3357.7788715428433,None,3357.7788715428433,None,v,10.195610575297906,3357.7788715428433,None,t,10.339184188702347,3357.7788715428433,None,10.195610575297906,10.339184188702347,10.443934229033676,True,False,False,3368.2097906337767,None,3368.2097906337767,None,3368.2097906337767,None,3368.2097906337767,None,3368.2097906337767,None,3368.2097906337767,None,3368.2097906337767,None,3368.2097906337767,None,3369.1953619599226,None,3369.1953619599226,None,3370.176130037067,None,3370.176130037067,None,h,,,,,,,,,,,,,,,,,,,,,,,,,,,,,,,,,,,,,,,,,,,,,,,63_64Exp,001,2021_May_21_1444,ComputerHuman,2020.1.3,60.0009431487529,
Human.xlsx,h,Sychronize.jpg,Number6.jpg,6,Human,,,,,1,1,11,0,0,3,3,1,,,,,,,,,,,,,,,,,,,,,,,,,,,,,3371.225980146057,None,3371.225980146057,None,3371.675988406503,None,3371.675988406503,None,v,5.930257132455154,3371.675988406503,None,t,6.105586467623652,3371.675988406503,None,5.930257132455154,6.105586467623652,6.249689148066418,True,False,False,3377.8596086633625,None,3377.8596086633625,None,3377.8596086633625,None,3377.8596086633625,None,3377.8596086633625,None,3377.8596086633625,None,3377.8596086633625,None,3377.8596086633625,None,3378.859861128265,None,3378.859861128265,None,3379.840657756078,None,3379.840657756078,None,h,,,,,,,,,,,,,,,,,,,,,,,,,,,,,,,,,,,,,,,,,,,,,,,63_64Exp,001,2021_May_21_1444,ComputerHuman,2020.1.3,60.0009431487529,
Human.xlsx,h,Sychronize.jpg,Number9.jpg,9,Human,,,,,1,1,11,0,0,4,4,6,,,,,,,,,,,,,,,,,,,,,,,,,,,,,3380.907714936009,None,3380.907714936009,None,3381.3576551881197,None,3381.3576551881197,None,v,8.692261004438478,3381.3576551881197,None,t,9.555223248582479,3381.3576551881197,None,8.692261004438478,9.555223248582479,8.538852151987609,False,False,False,3390.990274808206,None,3390.990274808206,None,3390.990274808206,None,3390.990274808206,None,3390.990274808206,None,3390.990274808206,None,3390.990274808206,None,3390.990274808206,None,3391.9904634350933,None,3391.9904634350933,None,3392.98831443589,None,3392.98831443589,None,h,,,,,,,,,,,,,,,,,,,,,,,,,,,,,,,,,,,,,,,,,,,,,,,63_64Exp,001,2021_May_21_1444,ComputerHuman,2020.1.3,60.0009431487529,
Human.xlsx,h,Sychronize.jpg,Number7.jpg,7,Human,,,,,1,1,11,0,0,5,5,3,,,,,,,,,,,,,,,,,,,,,,,,,,,,,3394.038467695238,None,3394.038467695238,None,3394.4880143330774,None,3394.4880143330774,None,v,6.889928190255887,3394.4880143330774,None,t,7.65318861245396,3394.4880143330774,None,6.889928190255887,7.65318861245396,6.858729218874365,False,False,False,3402.2213398604217,None,3402.2213398604217,None,3402.2213398604217,None,3402.2213398604217,None,3402.2213398604217,None,3402.2213398604217,None,3402.2213398604217,None,3402.2213398604217,None,3403.2054441954715,None,3403.2054441954715,None,3404.20280630617,None,3404.20280630617,None,h,,,,,,,,,,,,,,,,,,,,,,,,,,,,,,,,,,,,,,,,,,,,,,,63_64Exp,001,2021_May_21_1444,ComputerHuman,2020.1.3,60.0009431487529,
Human.xlsx,h,Sychronize.jpg,Number7.jpg,7,Human,,,,,1,1,11,0,0,6,6,2,,,,,,,,,,,,,,,,,,,,,,,,,,,,,3405.252952187253,None,3405.252952187253,None,3405.7028802491914,None,3405.7028802491914,None,v,7.094516828052292,3405.7028802491914,None,t,7.506181540549733,3405.7028802491914,None,7.094516828052292,7.506181540549733,7.017423267849995,False,False,False,3413.285542615082,None,3413.285542615082,None,3413.285542615082,None,3413.285542615082,None,3413.285542615082,None,3413.285542615082,None,3413.285542615082,None,3413.285542615082,None,3414.285819781122,None,3414.285819781122,None,3415.2840153147044,None,3415.2840153147044,None,h,,,,,,,,,,,,,,,,,,,,,,,,,,,,,,,,,,,,,,,,,,,,,,,63_64Exp,001,2021_May_21_1444,ComputerHuman,2020.1.3,60.0009431487529,
Human.xlsx,h,Sychronize.jpg,Number9.jpg,9,Human,,,,,1,1,11,0,0,7,7,7,,,,,,,,,,,,,,,,,,,,,,,,,,,,,3416.3343860724053,None,3416.3343860724053,None,3416.767512547056,None,3416.767512547056,None,v,9.129542082562693,3416.767512547056,None,t,9.60518756024976,3416.767512547056,None,9.129542082562693,9.60518756024976,8.480239537577548,False,False,False,3426.4651526257803,None,3426.4651526257803,None,3426.4651526257803,None,3426.4651526257803,None,3426.4651526257803,None,3426.4651526257803,None,3426.4651526257803,None,3426.4651526257803,None,3427.451062710421,None,3427.451062710421,None,3428.4481758849506,None,3428.4481758849506,None,h,,,,,,,,,,,,,,,,,,,,,,,,,,,,,,,,,,,,,,,,,,,,,,,63_64Exp,001,2021_May_21_1444,ComputerHuman,2020.1.3,60.0009431487529,
Human.xlsx,h,Sychronize.jpg,Number6.jpg,6,Human,,,,,1,1,11,0,0,8,8,0,,,,,,,,,,,,,,,,,,,,,,,,,,,,,3429.4986011776346,None,3429.4986011776346,None,3429.9482013880734,None,3429.9482013880734,None,v,5.1766362500457035,3429.9482013880734,None,t,6.000274920483207,3429.9482013880734,None,5.1766362500457035,6.000274920483207,6.216801929035444,False,False,False,3436.0466193923203,None,3436.0466193923203,None,3436.0466193923203,None,3436.0466193923203,None,3436.0466193923203,None,3436.0466193923203,None,3436.0466193923203,None,3436.0466193923203,None,3437.0157881989508,None,3437.0157881989508,None,3438.0129450014683,None,3438.0129450014683,None,h,,,,,,,,,,,,,,,,,,,,,,,,,,,,,,,,,,,,,,,,,,,,,,,63_64Exp,001,2021_May_21_1444,ComputerHuman,2020.1.3,60.0009431487529,
Human.xlsx,h,Sychronize.jpg,Number10.jpg,10,Human,,,,,1,1,11,0,0,9,9,9,,,,,,,,,,,,,,,,,,,,,,,,,,,,,3439.06262348565,None,3439.06262348565,None,3439.5132630687476,None,3439.5132630687476,None,v,9.835235053807992,3439.5132630687476,None,t,10.438226137335732,3439.5132630687476,None,9.835235053807992,10.438226137335732,9.553984784506948,False,False,False,3450.043968029666,None,3450.043968029666,None,3450.043968029666,None,3450.043968029666,None,3450.043968029666,None,3450.043968029666,None,3450.043968029666,None,3450.043968029666,None,3451.0123085461128,None,3451.0123085461128,None,3452.0101954758393,None,3452.0101954758393,None,h,,,,,,,,,,,,,,,,,,,,,,,,,,,,,,,,,,,,,,,,,,,,,,,63_64Exp,001,2021_May_21_1444,ComputerHuman,2020.1.3,60.0009431487529,
Human.xlsx,h,,,,,,,,,1,1,11,0,,,,,,,,,,,,,,,,,,,,,,,,,,,,,,,,,,,,,,,,,,,,,,,,,,,,,,,,,,,,,,,,,,,,,,,,,,,,,,,h,3453.0110516751047,None,3453.0110516751047,None,a,0,3.2292442253055924,3453.0110516751047,None,l,0,1.544399337239156,3453.0110516751047,None,c,c,3456.3264640638517,None,3456.3264640638517,None,3458.3257063483543,None,None,None,None,None,None,None,None,,,,,,,,,,,,,,,,,,63_64Exp,001,2021_May_21_1444,ComputerHuman,2020.1.3,60.0009431487529,
