Condition,CorrectTuringReply,Sychronize,NumberImage,Number,Partner,trials.thisRepN,trials.thisTrialN,trials.thisN,trials.thisIndex,Block.thisRepN,Block.thisTrialN,Block.thisN,Block.thisIndex,trials_loop.thisRepN,trials_loop.thisTrialN,trials_loop.thisN,trials_loop.thisIndex,key_resp_Istr.keys,key_resp_Istr.rt,key_resp_Istr.started,key_resp_Istr.stopped,key_respPrLeft.keys,key_respPrLeft.rt,key_respPrRight.keys,key_respPrRight.rt,RTPrLeft,RTPrRight,CompPr,SychronizedRTsPr,SychronizedRTsLeftCPr,SychronizedRTsRightCPr,CreditLeftPr.started,CreditLeftPr.stopped,CreditRightPr.started,CreditRightPr.stopped,text_StartExp.started,text_StartExp.stopped,key_startExp.keys,key_startExp.rt,key_startExp.started,key_startExp.stopped,SychroLeft.started,SychroLeft.stopped,SychroRight.started,SychroRight.stopped,NumberLeft.started,NumberLeft.stopped,NumberRight.started,NumberRight.stopped,CrossLeft.started,CrossLeft.stopped,CrossRight.started,CrossRight.stopped,key_respLeft.keys,key_respLeft.rt,key_respLeft.started,key_respLeft.stopped,key_respRight.keys,key_respRight.rt,key_respRight.started,key_respRight.stopped,RTLeft,RTRight,Comp,SychronizedRTs,SychronizedRTsLeftC,SychronizedRTsRightC,FeedbackLeftLeft.started,FeedbackLeftLeft.stopped,FeedbackLeftRight.started,FeedbackLeftRight.stopped,FeedbackRightLeft.started,FeedbackRightLeft.stopped,FeedbackRightRight.started,FeedbackRightRight.stopped,textLeftLeft.started,textLeftLeft.stopped,textLeftRight.started,textLeftRight.stopped,textRightLeft.started,textRightLeft.stopped,textRightRight.started,textRightRight.stopped,CreditLeft.started,CreditLeft.stopped,CreditRight.started,CreditRight.stopped,BlankLeft.started,BlankLeft.stopped,BlankRight.started,BlankRight.stopped,CorrectTuringReply,TuringtextLeft.started,TuringtextLeft.stopped,TuringtextRight.started,TuringtextRight.stopped,keyTuringLeft.keys,keyTuringLeft.corr,keyTuringLeft.rt,keyTuringLeft.started,keyTuringLeft.stopped,keyTuringRight.keys,keyTuringRight.corr,keyTuringRight.rt,keyTuringRight.started,keyTuringRight.stopped,RespTuringLeft,RespTuringRight,ScoreLeft.started,ScoreLeft.stopped,ScoreRight.started,ScoreRight.stopped,BlockText.started,BlockText.stopped,text_Pause.started,text_Pause.stopped,text_LongPause.started,text_LongPause.stopped,key_respPause.keys,key_respPause.started,key_respPause.stopped,key_respPause.rt,QuestImageLeft.started,QuestImageLeft.stopped,QuestImageRight.started,QuestImageRight.stopped,respQuestLeft.keys,respQuestLeft.rt,respQuestLeft.started,respQuestLeft.stopped,respQuestRight.keys,respQuestRight.rt,respQuestRight.started,respQuestRight.stopped,RespInclusionLeft,RespInclusionRight,EndText.started,EndText.stopped,participant,session,date,expName,psychopyVersion,frameRate,
,,,,,,,,,,,,,,,,,,"['t', 't', 't', 'v']","[57.83018007830617, 64.25781015669236, 74.52964419016098, 171.81154445176935]",22.802215089878814,None,,,,,,,,,,,,,,,,,,,,,,,,,,,,,,,,,,,,,,,,,,,,,,,,,,,,,,,,,,,,,,,,,,,,,,,,,,,,,,,,,,,,,,,,,,,,,,,,,,,,,,,,,,,,,,,,,,,,,,65_66Exp,001,2021_May_24_1033,ComputerHuman,2020.1.3,60.01253287231066,
,,,,,,,,,,,,,,,,,,,,,,v,9.965142408946349,t,10.424475700576295,9.965142408946349,10.424475700576295,10,False,True,False,264.25633129147286,None,264.25633129147286,None,265.2560258945772,None,"['space', 'space']","[75.59531286340064, 87.79906809035526]",266.2392463882487,None,,,,,,,,,,,,,,,,,,,,,,,,,,,,,,,,,,,,,,,,,,,,,,,,,,,,,,,,,,,,,,,,,,,,,,,,,,,,,,,,,,,,,,,,,,,,,,,,,,65_66Exp,001,2021_May_24_1033,ComputerHuman,2020.1.3,60.01253287231066,
Human.xlsx,h,Sychronize.jpg,Number10.jpg,10,Human,,,,,0,0,0,0,0,0,0,8,,,,,,,,,,,,,,,,,,,,,,,,,354.1260070157879,None,354.1260070157879,None,357.17247289682757,None,357.17247289682757,None,357.605596269795,None,357.605596269795,None,v,7.33242933285851,357.605596269795,None,t,10.235422831946607,357.605596269795,None,7.33242933285851,10.235422831946607,10.313089911742027,False,False,False,367.95318798109236,None,367.95318798109236,None,367.95318798109236,None,367.95318798109236,None,367.95318798109236,None,367.95318798109236,None,367.95318798109236,None,367.95318798109236,None,368.9403558579585,None,368.9403558579585,None,369.93621696011394,None,369.93621696011394,None,h,,,,,,,,,,,,,,,,,,,,,,,,,,,,,,,,,,,,,,,,,,,,,,,65_66Exp,001,2021_May_24_1033,ComputerHuman,2020.1.3,60.01253287231066,
Human.xlsx,h,Sychronize.jpg,Number6.jpg,6,Human,,,,,0,0,0,0,0,1,1,0,,,,,,,,,,,,,,,,,,,,,,,,,,,,,371.0032429172462,None,371.0032429172462,None,371.43637302691,None,371.43637302691,None,v,6.265386052793247,371.43637302691,None,t,6.224536972432361,371.43637302691,None,6.265386052793247,6.224536972432361,6.2501249961923495,True,False,False,377.7847227769304,None,377.7847227769304,None,377.7847227769304,None,377.7847227769304,None,377.7847227769304,None,377.7847227769304,None,377.7847227769304,None,377.7847227769304,None,378.75375097642006,None,378.75375097642006,None,379.7509690416729,None,379.7509690416729,None,h,,,,,,,,,,,,,,,,,,,,,,,,,,,,,,,,,,,,,,,,,,,,,,,65_66Exp,001,2021_May_24_1033,ComputerHuman,2020.1.3,60.01253287231066,
Human.xlsx,h,Sychronize.jpg,Number7.jpg,7,Human,,,,,0,0,0,0,0,2,2,2,,,,,,,,,,,,,,,,,,,,,,,,,,,,,380.8178872116654,None,380.8178872116654,None,381.2511029736098,None,381.2511029736098,None,v,6.798703667168638,381.2511029736098,None,t,7.525466476114389,381.2511029736098,None,6.798703667168638,7.525466476114389,7.2344348998776695,False,False,False,388.84946050291035,None,388.84946050291035,None,388.84946050291035,None,388.84946050291035,None,388.84946050291035,None,388.84946050291035,None,388.84946050291035,None,388.84946050291035,None,389.85150108027744,None,389.85150108027744,None,390.8488285366453,None,390.8488285366453,None,h,,,,,,,,,,,,,,,,,,,,,,,,,,,,,,,,,,,,,,,,,,,,,,,65_66Exp,001,2021_May_24_1033,ComputerHuman,2020.1.3,60.01253287231066,
Human.xlsx,h,Sychronize.jpg,Number9.jpg,9,Human,,,,,0,0,0,0,0,3,3,7,,,,,,,,,,,,,,,,,,,,,,,,,,,,,391.89880968993555,None,391.89880968993555,None,392.3489079334223,None,392.3489079334223,None,v,7.684376478664717,392.3489079334223,None,t,9.707445492909528,392.3489079334223,None,7.684376478664717,9.707445492909528,9.126780244740054,False,False,False,402.14667102947953,None,402.14667102947953,None,402.14667102947953,None,402.14667102947953,None,402.14667102947953,None,402.14667102947953,None,402.14667102947953,None,402.14667102947953,None,403.13197219990036,None,403.13197219990036,None,404.1295832390998,None,404.1295832390998,None,h,,,,,,,,,,,,,,,,,,,,,,,,,,,,,,,,,,,,,,,,,,,,,,,65_66Exp,001,2021_May_24_1033,ComputerHuman,2020.1.3,60.01253287231066,
Human.xlsx,h,Sychronize.jpg,Number8.jpg,8,Human,,,,,0,0,0,0,0,4,4,4,,,,,,,,,,,,,,,,,,,,,,,,,,,,,405.17942420494967,None,405.17942420494967,None,405.62962061172414,None,405.62962061172414,None,v,7.279405117643591,405.62962061172414,None,t,8.166476916389684,405.62962061172414,None,7.279405117643591,8.166476916389684,8.03172269524909,False,False,False,413.8790750195284,None,413.8790750195284,None,413.8790750195284,None,413.8790750195284,None,413.8790750195284,None,413.8790750195284,None,413.8790750195284,None,413.8790750195284,None,414.8627045268994,None,414.8627045268994,None,415.86069250029266,None,415.86069250029266,None,h,,,,,,,,,,,,,,,,,,,,,,,,,,,,,,,,,,,,,,,,,,,,,,,65_66Exp,001,2021_May_24_1033,ComputerHuman,2020.1.3,60.01253287231066,
Human.xlsx,h,Sychronize.jpg,Number10.jpg,10,Human,,,,,0,0,0,0,0,5,5,9,,,,,,,,,,,,,,,,,,,,,,,,,,,,,416.92732676665844,None,416.92732676665844,None,417.37729444655645,None,417.37729444655645,None,v,10.263405143307182,417.37729444655645,None,t,10.814410755616791,417.37729444655645,None,10.263405143307182,10.814410755616791,9.863080582342251,False,False,False,428.25985714996057,None,428.25985714996057,None,428.25985714996057,None,428.25985714996057,None,428.25985714996057,None,428.25985714996057,None,428.25985714996057,None,428.25985714996057,None,429.24325696806966,None,429.24325696806966,None,430.2413459919063,None,430.2413459919063,None,h,,,,,,,,,,,,,,,,,,,,,,,,,,,,,,,,,,,,,,,,,,,,,,,65_66Exp,001,2021_May_24_1033,ComputerHuman,2020.1.3,60.01253287231066,
Human.xlsx,h,Sychronize.jpg,Number7.jpg,7,Human,,,,,0,0,0,0,0,6,6,3,,,,,,,,,,,,,,,,,,,,,,,,,,,,,431.308034151842,None,431.308034151842,None,431.741506229038,None,431.741506229038,None,v,8.039020548527333,431.741506229038,None,t,7.422501848581533,431.741506229038,None,8.039020548527333,7.422501848581533,7.457467694017426,False,False,False,439.85772674997713,None,439.85772674997713,None,439.85772674997713,None,439.85772674997713,None,439.85772674997713,None,439.85772674997713,None,439.85772674997713,None,439.85772674997713,None,440.85812164869424,None,440.85812164869424,None,441.85586004353183,None,441.85586004353183,None,h,,,,,,,,,,,,,,,,,,,,,,,,,,,,,,,,,,,,,,,,,,,,,,,65_66Exp,001,2021_May_24_1033,ComputerHuman,2020.1.3,60.01253287231066,
Human.xlsx,h,Sychronize.jpg,Number6.jpg,6,Human,,,,,0,0,0,0,0,7,7,1,,,,,,,,,,,,,,,,,,,,,,,,,,,,,442.88937222011043,None,442.88937222011043,None,443.33926258839904,None,443.33926258839904,None,v,5.800957894044586,443.33926258839904,None,t,6.016494319521371,443.33926258839904,None,5.800957894044586,6.016494319521371,5.939911062411506,True,False,False,449.40552697806254,None,449.40552697806254,None,449.40552697806254,None,449.40552697806254,None,449.40552697806254,None,449.40552697806254,None,449.40552697806254,None,449.40552697806254,None,450.4231938035226,None,450.4231938035226,None,451.420660805741,None,451.420660805741,None,h,,,,,,,,,,,,,,,,,,,,,,,,,,,,,,,,,,,,,,,,,,,,,,,65_66Exp,001,2021_May_24_1033,ComputerHuman,2020.1.3,60.01253287231066,
Human.xlsx,h,Sychronize.jpg,Number8.jpg,8,Human,,,,,0,0,0,0,0,8,8,5,,,,,,,,,,,,,,,,,,,,,,,,,,,,,452.47054090858785,None,452.47054090858785,None,452.9206006566675,None,452.9206006566675,None,v,10.471374654944839,452.9206006566675,None,t,8.014483896889942,452.9206006566675,None,10.471374654944839,8.014483896889942,7.549811966263564,False,False,False,463.47015370895235,None,463.47015370895235,None,463.47015370895235,None,463.47015370895235,None,463.47015370895235,None,463.47015370895235,None,463.47015370895235,None,463.47015370895235,None,464.4536510487593,None,464.4536510487593,None,465.4512553512626,None,465.4512553512626,None,h,,,,,,,,,,,,,,,,,,,,,,,,,,,,,,,,,,,,,,,,,,,,,,,65_66Exp,001,2021_May_24_1033,ComputerHuman,2020.1.3,60.01253287231066,
Human.xlsx,h,Sychronize.jpg,Number9.jpg,9,Human,,,,,0,0,0,0,0,9,9,6,,,,,,,,,,,,,,,,,,,,,,,,,,,,,466.51837626373197,None,466.51837626373197,None,466.95129753581284,None,466.95129753581284,None,v,6.836362440672929,466.95129753581284,None,t,8.827470964037275,466.95129753581284,None,6.836362440672929,8.827470964037275,8.702338424044616,False,False,False,475.84974633130753,None,475.84974633130753,None,475.84974633130753,None,475.84974633130753,None,475.84974633130753,None,475.84974633130753,None,475.84974633130753,None,475.84974633130753,None,476.8516435132834,None,476.8516435132834,None,477.83228577706984,None,477.83228577706984,None,h,,,,,,,,,,,,,,,,,,,,,,,,,,,,,,,,,,,,,,,,,,,,,,,65_66Exp,001,2021_May_24_1033,ComputerHuman,2020.1.3,60.01253287231066,
Human.xlsx,h,,,,,,,,,0,0,0,0,,,,,,,,,,,,,,,,,,,,,,,,,,,,,,,,,,,,,,,,,,,,,,,,,,,,,,,,,,,,,,,,,,,,,,,,,,,,,,,h,478.8330730081435,None,478.8330730081435,None,q,0,6.266357420230406,478.8330730081435,None,o,1,11.025411459761926,478.8330730081435,None,h,h,489.96306397776254,None,489.96306397776254,None,491.946356329527,None,None,None,None,None,None,None,None,,,,,,,,,,,,,,,,,,65_66Exp,001,2021_May_24_1033,ComputerHuman,2020.1.3,60.01253287231066,
Computer.xlsx,c,Sychronize.jpg,Number10.jpg,10,Computer,,,,,0,1,1,7,0,0,0,9,,,,,,,,,,,,,,,,,,,,,,,,,496.932074854319,None,496.932074854319,None,500.02845708804705,None,500.02845708804705,None,500.4451708313885,None,500.4451708313885,None,v,9.87774307844552,500.4451708313885,None,t,9.545422815906932,500.4451708313885,None,9.87774307844552,9.545422815906932,10.607691036227347,False,False,False,510.3946661405629,None,510.3946661405629,None,510.3946661405629,None,510.3946661405629,None,510.3946661405629,None,510.3946661405629,None,510.3946661405629,None,510.3946661405629,None,511.42581149119985,None,511.42581149119985,None,512.3922980314411,None,512.3922980314411,None,c,,,,,,,,,,,,,,,,,,,,,,,,,,,,,,,,,,,,,,,,,,,,,,,65_66Exp,001,2021_May_24_1033,ComputerHuman,2020.1.3,60.01253287231066,
Computer.xlsx,c,Sychronize.jpg,Number10.jpg,10,Computer,,,,,0,1,1,7,0,1,1,8,,,,,,,,,,,,,,,,,,,,,,,,,,,,,513.4421733223622,None,513.4421733223622,None,513.8923116652312,None,513.8923116652312,None,v,9.29031728235259,513.8923116652312,None,t,11.053465629215452,513.8923116652312,None,9.29031728235259,11.053465629215452,9.62985819710353,False,False,False,525.024715334485,None,525.024715334485,None,525.024715334485,None,525.024715334485,None,525.024715334485,None,525.024715334485,None,525.024715334485,None,525.024715334485,None,526.0397920606432,None,526.0397920606432,None,527.0062609571563,None,527.0062609571563,None,c,,,,,,,,,,,,,,,,,,,,,,,,,,,,,,,,,,,,,,,,,,,,,,,65_66Exp,001,2021_May_24_1033,ComputerHuman,2020.1.3,60.01253287231066,
Computer.xlsx,c,Sychronize.jpg,Number8.jpg,8,Computer,,,,,0,1,1,7,0,2,2,5,,,,,,,,,,,,,,,,,,,,,,,,,,,,,528.0558144906337,None,528.0558144906337,None,528.506536359714,None,528.506536359714,None,v,7.587862398167772,528.506536359714,None,t,7.827489249355722,528.506536359714,None,7.587862398167772,7.827489249355722,8.593979136595475,False,False,False,536.421144243894,None,536.421144243894,None,536.421144243894,None,536.421144243894,None,536.421144243894,None,536.421144243894,None,536.421144243894,None,536.421144243894,None,537.4209479173184,None,537.4209479173184,None,538.404147880106,None,538.404147880106,None,c,,,,,,,,,,,,,,,,,,,,,,,,,,,,,,,,,,,,,,,,,,,,,,,65_66Exp,001,2021_May_24_1033,ComputerHuman,2020.1.3,60.01253287231066,
Computer.xlsx,c,Sychronize.jpg,Number9.jpg,9,Computer,,,,,0,1,1,7,0,3,3,7,,,,,,,,,,,,,,,,,,,,,,,,,,,,,539.4543250391772,None,539.4543250391772,None,539.9043838248716,None,539.9043838248716,None,v,11.049633732242,539.9043838248716,None,t,8.752377973569764,539.9043838248716,None,11.049633732242,8.752377973569764,9.660082461694998,False,False,False,551.051630681481,None,551.051630681481,None,551.051630681481,None,551.051630681481,None,551.051630681481,None,551.051630681481,None,551.051630681481,None,551.051630681481,None,552.0514279390042,None,552.0514279390042,None,553.0346044837526,None,553.0346044837526,None,c,,,,,,,,,,,,,,,,,,,,,,,,,,,,,,,,,,,,,,,,,,,,,,,65_66Exp,001,2021_May_24_1033,ComputerHuman,2020.1.3,60.01253287231066,
Computer.xlsx,c,Sychronize.jpg,Number7.jpg,7,Computer,,,,,0,1,1,7,0,4,4,3,,,,,,,,,,,,,,,,,,,,,,,,,,,,,554.0842475190512,None,554.0842475190512,None,554.534867375303,None,554.534867375303,None,v,6.670946072746574,554.534867375303,None,t,6.5465186518265455,554.534867375303,None,6.670946072746574,6.5465186518265455,7.147839267561389,False,False,False,561.299860293752,None,561.299860293752,None,561.299860293752,None,561.299860293752,None,561.299860293752,None,561.299860293752,None,561.299860293752,None,561.299860293752,None,562.282874195406,None,562.282874195406,None,563.2660279637054,None,563.2660279637054,None,c,,,,,,,,,,,,,,,,,,,,,,,,,,,,,,,,,,,,,,,,,,,,,,,65_66Exp,001,2021_May_24_1033,ComputerHuman,2020.1.3,60.01253287231066,
Computer.xlsx,c,Sychronize.jpg,Number9.jpg,9,Computer,,,,,0,1,1,7,0,5,5,6,,,,,,,,,,,,,,,,,,,,,,,,,,,,,564.3324027068687,None,564.3324027068687,None,564.7658359678627,None,564.7658359678627,None,v,9.92369664977673,564.7658359678627,None,t,9.04752610870787,564.7658359678627,None,9.92369664977673,9.04752610870787,8.378249586269412,False,False,False,574.7806056931498,None,574.7806056931498,None,574.7806056931498,None,574.7806056931498,None,574.7806056931498,None,574.7806056931498,None,574.7806056931498,None,574.7806056931498,None,575.7803779286584,None,575.7803779286584,None,576.7468128208953,None,576.7468128208953,None,c,,,,,,,,,,,,,,,,,,,,,,,,,,,,,,,,,,,,,,,,,,,,,,,65_66Exp,001,2021_May_24_1033,ComputerHuman,2020.1.3,60.01253287231066,
Computer.xlsx,c,Sychronize.jpg,Number8.jpg,8,Computer,,,,,0,1,1,7,0,6,6,4,,,,,,,,,,,,,,,,,,,,,,,,,,,,,577.7979799535168,None,577.7979799535168,None,578.2468428152332,None,578.2468428152332,None,v,7.594417524392384,578.2468428152332,None,t,8.285416817039277,578.2468428152332,None,7.594417524392384,8.285416817039277,7.527814354329411,False,True,False,586.6282575535207,None,586.6282575535207,None,586.6282575535207,None,586.6282575535207,None,586.6282575535207,None,586.6282575535207,None,586.6282575535207,None,586.6282575535207,None,587.6280416584463,None,587.6280416584463,None,588.6112316765872,None,588.6112316765872,None,c,,,,,,,,,,,,,,,,,,,,,,,,,,,,,,,,,,,,,,,,,,,,,,,65_66Exp,001,2021_May_24_1033,ComputerHuman,2020.1.3,60.01253287231066,
Computer.xlsx,c,Sychronize.jpg,Number7.jpg,7,Computer,,,,,0,1,1,7,0,7,7,2,,,,,,,,,,,,,,,,,,,,,,,,,,,,,589.6615018662252,None,589.6615018662252,None,590.1115218357178,None,590.1115218357178,None,v,6.813519266149115,590.1115218357178,None,t,6.956492170194451,590.1115218357178,None,6.813519266149115,6.956492170194451,7.2040305137213565,False,False,True,597.1594399559868,None,597.1594399559868,None,597.1594399559868,None,597.1594399559868,None,597.1594399559868,None,597.1594399559868,None,597.1594399559868,None,597.1594399559868,None,598.1426232374316,None,598.1426232374316,None,599.1258665075524,None,599.1258665075524,None,c,,,,,,,,,,,,,,,,,,,,,,,,,,,,,,,,,,,,,,,,,,,,,,,65_66Exp,001,2021_May_24_1033,ComputerHuman,2020.1.3,60.01253287231066,
Computer.xlsx,c,Sychronize.jpg,Number6.jpg,6,Computer,,,,,0,1,1,7,0,8,8,1,,,,,,,,,,,,,,,,,,,,,,,,,,,,,600.1935709462331,None,600.1935709462331,None,600.6429259075693,None,600.6429259075693,None,v,5.797997276449905,600.6429259075693,None,t,6.537548901196715,600.6429259075693,None,5.797997276449905,6.537548901196715,5.630046411837421,False,True,False,607.274244166743,None,607.274244166743,None,607.274244166743,None,607.274244166743,None,607.274244166743,None,607.274244166743,None,607.274244166743,None,607.274244166743,None,608.2740959594258,None,608.2740959594258,None,609.25694689719,None,609.25694689719,None,c,,,,,,,,,,,,,,,,,,,,,,,,,,,,,,,,,,,,,,,,,,,,,,,65_66Exp,001,2021_May_24_1033,ComputerHuman,2020.1.3,60.01253287231066,
Computer.xlsx,c,Sychronize.jpg,Number6.jpg,6,Computer,,,,,0,1,1,7,0,9,9,0,,,,,,,,,,,,,,,,,,,,,,,,,,,,,610.2909052996948,None,610.2909052996948,None,610.740781873796,None,610.740781873796,None,v,5.171898032082709,610.740781873796,None,t,6.247542148460752,610.740781873796,None,5.171898032082709,6.247542148460752,5.910023300800744,False,False,False,617.0397827575865,None,617.0397827575865,None,617.0397827575865,None,617.0397827575865,None,617.0397827575865,None,617.0397827575865,None,617.0397827575865,None,617.0397827575865,None,618.0721837000823,None,618.0721837000823,None,619.0554471802917,None,619.0554471802917,None,c,,,,,,,,,,,,,,,,,,,,,,,,,,,,,,,,,,,,,,,,,,,,,,,65_66Exp,001,2021_May_24_1033,ComputerHuman,2020.1.3,60.01253287231066,
Computer.xlsx,c,,,,,,,,,0,1,1,7,,,,,,,,,,,,,,,,,,,,,,,,,,,,,,,,,,,,,,,,,,,,,,,,,,,,,,,,,,,,,,,,,,,,,,,,,,,,,,,c,620.0556306750651,None,620.0556306750651,None,a,1,4.764822576272991,620.0556306750651,None,o,0,4.4966314914886425,620.0556306750651,None,c,h,624.9045798306523,None,624.9045798306523,None,626.8873088662943,None,None,None,None,None,None,None,None,,,,,,,,,,,,,,,,,,65_66Exp,001,2021_May_24_1033,ComputerHuman,2020.1.3,60.01253287231066,
Computer.xlsx,c,Sychronize.jpg,Number7.jpg,7,Computer,,,,,0,2,2,3,0,0,0,3,,,,,,,,,,,,,,,,,,,,,,,,,631.8898543750832,None,631.8898543750832,None,634.9867075359572,None,634.9867075359572,None,635.4195370606511,None,635.4195370606511,None,v,6.388715713023203,635.4195370606511,None,t,6.915501298417894,635.4195370606511,None,6.388715713023203,6.915501298417894,7.314439457117939,False,False,False,642.4029769781426,None,642.4029769781426,None,642.4029769781426,None,642.4029769781426,None,642.4029769781426,None,642.4029769781426,None,642.4029769781426,None,642.4029769781426,None,643.4341021186909,None,643.4341021186909,None,644.4005235375354,None,644.4005235375354,None,c,,,,,,,,,,,,,,,,,,,,,,,,,,,,,,,,,,,,,,,,,,,,,,,65_66Exp,001,2021_May_24_1033,ComputerHuman,2020.1.3,60.01253287231066,
Computer.xlsx,c,Sychronize.jpg,Number10.jpg,10,Computer,,,,,0,2,2,3,0,1,1,9,,,,,,,,,,,,,,,,,,,,,,,,,,,,,645.4510885378321,None,645.4510885378321,None,645.9005044502295,None,645.9005044502295,None,v,9.459250847299927,645.9005044502295,None,t,10.094422817510804,645.9005044502295,None,9.459250847299927,10.094422817510804,9.90177923979561,False,False,True,656.0818008151404,None,656.0818008151404,None,656.0818008151404,None,656.0818008151404,None,656.0818008151404,None,656.0818008151404,None,656.0818008151404,None,656.0818008151404,None,657.0814880399583,None,657.0814880399583,None,658.0646700382227,None,658.0646700382227,None,c,,,,,,,,,,,,,,,,,,,,,,,,,,,,,,,,,,,,,,,,,,,,,,,65_66Exp,001,2021_May_24_1033,ComputerHuman,2020.1.3,60.01253287231066,
Computer.xlsx,c,Sychronize.jpg,Number6.jpg,6,Computer,,,,,0,2,2,3,0,2,2,1,,,,,,,,,,,,,,,,,,,,,,,,,,,,,659.1149835351936,None,659.1149835351936,None,659.5481280806351,None,659.5481280806351,None,v,5.47148853719068,659.5481280806351,None,t,5.7465658087000975,659.5481280806351,None,5.47148853719068,5.7465658087000975,5.881466062749258,False,False,True,665.3800439810026,None,665.3800439810026,None,665.3800439810026,None,665.3800439810026,None,665.3800439810026,None,665.3800439810026,None,665.3800439810026,None,665.3800439810026,None,666.3629972523903,None,666.3629972523903,None,667.3628779166287,None,667.3628779166287,None,c,,,,,,,,,,,,,,,,,,,,,,,,,,,,,,,,,,,,,,,,,,,,,,,65_66Exp,001,2021_May_24_1033,ComputerHuman,2020.1.3,60.01253287231066,
Computer.xlsx,c,Sychronize.jpg,Number9.jpg,9,Computer,,,,,0,2,2,3,0,3,3,7,,,,,,,,,,,,,,,,,,,,,,,,,,,,,668.4131830729281,None,668.4131830729281,None,668.8626573700259,None,668.8626573700259,None,v,5.400674632007849,668.8626573700259,None,t,9.495400280054128,668.8626573700259,None,5.400674632007849,9.495400280054128,8.412476709030438,False,False,False,678.4292382240145,None,678.4292382240145,None,678.4292382240145,None,678.4292382240145,None,678.4292382240145,None,678.4292382240145,None,678.4292382240145,None,678.4292382240145,None,679.42718385246,None,679.42718385246,None,680.4103902311489,None,680.4103902311489,None,c,,,,,,,,,,,,,,,,,,,,,,,,,,,,,,,,,,,,,,,,,,,,,,,65_66Exp,001,2021_May_24_1033,ComputerHuman,2020.1.3,60.01253287231066,
Computer.xlsx,c,Sychronize.jpg,Number10.jpg,10,Computer,,,,,0,2,2,3,0,4,4,8,,,,,,,,,,,,,,,,,,,,,,,,,,,,,681.4773809008246,None,681.4773809008246,None,681.9102303148123,None,681.9102303148123,None,v,10.956734691258816,681.9102303148123,None,t,8.528379295245259,681.9102303148123,None,10.956734691258816,8.528379295245259,10.637584812432145,False,False,False,692.943151266098,None,692.943151266098,None,692.943151266098,None,692.943151266098,None,692.943151266098,None,692.943151266098,None,692.943151266098,None,692.943151266098,None,693.957766368167,None,693.957766368167,None,694.9244960710627,None,694.9244960710627,None,c,,,,,,,,,,,,,,,,,,,,,,,,,,,,,,,,,,,,,,,,,,,,,,,65_66Exp,001,2021_May_24_1033,ComputerHuman,2020.1.3,60.01253287231066,
Computer.xlsx,c,Sychronize.jpg,Number8.jpg,8,Computer,,,,,0,2,2,3,0,5,5,4,,,,,,,,,,,,,,,,,,,,,,,,,,,,,695.974598484885,None,695.974598484885,None,696.4243108119164,None,696.4243108119164,None,v,7.578414342105361,696.4243108119164,None,t,7.541455543418806,696.4243108119164,None,7.578414342105361,7.541455543418806,8.037685253161564,False,False,False,704.0730694152388,None,704.0730694152388,None,704.0730694152388,None,704.0730694152388,None,704.0730694152388,None,704.0730694152388,None,704.0730694152388,None,704.0730694152388,None,705.0889827749094,None,705.0889827749094,None,706.0722655028222,None,706.0722655028222,None,c,,,,,,,,,,,,,,,,,,,,,,,,,,,,,,,,,,,,,,,,,,,,,,,65_66Exp,001,2021_May_24_1033,ComputerHuman,2020.1.3,60.01253287231066,
Computer.xlsx,c,Sychronize.jpg,Number7.jpg,7,Computer,,,,,0,2,2,3,0,6,6,2,,,,,,,,,,,,,,,,,,,,,,,,,,,,,707.1223451401955,None,707.1223451401955,None,707.5721386283766,None,707.5721386283766,None,v,7.00233987915658,707.5721386283766,None,t,6.6455570686389365,707.5721386283766,None,7.00233987915658,6.6455570686389365,7.302769636350819,False,False,False,714.637882046865,None,714.637882046865,None,714.637882046865,None,714.637882046865,None,714.637882046865,None,714.637882046865,None,714.637882046865,None,714.637882046865,None,715.6536991680181,None,715.6536991680181,None,716.6367990427476,None,716.6367990427476,None,c,,,,,,,,,,,,,,,,,,,,,,,,,,,,,,,,,,,,,,,,,,,,,,,65_66Exp,001,2021_May_24_1033,ComputerHuman,2020.1.3,60.01253287231066,
Computer.xlsx,c,Sychronize.jpg,Number6.jpg,6,Computer,,,,,0,2,2,3,0,7,7,0,,,,,,,,,,,,,,,,,,,,,,,,,,,,,717.7037178543302,None,717.7037178543302,None,718.153503322635,None,718.153503322635,None,v,5.188814197106012,718.153503322635,None,t,5.648705672137794,718.153503322635,None,5.188814197106012,5.648705672137794,5.816733801795705,False,False,True,723.8854665402733,None,723.8854665402733,None,723.8854665402733,None,723.8854665402733,None,723.8854665402733,None,723.8854665402733,None,723.8854665402733,None,723.8854665402733,None,724.8852913861716,None,724.8852913861716,None,725.8684252651773,None,725.8684252651773,None,c,,,,,,,,,,,,,,,,,,,,,,,,,,,,,,,,,,,,,,,,,,,,,,,65_66Exp,001,2021_May_24_1033,ComputerHuman,2020.1.3,60.01253287231066,
Computer.xlsx,c,Sychronize.jpg,Number9.jpg,9,Computer,,,,,0,2,2,3,0,8,8,6,,,,,,,,,,,,,,,,,,,,,,,,,,,,,726.9188962725219,None,726.9188962725219,None,727.3516674125152,None,727.3516674125152,None,v,8.754397378462727,727.3516674125152,None,t,8.49344727973812,727.3516674125152,None,8.754397378462727,8.49344727973812,9.24211843193609,False,False,False,736.1832750288314,None,736.1832750288314,None,736.1832750288314,None,736.1832750288314,None,736.1832750288314,None,736.1832750288314,None,736.1832750288314,None,736.1832750288314,None,737.199560831565,None,737.199560831565,None,738.1827463585752,None,738.1827463585752,None,c,,,,,,,,,,,,,,,,,,,,,,,,,,,,,,,,,,,,,,,,,,,,,,,65_66Exp,001,2021_May_24_1033,ComputerHuman,2020.1.3,60.01253287231066,
Computer.xlsx,c,Sychronize.jpg,Number8.jpg,8,Computer,,,,,0,2,2,3,0,9,9,5,,,,,,,,,,,,,,,,,,,,,,,,,,,,,739.2323448033607,None,739.2323448033607,None,739.6829819825456,None,739.6829819825456,None,v,8.402758516707763,739.6829819825456,None,t,7.726482754859717,739.6829819825456,None,8.402758516707763,7.726482754859717,7.598540078578105,False,False,True,748.1808450062634,None,748.1808450062634,None,748.1808450062634,None,748.1808450062634,None,748.1808450062634,None,748.1808450062634,None,748.1808450062634,None,748.1808450062634,None,749.1638313195423,None,749.1638313195423,None,750.1470999324728,None,750.1470999324728,None,c,,,,,,,,,,,,,,,,,,,,,,,,,,,,,,,,,,,,,,,,,,,,,,,65_66Exp,001,2021_May_24_1033,ComputerHuman,2020.1.3,60.01253287231066,
Computer.xlsx,c,,,,,,,,,0,2,2,3,,,,,,,,,,,,,,,,,,,,,,,,,,,,,,,,,,,,,,,,,,,,,,,,,,,,,,,,,,,,,,,,,,,,,,,,,,,,,,,c,751.1641575681168,None,751.1641575681168,None,q,0,3.8494271402241793,751.1641575681168,None,o,0,2.8567887452261402,751.1641575681168,None,h,h,755.0967309379567,None,755.0967309379567,None,757.0958243711215,None,None,None,None,None,None,None,None,,,,,,,,,,,,,,,,,,65_66Exp,001,2021_May_24_1033,ComputerHuman,2020.1.3,60.01253287231066,
Human.xlsx,h,Sychronize.jpg,Number6.jpg,6,Human,,,,,0,3,3,8,0,0,0,0,,,,,,,,,,,,,,,,,,,,,,,,,762.080893606715,None,762.080893606715,None,765.1609255579027,None,765.1609255579027,None,765.5947893258652,None,765.5947893258652,None,v,6.566371695610314,765.5947893258652,None,t,5.2335339906424,765.5947893258652,None,6.566371695610314,5.2335339906424,6.124642538336527,False,False,False,772.2595770958745,None,772.2595770958745,None,772.2595770958745,None,772.2595770958745,None,772.2595770958745,None,772.2595770958745,None,772.2595770958745,None,772.2595770958745,None,773.2449228568083,None,773.2449228568083,None,774.2423956333377,None,774.2423956333377,None,h,,,,,,,,,,,,,,,,,,,,,,,,,,,,,,,,,,,,,,,,,,,,,,,65_66Exp,001,2021_May_24_1033,ComputerHuman,2020.1.3,60.01253287231066,
Human.xlsx,h,Sychronize.jpg,Number7.jpg,7,Human,,,,,0,3,3,8,0,1,1,3,,,,,,,,,,,,,,,,,,,,,,,,,,,,,775.3084422031562,None,775.3084422031562,None,775.7426039897281,None,775.7426039897281,None,v,6.478377931866362,775.7426039897281,None,t,7.481468150664568,775.7426039897281,None,6.478377931866362,7.481468150664568,6.653503559891535,False,False,False,783.3074750060551,None,783.3074750060551,None,783.3074750060551,None,783.3074750060551,None,783.3074750060551,None,783.3074750060551,None,783.3074750060551,None,783.3074750060551,None,784.2930045825575,None,784.2930045825575,None,785.2904273150576,None,785.2904273150576,None,h,,,,,,,,,,,,,,,,,,,,,,,,,,,,,,,,,,,,,,,,,,,,,,,65_66Exp,001,2021_May_24_1033,ComputerHuman,2020.1.3,60.01253287231066,
Human.xlsx,h,Sychronize.jpg,Number8.jpg,8,Human,,,,,0,3,3,8,0,2,2,4,,,,,,,,,,,,,,,,,,,,,,,,,,,,,786.340457549992,None,786.340457549992,None,786.7907742549133,None,786.7907742549133,None,v,7.522085937788233,786.7907742549133,None,t,8.769441062730039,786.7907742549133,None,7.522085937788233,8.769441062730039,7.998152252525746,False,False,False,795.6397237312957,None,795.6397237312957,None,795.6397237312957,None,795.6397237312957,None,795.6397237312957,None,795.6397237312957,None,795.6397237312957,None,795.6397237312957,None,796.6233044778179,None,796.6233044778179,None,797.6213874065485,None,797.6213874065485,None,h,,,,,,,,,,,,,,,,,,,,,,,,,,,,,,,,,,,,,,,,,,,,,,,65_66Exp,001,2021_May_24_1033,ComputerHuman,2020.1.3,60.01253287231066,
Human.xlsx,h,Sychronize.jpg,Number6.jpg,6,Human,,,,,0,3,3,8,0,3,3,1,,,,,,,,,,,,,,,,,,,,,,,,,,,,,798.6880245600697,None,798.6880245600697,None,799.1215678537689,None,799.1215678537689,None,v,5.766955542616643,799.1215678537689,None,t,6.25451847859722,799.1215678537689,None,5.766955542616643,6.25451847859722,5.880652729045306,False,False,False,805.453825240476,None,805.453825240476,None,805.453825240476,None,805.453825240476,None,805.453825240476,None,805.453825240476,None,805.453825240476,None,805.453825240476,None,806.4551603895094,None,806.4551603895094,None,807.4528416828267,None,807.4528416828267,None,h,,,,,,,,,,,,,,,,,,,,,,,,,,,,,,,,,,,,,,,,,,,,,,,65_66Exp,001,2021_May_24_1033,ComputerHuman,2020.1.3,60.01253287231066,
Human.xlsx,h,Sychronize.jpg,Number9.jpg,9,Human,,,,,0,3,3,8,0,4,4,7,,,,,,,,,,,,,,,,,,,,,,,,,,,,,808.5026871398073,None,808.5026871398073,None,808.952851787871,None,808.952851787871,None,v,8.05940097938742,808.952851787871,None,t,9.218435771215354,808.952851787871,None,8.05940097938742,9.218435771215354,9.493185043470218,False,False,False,818.2524685981738,None,818.2524685981738,None,818.2524685981738,None,818.2524685981738,None,818.2524685981738,None,818.2524685981738,None,818.2524685981738,None,818.2524685981738,None,819.2529834742426,None,819.2529834742426,None,820.250341406141,None,820.250341406141,None,h,,,,,,,,,,,,,,,,,,,,,,,,,,,,,,,,,,,,,,,,,,,,,,,65_66Exp,001,2021_May_24_1033,ComputerHuman,2020.1.3,60.01253287231066,
Human.xlsx,h,Sychronize.jpg,Number8.jpg,8,Human,,,,,0,3,3,8,0,5,5,5,,,,,,,,,,,,,,,,,,,,,,,,,,,,,821.3005990847718,None,821.3005990847718,None,821.7506588328514,None,821.7506588328514,None,v,8.233323869879086,821.7506588328514,None,t,8.85247148532926,821.7506588328514,None,8.233323869879086,8.85247148532926,7.984142801591357,False,False,False,830.6820994753397,None,830.6820994753397,None,830.6820994753397,None,830.6820994753397,None,830.6820994753397,None,830.6820994753397,None,830.6820994753397,None,830.6820994753397,None,831.6668235354504,None,831.6668235354504,None,832.6647961106806,None,832.6647961106806,None,h,,,,,,,,,,,,,,,,,,,,,,,,,,,,,,,,,,,,,,,,,,,,,,,65_66Exp,001,2021_May_24_1033,ComputerHuman,2020.1.3,60.01253287231066,
Human.xlsx,h,Sychronize.jpg,Number7.jpg,7,Human,,,,,0,3,3,8,0,6,6,2,,,,,,,,,,,,,,,,,,,,,,,,,,,,,833.7312324464955,None,833.7312324464955,None,834.1814955786421,None,834.1814955786421,None,v,6.79426514673969,834.1814955786421,None,t,6.961498818671998,834.1814955786421,None,6.79426514673969,6.961498818671998,6.730502744370905,True,False,False,841.2148528112074,None,841.2148528112074,None,841.2148528112074,None,841.2148528112074,None,841.2148528112074,None,841.2148528112074,None,841.2148528112074,None,841.2148528112074,None,842.2154202976657,None,842.2154202976657,None,843.1960843755163,None,843.1960843755163,None,h,,,,,,,,,,,,,,,,,,,,,,,,,,,,,,,,,,,,,,,,,,,,,,,65_66Exp,001,2021_May_24_1033,ComputerHuman,2020.1.3,60.01253287231066,
Human.xlsx,h,Sychronize.jpg,Number10.jpg,10,Human,,,,,0,3,3,8,0,7,7,8,,,,,,,,,,,,,,,,,,,,,,,,,,,,,844.2459988034344,None,844.2459988034344,None,844.6961300888121,None,844.6961300888121,None,v,9.563270248984963,844.6961300888121,None,t,10.942424665290446,844.6961300888121,None,9.563270248984963,10.942424665290446,10.716494700632428,False,False,False,855.7270338807701,None,855.7270338807701,None,855.7270338807701,None,855.7270338807701,None,855.7270338807701,None,855.7270338807701,None,855.7270338807701,None,855.7270338807701,None,856.7124300065283,None,856.7124300065283,None,857.7100513111697,None,857.7100513111697,None,h,,,,,,,,,,,,,,,,,,,,,,,,,,,,,,,,,,,,,,,,,,,,,,,65_66Exp,001,2021_May_24_1033,ComputerHuman,2020.1.3,60.01253287231066,
Human.xlsx,h,Sychronize.jpg,Number10.jpg,10,Human,,,,,0,3,3,8,0,8,8,9,,,,,,,,,,,,,,,,,,,,,,,,,,,,,858.7430123618377,None,858.7430123618377,None,859.2101368030527,None,859.2101368030527,None,v,11.03704092222165,859.2101368030527,None,t,9.84440958471464,859.2101368030527,None,11.03704092222165,9.84440958471464,10.286201752625592,False,False,False,870.3412005113474,None,870.3412005113474,None,870.3412005113474,None,870.3412005113474,None,870.3412005113474,None,870.3412005113474,None,870.3412005113474,None,870.3412005113474,None,871.3255595066813,None,871.3255595066813,None,872.3238795029603,None,872.3238795029603,None,h,,,,,,,,,,,,,,,,,,,,,,,,,,,,,,,,,,,,,,,,,,,,,,,65_66Exp,001,2021_May_24_1033,ComputerHuman,2020.1.3,60.01253287231066,
Human.xlsx,h,Sychronize.jpg,Number9.jpg,9,Human,,,,,0,3,3,8,0,9,9,6,,,,,,,,,,,,,,,,,,,,,,,,,,,,,873.3736790862473,None,873.3736790862473,None,873.8241103150048,None,873.8241103150048,None,v,8.226736343353423,873.8241103150048,None,t,8.666449167617202,873.8241103150048,None,8.226736343353423,8.666449167617202,8.472723528155544,False,False,False,882.5731648517686,None,882.5731648517686,None,882.5731648517686,None,882.5731648517686,None,882.5731648517686,None,882.5731648517686,None,882.5731648517686,None,882.5731648517686,None,883.5578533036277,None,883.5578533036277,None,884.5714521269514,None,884.5714521269514,None,h,,,,,,,,,,,,,,,,,,,,,,,,,,,,,,,,,,,,,,,,,,,,,,,65_66Exp,001,2021_May_24_1033,ComputerHuman,2020.1.3,60.01253287231066,
Human.xlsx,h,,,,,,,,,0,3,3,8,,,,,,,,,,,,,,,,,,,,,,,,,,,,,,,,,,,,,,,,,,,,,,,,,,,,,,,,,,,,,,,,,,,,,,,,,,,,,,,h,885.5722570017532,None,885.5722570017532,None,q,1,4.062437946205819,885.5722570017532,None,o,0,3.1897746575111796,885.5722570017532,None,h,h,889.7206744395309,None,889.7206744395309,None,891.7202882022806,None,None,None,None,None,None,None,None,,,,,,,,,,,,,,,,,,65_66Exp,001,2021_May_24_1033,ComputerHuman,2020.1.3,60.01253287231066,
Human.xlsx,h,Sychronize.jpg,Number10.jpg,10,Human,,,,,0,4,4,2,0,0,0,9,,,,,,,,,,,,,,,,,,,,,,,,,896.7061116270564,None,896.7061116270564,None,899.802798295295,None,899.802798295295,None,900.2186875953363,None,900.2186875953363,None,v,9.47164476438411,900.2186875953363,None,t,9.590405340596135,900.2186875953363,None,9.47164476438411,9.590405340596135,10.37661588514754,True,False,False,909.9002067524151,None,909.9002067524151,None,909.9002067524151,None,909.9002067524151,None,909.9002067524151,None,909.9002067524151,None,909.9002067524151,None,909.9002067524151,None,910.8835035953106,None,910.8835035953106,None,911.8830262522637,None,911.8830262522637,None,h,,,,,,,,,,,,,,,,,,,,,,,,,,,,,,,,,,,,,,,,,,,,,,,65_66Exp,001,2021_May_24_1033,ComputerHuman,2020.1.3,60.01253287231066,
Human.xlsx,h,Sychronize.jpg,Number6.jpg,6,Human,,,,,0,4,4,2,0,1,1,1,,,,,,,,,,,,,,,,,,,,,,,,,,,,,912.9497827415468,None,912.9497827415468,None,913.3832756704215,None,913.3832756704215,None,v,5.714847518088618,913.3832756704215,None,t,5.29453445419108,913.3832756704215,None,5.714847518088618,5.29453445419108,5.764513595066925,False,False,False,919.1816335205173,None,919.1816335205173,None,919.1816335205173,None,919.1816335205173,None,919.1816335205173,None,919.1816335205173,None,919.1816335205173,None,919.1816335205173,None,920.1668544921735,None,920.1668544921735,None,921.1645216705082,None,921.1645216705082,None,h,,,,,,,,,,,,,,,,,,,,,,,,,,,,,,,,,,,,,,,,,,,,,,,65_66Exp,001,2021_May_24_1033,ComputerHuman,2020.1.3,60.01253287231066,
Human.xlsx,h,Sychronize.jpg,Number7.jpg,7,Human,,,,,0,4,4,2,0,2,2,3,,,,,,,,,,,,,,,,,,,,,,,,,,,,,922.2151014273776,None,922.2151014273776,None,922.6644746740322,None,922.6644746740322,None,v,6.397301792763301,922.6644746740322,None,t,6.388646421290559,922.6644746740322,None,6.397301792763301,6.388646421290559,7.453903904984678,True,False,False,929.1300769426947,None,929.1300769426947,None,929.1300769426947,None,929.1300769426947,None,929.1300769426947,None,929.1300769426947,None,929.1300769426947,None,929.1300769426947,None,930.1311994046044,None,930.1311994046044,None,931.1294116137436,None,931.1294116137436,None,h,,,,,,,,,,,,,,,,,,,,,,,,,,,,,,,,,,,,,,,,,,,,,,,65_66Exp,001,2021_May_24_1033,ComputerHuman,2020.1.3,60.01253287231066,
Human.xlsx,h,Sychronize.jpg,Number7.jpg,7,Human,,,,,0,4,4,2,0,3,3,2,,,,,,,,,,,,,,,,,,,,,,,,,,,,,932.1790633105087,None,932.1790633105087,None,932.6292269961874,None,932.6292269961874,None,v,6.752381823110454,932.6292269961874,None,t,6.247626517561002,932.6292269961874,None,6.752381823110454,6.247626517561002,6.779918874852374,False,False,False,939.4777918392946,None,939.4777918392946,None,939.4777918392946,None,939.4777918392946,None,939.4777918392946,None,939.4777918392946,None,939.4777918392946,None,939.4777918392946,None,940.4634510170005,None,940.4634510170005,None,941.4607531305588,None,941.4607531305588,None,h,,,,,,,,,,,,,,,,,,,,,,,,,,,,,,,,,,,,,,,,,,,,,,,65_66Exp,001,2021_May_24_1033,ComputerHuman,2020.1.3,60.01253287231066,
Human.xlsx,h,Sychronize.jpg,Number8.jpg,8,Human,,,,,0,4,4,2,0,4,4,5,,,,,,,,,,,,,,,,,,,,,,,,,,,,,942.4939060166718,None,942.4939060166718,None,942.9442124561514,None,942.9442124561514,None,v,7.8892362030055665,942.9442124561514,None,t,8.048450319271296,942.9442124561514,None,7.8892362030055665,8.048450319271296,7.972640032233849,True,False,False,951.0592210133594,None,951.0592210133594,None,951.0592210133594,None,951.0592210133594,None,951.0592210133594,None,951.0592210133594,None,951.0592210133594,None,951.0592210133594,None,952.0610229192031,None,952.0610229192031,None,953.0585534388428,None,953.0585534388428,None,h,,,,,,,,,,,,,,,,,,,,,,,,,,,,,,,,,,,,,,,,,,,,,,,65_66Exp,001,2021_May_24_1033,ComputerHuman,2020.1.3,60.01253287231066,
Human.xlsx,h,Sychronize.jpg,Number8.jpg,8,Human,,,,,0,4,4,2,0,5,5,4,,,,,,,,,,,,,,,,,,,,,,,,,,,,,954.1089859507805,None,954.1089859507805,None,954.5587370940137,None,954.5587370940137,None,v,8.03039725656049,954.5587370940137,None,t,7.7174690553065375,954.5587370940137,None,8.03039725656049,7.7174690553065375,8.195175596612518,False,False,False,962.6734052876649,None,962.6734052876649,None,962.6734052876649,None,962.6734052876649,None,962.6734052876649,None,962.6734052876649,None,962.6734052876649,None,962.6734052876649,None,963.6418457906074,None,963.6418457906074,None,964.6395909221416,None,964.6395909221416,None,h,,,,,,,,,,,,,,,,,,,,,,,,,,,,,,,,,,,,,,,,,,,,,,,65_66Exp,001,2021_May_24_1033,ComputerHuman,2020.1.3,60.01253287231066,
Human.xlsx,h,Sychronize.jpg,Number9.jpg,9,Human,,,,,0,4,4,2,0,6,6,6,,,,,,,,,,,,,,,,,,,,,,,,,,,,,965.6899929585485,None,965.6899929585485,None,966.1395650981393,None,966.1395650981393,None,v,8.94528551562189,966.1395650981393,None,t,8.552468758571194,966.1395650981393,None,8.94528551562189,8.552468758571194,9.489980216698209,False,False,False,975.1561084993047,None,975.1561084993047,None,975.1561084993047,None,975.1561084993047,None,975.1561084993047,None,975.1561084993047,None,975.1561084993047,None,975.1561084993047,None,976.1565874463271,None,976.1565874463271,None,977.1373368556632,None,977.1373368556632,None,h,,,,,,,,,,,,,,,,,,,,,,,,,,,,,,,,,,,,,,,,,,,,,,,65_66Exp,001,2021_May_24_1033,ComputerHuman,2020.1.3,60.01253287231066,
Human.xlsx,h,Sychronize.jpg,Number6.jpg,6,Human,,,,,0,4,4,2,0,7,7,0,,,,,,,,,,,,,,,,,,,,,,,,,,,,,978.2041427473852,None,978.2041427473852,None,978.6373161643818,None,978.6373161643818,None,v,5.547315506751829,978.6373161643818,None,t,5.474528070369615,978.6373161643818,None,5.547315506751829,5.474528070369615,6.305802245306473,True,False,False,984.2692157042014,None,984.2692157042014,None,984.2692157042014,None,984.2692157042014,None,984.2692157042014,None,984.2692157042014,None,984.2692157042014,None,984.2692157042014,None,985.2546143963199,None,985.2546143963199,None,986.2521936768086,None,986.2521936768086,None,h,,,,,,,,,,,,,,,,,,,,,,,,,,,,,,,,,,,,,,,,,,,,,,,65_66Exp,001,2021_May_24_1033,ComputerHuman,2020.1.3,60.01253287231066,
Human.xlsx,h,Sychronize.jpg,Number10.jpg,10,Human,,,,,0,4,4,2,0,8,8,8,,,,,,,,,,,,,,,,,,,,,,,,,,,,,987.3018931720377,None,987.3018931720377,None,987.752505650003,None,987.752505650003,None,v,9.691870892820816,987.752505650003,None,t,9.859466100784175,987.752505650003,None,9.691870892820816,9.859466100784175,10.53642971051731,True,False,False,997.6999809126941,None,997.6999809126941,None,997.6999809126941,None,997.6999809126941,None,997.6999809126941,None,997.6999809126941,None,997.6999809126941,None,997.6999809126941,None,998.6690719880152,None,998.6690719880152,None,999.6664228624223,None,999.6664228624223,None,h,,,,,,,,,,,,,,,,,,,,,,,,,,,,,,,,,,,,,,,,,,,,,,,65_66Exp,001,2021_May_24_1033,ComputerHuman,2020.1.3,60.01253287231066,
Human.xlsx,h,Sychronize.jpg,Number9.jpg,9,Human,,,,,0,4,4,2,0,9,9,7,,,,,,,,,,,,,,,,,,,,,,,,,,,,,1000.7325278169416,None,1000.7325278169416,None,1001.1833446413592,None,1001.1833446413592,None,v,9.172761291585175,1001.1833446413592,None,t,8.97250690110377,1001.1833446413592,None,9.172761291585175,8.97250690110377,8.99273177538852,True,False,False,1010.4319678691669,None,1010.4319678691669,None,1010.4319678691669,None,1010.4319678691669,None,1010.4319678691669,None,1010.4319678691669,None,1010.4319678691669,None,1010.4319678691669,None,1011.4331413374908,None,1011.4331413374908,None,1012.4139042202195,None,1012.4139042202195,None,h,,,,,,,,,,,,,,,,,,,,,,,,,,,,,,,,,,,,,,,,,,,,,,,65_66Exp,001,2021_May_24_1033,ComputerHuman,2020.1.3,60.01253287231066,
Human.xlsx,h,,,,,,,,,0,4,4,2,,,,,,,,,,,,,,,,,,,,,,,,,,,,,,,,,,,,,,,,,,,,,,,,,,,,,,,,,,,,,,,,,,,,,,,,,,,,,,,h,1013.4140646177487,None,1013.4140646177487,None,a,0,3.1618664498091675,1013.4140646177487,None,o,0,2.6256020120265475,1013.4140646177487,None,c,h,1016.64619384683,None,1016.64619384683,None,None,None,1018.6626403678878,None,1018.6626403678878,None,"['space', 'space']",1019.6458679190506,None,"[2.753960134798035, 5.6222221152904694]",,,,,,,,,,,,,,,,,65_66Exp,001,2021_May_24_1033,ComputerHuman,2020.1.3,60.01253287231066,
Human.xlsx,h,Sychronize.jpg,Number6.jpg,6,Human,,,,,0,5,5,4,0,0,0,0,,,,,,,,,,,,,,,,,,,,,,,,,1025.331335742504,None,1025.331335742504,None,1028.394090313433,None,1028.394090313433,None,1028.827798816587,None,1028.827798816587,None,v,5.903742234754645,1028.827798816587,None,t,5.923726162922094,1028.827798816587,None,5.903742234754645,5.923726162922094,5.690747214395086,True,False,False,1034.8267052262327,None,1034.8267052262327,None,1034.8267052262327,None,1034.8267052262327,None,1034.8267052262327,None,1034.8267052262327,None,1034.8267052262327,None,1034.8267052262327,None,1035.8453575341127,None,1035.8453575341127,None,1036.8425983758148,None,1036.8425983758148,None,h,,,,,,,,,,,,,,,,,,,,,,,,,,,,,,,,,,,,,,,,,,,,,,,65_66Exp,001,2021_May_24_1033,ComputerHuman,2020.1.3,60.01253287231066,
Human.xlsx,h,Sychronize.jpg,Number8.jpg,8,Human,,,,,0,5,5,4,0,1,1,5,,,,,,,,,,,,,,,,,,,,,,,,,,,,,1037.8931755663234,None,1037.8931755663234,None,1038.3428805150684,None,1038.3428805150684,None,v,7.152376369594549,1038.3428805150684,None,t,7.319493272125783,1038.3428805150684,None,7.152376369594549,7.319493272125783,7.604144489386128,True,False,False,1045.741133144385,None,1045.741133144385,None,1045.741133144385,None,1045.741133144385,None,1045.741133144385,None,1045.741133144385,None,1045.741133144385,None,1045.741133144385,None,1046.7259964295508,None,1046.7259964295508,None,1047.723846140274,None,1047.723846140274,None,h,,,,,,,,,,,,,,,,,,,,,,,,,,,,,,,,,,,,,,,,,,,,,,,65_66Exp,001,2021_May_24_1033,ComputerHuman,2020.1.3,60.01253287231066,
Human.xlsx,h,Sychronize.jpg,Number7.jpg,7,Human,,,,,0,5,5,4,0,2,2,3,,,,,,,,,,,,,,,,,,,,,,,,,,,,,1048.7909728270547,None,1048.7909728270547,None,1049.2239059685526,None,1049.2239059685526,None,v,6.591231067076706,1049.2239059685526,None,t,6.55848366591772,1049.2239059685526,None,6.591231067076706,6.55848366591772,6.91319439255161,True,False,False,1055.9055961093977,None,1055.9055961093977,None,1055.9055961093977,None,1055.9055961093977,None,1055.9055961093977,None,1055.9055961093977,None,1055.9055961093977,None,1055.9055961093977,None,1056.8910336177182,None,1056.8910336177182,None,1057.8885339826224,None,1057.8885339826224,None,h,,,,,,,,,,,,,,,,,,,,,,,,,,,,,,,,,,,,,,,,,,,,,,,65_66Exp,001,2021_May_24_1033,ComputerHuman,2020.1.3,60.01253287231066,
Human.xlsx,h,Sychronize.jpg,Number7.jpg,7,Human,,,,,0,5,5,4,0,3,3,2,,,,,,,,,,,,,,,,,,,,,,,,,,,,,1058.938345435327,None,1058.938345435327,None,1059.3884863445564,None,1059.3884863445564,None,v,6.278383706177237,1059.3884863445564,None,t,6.345550171545256,1059.3884863445564,None,6.278383706177237,6.345550171545256,7.463910585600487,True,False,False,1065.7877077749495,None,1065.7877077749495,None,1065.7877077749495,None,1065.7877077749495,None,1065.7877077749495,None,1065.7877077749495,None,1065.7877077749495,None,1065.7877077749495,None,1066.805281569843,None,1066.805281569843,None,1067.8033250407811,None,1067.8033250407811,None,h,,,,,,,,,,,,,,,,,,,,,,,,,,,,,,,,,,,,,,,,,,,,,,,65_66Exp,001,2021_May_24_1033,ComputerHuman,2020.1.3,60.01253287231066,
Human.xlsx,h,Sychronize.jpg,Number8.jpg,8,Human,,,,,0,5,5,4,0,4,4,4,,,,,,,,,,,,,,,,,,,,,,,,,,,,,1068.8540805933426,None,1068.8540805933426,None,1069.3033094822208,None,1069.3033094822208,None,v,7.195298427622902,1069.3033094822208,None,t,8.378480425887574,1069.3033094822208,None,7.195298427622902,8.378480425887574,7.9441855044216405,False,False,False,1077.7680994977954,None,1077.7680994977954,None,1077.7680994977954,None,1077.7680994977954,None,1077.7680994977954,None,1077.7680994977954,None,1077.7680994977954,None,1077.7680994977954,None,1078.7361672368797,None,1078.7361672368797,None,1079.7344060720088,None,1079.7344060720088,None,h,,,,,,,,,,,,,,,,,,,,,,,,,,,,,,,,,,,,,,,,,,,,,,,65_66Exp,001,2021_May_24_1033,ComputerHuman,2020.1.3,60.01253287231066,
Human.xlsx,h,Sychronize.jpg,Number10.jpg,10,Human,,,,,0,5,5,4,0,5,5,8,,,,,,,,,,,,,,,,,,,,,,,,,,,,,1080.8009084916057,None,1080.8009084916057,None,1081.2345493070025,None,1081.2345493070025,None,v,9.151813695061946,1081.2345493070025,None,t,9.439462604118035,1081.2345493070025,None,9.151813695061946,9.439462604118035,9.88439399400205,True,False,False,1090.750645038664,None,1090.750645038664,None,1090.750645038664,None,1090.750645038664,None,1090.750645038664,None,1090.750645038664,None,1090.750645038664,None,1090.750645038664,None,1091.7345520337603,None,1091.7345520337603,None,1092.7318089152154,None,1092.7318089152154,None,h,,,,,,,,,,,,,,,,,,,,,,,,,,,,,,,,,,,,,,,,,,,,,,,65_66Exp,001,2021_May_24_1033,ComputerHuman,2020.1.3,60.01253287231066,
Human.xlsx,h,Sychronize.jpg,Number6.jpg,6,Human,,,,,0,5,5,4,0,6,6,1,,,,,,,,,,,,,,,,,,,,,,,,,,,,,1093.7985756699404,None,1093.7985756699404,None,1094.2318501373807,None,1094.2318501373807,None,v,5.794312945203274,1094.2318501373807,None,t,5.765509398493123,1094.2318501373807,None,5.794312945203274,5.765509398493123,5.995842878631756,True,False,False,1100.0811412604999,None,1100.0811412604999,None,1100.0811412604999,None,1100.0811412604999,None,1100.0811412604999,None,1100.0811412604999,None,1100.0811412604999,None,1100.0811412604999,None,1101.0990496446393,None,1101.0990496446393,None,1102.0968233269336,None,1102.0968233269336,None,h,,,,,,,,,,,,,,,,,,,,,,,,,,,,,,,,,,,,,,,,,,,,,,,65_66Exp,001,2021_May_24_1033,ComputerHuman,2020.1.3,60.01253287231066,
Human.xlsx,h,Sychronize.jpg,Number9.jpg,9,Human,,,,,0,5,5,4,0,7,7,7,,,,,,,,,,,,,,,,,,,,,,,,,,,,,1103.1470665697866,None,1103.1470665697866,None,1103.5971757203051,None,1103.5971757203051,None,v,8.221068857055343,1103.5971757203051,None,t,9.483430774832186,1103.5971757203051,None,8.221068857055343,9.483430774832186,9.50044519662473,False,False,False,1113.1630206704294,None,1113.1630206704294,None,1113.1630206704294,None,1113.1630206704294,None,1113.1630206704294,None,1113.1630206704294,None,1113.1630206704294,None,1113.1630206704294,None,1114.1465279548834,None,1114.1465279548834,None,1115.1442342702153,None,1115.1442342702153,None,h,,,,,,,,,,,,,,,,,,,,,,,,,,,,,,,,,,,,,,,,,,,,,,,65_66Exp,001,2021_May_24_1033,ComputerHuman,2020.1.3,60.01253287231066,
Human.xlsx,h,Sychronize.jpg,Number10.jpg,10,Human,,,,,0,5,5,4,0,8,8,9,,,,,,,,,,,,,,,,,,,,,,,,,,,,,1116.2278777321712,None,1116.2278777321712,None,1116.644241808899,None,1116.644241808899,None,v,9.297350714009553,1116.644241808899,None,t,8.944467167427774,1116.644241808899,None,9.297350714009553,8.944467167427774,9.767152618292027,False,False,False,1126.0102686498217,None,1126.0102686498217,None,1126.0102686498217,None,1126.0102686498217,None,1126.0102686498217,None,1126.0102686498217,None,1126.0102686498217,None,1126.0102686498217,None,1127.0275152337554,None,1127.0275152337554,None,1128.008552717054,None,1128.008552717054,None,h,,,,,,,,,,,,,,,,,,,,,,,,,,,,,,,,,,,,,,,,,,,,,,,65_66Exp,001,2021_May_24_1033,ComputerHuman,2020.1.3,60.01253287231066,
Human.xlsx,h,Sychronize.jpg,Number9.jpg,9,Human,,,,,0,5,5,4,0,9,9,6,,,,,,,,,,,,,,,,,,,,,,,,,,,,,1129.0748244850038,None,1129.0748244850038,None,1129.5085599349427,None,1129.5085599349427,None,v,9.18075037172116,1129.5085599349427,None,t,8.460457678309922,1129.5085599349427,None,9.18075037172116,8.460457678309922,9.212226061316844,False,False,False,1138.7731465664501,None,1138.7731465664501,None,1138.7731465664501,None,1138.7731465664501,None,1138.7731465664501,None,1138.7731465664501,None,1138.7731465664501,None,1138.7731465664501,None,1139.7581474726962,None,1139.7581474726962,None,1140.7562230231406,None,1140.7562230231406,None,h,,,,,,,,,,,,,,,,,,,,,,,,,,,,,,,,,,,,,,,,,,,,,,,65_66Exp,001,2021_May_24_1033,ComputerHuman,2020.1.3,60.01253287231066,
Human.xlsx,h,,,,,,,,,0,5,5,4,,,,,,,,,,,,,,,,,,,,,,,,,,,,,,,,,,,,,,,,,,,,,,,,,,,,,,,,,,,,,,,,,,,,,,,,,,,,,,,h,1141.7567167267357,None,1141.7567167267357,None,a,0,3.444422416517,1141.7567167267357,None,l,0,3.5515586629903737,1141.7567167267357,None,c,c,1145.3887718521582,None,1145.3887718521582,None,1147.388193779463,None,None,None,None,None,None,None,None,,,,,,,,,,,,,,,,,,65_66Exp,001,2021_May_24_1033,ComputerHuman,2020.1.3,60.01253287231066,
Computer.xlsx,c,Sychronize.jpg,Number7.jpg,7,Computer,,,,,0,6,6,1,0,0,0,3,,,,,,,,,,,,,,,,,,,,,,,,,1152.4068159326075,None,1152.4068159326075,None,1155.4875337436301,None,1155.4875337436301,None,1155.9204145955337,None,1155.9204145955337,None,v,6.3484238536789235,1155.9204145955337,None,t,6.151548076753443,1155.9204145955337,None,6.3484238536789235,6.151548076753443,6.973275805139255,False,False,False,1162.3369159725462,None,1162.3369159725462,None,1162.3369159725462,None,1162.3369159725462,None,1162.3369159725462,None,1162.3369159725462,None,1162.3369159725462,None,1162.3369159725462,None,1163.3518178653976,None,1163.3518178653976,None,1164.3350534364367,None,1164.3350534364367,None,c,,,,,,,,,,,,,,,,,,,,,,,,,,,,,,,,,,,,,,,,,,,,,,,65_66Exp,001,2021_May_24_1033,ComputerHuman,2020.1.3,60.01253287231066,
Computer.xlsx,c,Sychronize.jpg,Number10.jpg,10,Computer,,,,,0,6,6,1,0,1,1,8,,,,,,,,,,,,,,,,,,,,,,,,,,,,,1165.3853682165882,None,1165.3853682165882,None,1165.834838664145,None,1165.834838664145,None,v,10.109639089519533,1165.834838664145,None,t,10.152406524329763,1165.834838664145,None,10.109639089519533,10.152406524329763,10.008137687212665,False,True,True,1176.0828337752287,None,1176.0828337752287,None,1176.0828337752287,None,1176.0828337752287,None,1176.0828337752287,None,1176.0828337752287,None,1176.0828337752287,None,1176.0828337752287,None,1177.0824542746745,None,1177.0824542746745,None,1178.0490184473197,None,1178.0490184473197,None,c,,,,,,,,,,,,,,,,,,,,,,,,,,,,,,,,,,,,,,,,,,,,,,,65_66Exp,001,2021_May_24_1033,ComputerHuman,2020.1.3,60.01253287231066,
Computer.xlsx,c,Sychronize.jpg,Number7.jpg,7,Computer,,,,,0,6,6,1,0,2,2,2,,,,,,,,,,,,,,,,,,,,,,,,,,,,,1179.098657633078,None,1179.098657633078,None,1179.548911782963,None,1179.548911782963,None,v,7.1314111293429505,1179.548911782963,None,t,6.822505698122313,1179.548911782963,None,7.1314111293429505,6.822505698122313,7.06131128819918,False,True,True,1186.7640671039103,None,1186.7640671039103,None,1186.7640671039103,None,1186.7640671039103,None,1186.7640671039103,None,1186.7640671039103,None,1186.7640671039103,None,1186.7640671039103,None,1187.7637312314841,None,1187.7637312314841,None,1188.7470184505278,None,1188.7470184505278,None,c,,,,,,,,,,,,,,,,,,,,,,,,,,,,,,,,,,,,,,,,,,,,,,,65_66Exp,001,2021_May_24_1033,ComputerHuman,2020.1.3,60.01253287231066,
Computer.xlsx,c,Sychronize.jpg,Number8.jpg,8,Computer,,,,,0,6,6,1,0,3,3,5,,,,,,,,,,,,,,,,,,,,,,,,,,,,,1189.7966897157917,None,1189.7966897157917,None,1190.2470083454837,None,1190.2470083454837,None,v,7.768956020601308,1190.2470083454837,None,t,6.66846119422371,1190.2470083454837,None,7.768956020601308,6.66846119422371,7.545441703978501,False,True,False,1198.0789486262752,None,1198.0789486262752,None,1198.0789486262752,None,1198.0789486262752,None,1198.0789486262752,None,1198.0789486262752,None,1198.0789486262752,None,1198.0789486262752,None,1199.09488380001,None,1199.09488380001,None,1200.078233253295,None,1200.078233253295,None,c,,,,,,,,,,,,,,,,,,,,,,,,,,,,,,,,,,,,,,,,,,,,,,,65_66Exp,001,2021_May_24_1033,ComputerHuman,2020.1.3,60.01253287231066,
Computer.xlsx,c,Sychronize.jpg,Number9.jpg,9,Computer,,,,,0,6,6,1,0,4,4,6,,,,,,,,,,,,,,,,,,,,,,,,,,,,,1201.1451786908674,None,1201.1451786908674,None,1201.5951309726024,None,1201.5951309726024,None,v,8.70861511169278,1201.5951309726024,None,t,8.591473588140843,1201.5951309726024,None,8.70861511169278,8.591473588140843,8.45306531674873,False,True,True,1210.3775080960654,None,1210.3775080960654,None,1210.3775080960654,None,1210.3775080960654,None,1210.3775080960654,None,1210.3775080960654,None,1210.3775080960654,None,1210.3775080960654,None,1211.392725972049,None,1211.392725972049,None,1212.358589207492,None,1212.358589207492,None,c,,,,,,,,,,,,,,,,,,,,,,,,,,,,,,,,,,,,,,,,,,,,,,,65_66Exp,001,2021_May_24_1033,ComputerHuman,2020.1.3,60.01253287231066,
Computer.xlsx,c,Sychronize.jpg,Number6.jpg,6,Computer,,,,,0,6,6,1,0,5,5,1,,,,,,,,,,,,,,,,,,,,,,,,,,,,,1213.4428161956594,None,1213.4428161956594,None,1213.8590147421369,None,1213.8590147421369,None,v,7.016502660193055,1213.8590147421369,None,t,10.067399683375243,1213.8590147421369,None,7.016502660193055,10.067399683375243,5.61914718335649,False,False,False,1224.0086418980804,None,1224.0086418980804,None,1224.0086418980804,None,1224.0086418980804,None,1224.0086418980804,None,1224.0086418980804,None,1224.0086418980804,None,1224.0086418980804,None,1225.023337519709,None,1225.023337519709,None,1226.0065804690344,None,1226.0065804690344,None,c,,,,,,,,,,,,,,,,,,,,,,,,,,,,,,,,,,,,,,,,,,,,,,,65_66Exp,001,2021_May_24_1033,ComputerHuman,2020.1.3,60.01253287231066,
Computer.xlsx,c,Sychronize.jpg,Number10.jpg,10,Computer,,,,,0,6,6,1,0,6,6,9,,,,,,,,,,,,,,,,,,,,,,,,,,,,,1227.0567143207727,None,1227.0567143207727,None,1227.4899435561097,None,1227.4899435561097,None,v,9.30122784308628,1227.4899435561097,None,t,9.936566626727654,1227.4899435561097,None,9.30122784308628,9.936566626727654,9.876367497252533,False,False,True,1237.5058248362743,None,1237.5058248362743,None,1237.5058248362743,None,1237.5058248362743,None,1237.5058248362743,None,1237.5058248362743,None,1237.5058248362743,None,1237.5058248362743,None,1238.5206978575702,None,1238.5206978575702,None,1239.5040607842475,None,1239.5040607842475,None,c,,,,,,,,,,,,,,,,,,,,,,,,,,,,,,,,,,,,,,,,,,,,,,,65_66Exp,001,2021_May_24_1033,ComputerHuman,2020.1.3,60.01253287231066,
Computer.xlsx,c,Sychronize.jpg,Number6.jpg,6,Computer,,,,,0,6,6,1,0,7,7,0,,,,,,,,,,,,,,,,,,,,,,,,,,,,,1240.5542876665527,None,1240.5542876665527,None,1241.0043541513287,None,1241.0043541513287,None,v,5.690614338576779,1241.0043541513287,None,t,5.829554848737189,1241.0043541513287,None,5.690614338576779,5.829554848737189,5.669764857017955,False,True,True,1246.904002078752,None,1246.904002078752,None,1246.904002078752,None,1246.904002078752,None,1246.904002078752,None,1246.904002078752,None,1246.904002078752,None,1246.904002078752,None,1247.9023615328229,None,1247.9023615328229,None,1248.8855647035612,None,1248.8855647035612,None,c,,,,,,,,,,,,,,,,,,,,,,,,,,,,,,,,,,,,,,,,,,,,,,,65_66Exp,001,2021_May_24_1033,ComputerHuman,2020.1.3,60.01253287231066,
Computer.xlsx,c,Sychronize.jpg,Number8.jpg,8,Computer,,,,,0,6,6,1,0,8,8,4,,,,,,,,,,,,,,,,,,,,,,,,,,,,,1249.952674708999,None,1249.952674708999,None,1250.4018792174525,None,1250.4018792174525,None,v,7.760879042619081,1250.4018792174525,None,t,7.2765141125764785,1250.4018792174525,None,7.760879042619081,7.2765141125764785,8.149111866722517,False,False,False,1258.250412622644,None,1258.250412622644,None,1258.250412622644,None,1258.250412622644,None,1258.250412622644,None,1258.250412622644,None,1258.250412622644,None,1258.250412622644,None,1259.2500267061887,None,1259.2500267061887,None,1260.2167050818748,None,1260.2167050818748,None,c,,,,,,,,,,,,,,,,,,,,,,,,,,,,,,,,,,,,,,,,,,,,,,,65_66Exp,001,2021_May_24_1033,ComputerHuman,2020.1.3,60.01253287231066,
Computer.xlsx,c,Sychronize.jpg,Number9.jpg,9,Computer,,,,,0,6,6,1,0,9,9,7,,,,,,,,,,,,,,,,,,,,,,,,,,,,,1261.2837826870114,None,1261.2837826870114,None,1261.716681824233,None,1261.716681824233,None,v,8.94180553082765,1261.716681824233,None,t,8.873470088266686,1261.716681824233,None,8.94180553082765,8.873470088266686,8.887805408798172,False,True,True,1270.7479176390766,None,1270.7479176390766,None,1270.7479176390766,None,1270.7479176390766,None,1270.7479176390766,None,1270.7479176390766,None,1270.7479176390766,None,1270.7479176390766,None,1271.7477771308413,None,1271.7477771308413,None,1272.7303262004552,None,1272.7303262004552,None,c,,,,,,,,,,,,,,,,,,,,,,,,,,,,,,,,,,,,,,,,,,,,,,,65_66Exp,001,2021_May_24_1033,ComputerHuman,2020.1.3,60.01253287231066,
Computer.xlsx,c,,,,,,,,,0,6,6,1,,,,,,,,,,,,,,,,,,,,,,,,,,,,,,,,,,,,,,,,,,,,,,,,,,,,,,,,,,,,,,,,,,,,,,,,,,,,,,,c,1273.731823992583,None,1273.731823992583,None,a,1,3.226488047978137,1273.731823992583,None,l,0,1.8935666154998216,1273.731823992583,None,c,c,1277.0307071445873,None,1277.0307071445873,None,1279.0297598367797,None,None,None,None,None,None,None,None,,,,,,,,,,,,,,,,,,65_66Exp,001,2021_May_24_1033,ComputerHuman,2020.1.3,60.01253287231066,
Human.xlsx,h,Sychronize.jpg,Number6.jpg,6,Human,,,,,0,7,7,6,0,0,0,1,,,,,,,,,,,,,,,,,,,,,,,,,1284.048707276113,None,1284.048707276113,None,1287.1114644134022,None,1287.1114644134022,None,1287.5617795143485,None,1287.5617795143485,None,v,5.632207503075733,1287.5617795143485,None,t,5.463441713943894,1287.5617795143485,None,5.632207503075733,5.463441713943894,5.800951181390952,True,False,False,1293.260862521674,None,1293.260862521674,None,1293.260862521674,None,1293.260862521674,None,1293.260862521674,None,1293.260862521674,None,1293.260862521674,None,1293.260862521674,None,1294.2626445382234,None,1294.2626445382234,None,1295.2434045337964,None,1295.2434045337964,None,h,,,,,,,,,,,,,,,,,,,,,,,,,,,,,,,,,,,,,,,,,,,,,,,65_66Exp,001,2021_May_24_1033,ComputerHuman,2020.1.3,60.01253287231066,
Human.xlsx,h,Sychronize.jpg,Number8.jpg,8,Human,,,,,0,7,7,6,0,1,1,4,,,,,,,,,,,,,,,,,,,,,,,,,,,,,1296.2933067715026,None,1296.2933067715026,None,1296.7433626700413,None,1296.7433626700413,None,v,7.518299272918057,1296.7433626700413,None,t,7.6894832152004255,1296.7433626700413,None,7.518299272918057,7.6894832152004255,7.935779161328072,True,False,False,1304.509866212421,None,1304.509866212421,None,1304.509866212421,None,1304.509866212421,None,1304.509866212421,None,1304.509866212421,None,1304.509866212421,None,1304.509866212421,None,1305.5103730686133,None,1305.5103730686133,None,1306.507952028307,None,1306.507952028307,None,h,,,,,,,,,,,,,,,,,,,,,,,,,,,,,,,,,,,,,,,,,,,,,,,65_66Exp,001,2021_May_24_1033,ComputerHuman,2020.1.3,60.01253287231066,
Human.xlsx,h,Sychronize.jpg,Number10.jpg,10,Human,,,,,0,7,7,6,0,2,2,8,,,,,,,,,,,,,,,,,,,,,,,,,,,,,1307.558276753105,None,1307.558276753105,None,1308.0081222100857,None,1308.0081222100857,None,v,9.673302312451142,1308.0081222100857,None,t,9.83243687154254,1308.0081222100857,None,9.673302312451142,9.83243687154254,9.717913583591164,True,False,False,1317.939004027582,None,1317.939004027582,None,1317.939004027582,None,1317.939004027582,None,1317.939004027582,None,1317.939004027582,None,1317.939004027582,None,1317.939004027582,None,1318.9243424102297,None,1318.9243424102297,None,1319.9220740683713,None,1319.9220740683713,None,h,,,,,,,,,,,,,,,,,,,,,,,,,,,,,,,,,,,,,,,,,,,,,,,65_66Exp,001,2021_May_24_1033,ComputerHuman,2020.1.3,60.01253287231066,
Human.xlsx,h,Sychronize.jpg,Number9.jpg,9,Human,,,,,0,7,7,6,0,3,3,7,,,,,,,,,,,,,,,,,,,,,,,,,,,,,1320.971777733936,None,1320.971777733936,None,1321.4219378908688,None,1321.4219378908688,None,v,9.09119594001777,1321.4219378908688,None,t,6.842504062067292,1321.4219378908688,None,9.09119594001777,6.842504062067292,8.653334499542941,False,False,False,1330.5882990002424,None,1330.5882990002424,None,1330.5882990002424,None,1330.5882990002424,None,1330.5882990002424,None,1330.5882990002424,None,1330.5882990002424,None,1330.5882990002424,None,1331.5717597694124,None,1331.5717597694124,None,1332.5695976107186,None,1332.5695976107186,None,h,,,,,,,,,,,,,,,,,,,,,,,,,,,,,,,,,,,,,,,,,,,,,,,65_66Exp,001,2021_May_24_1033,ComputerHuman,2020.1.3,60.01253287231066,
Human.xlsx,h,Sychronize.jpg,Number9.jpg,9,Human,,,,,0,7,7,6,0,4,4,6,,,,,,,,,,,,,,,,,,,,,,,,,,,,,1333.6364371859217,None,1333.6364371859217,None,1334.0865357502034,None,1334.0865357502034,None,v,7.942361789459028,1334.0865357502034,None,t,8.733450102734423,1334.0865357502034,None,7.942361789459028,8.733450102734423,8.36393600292824,False,False,False,1342.9175332143186,None,1342.9175332143186,None,1342.9175332143186,None,1342.9175332143186,None,1342.9175332143186,None,1342.9175332143186,None,1342.9175332143186,None,1342.9175332143186,None,1343.8863371780621,None,1343.8863371780621,None,1344.8839860710787,None,1344.8839860710787,None,h,,,,,,,,,,,,,,,,,,,,,,,,,,,,,,,,,,,,,,,,,,,,,,,65_66Exp,001,2021_May_24_1033,ComputerHuman,2020.1.3,60.01253287231066,
Human.xlsx,h,Sychronize.jpg,Number6.jpg,6,Human,,,,,0,7,7,6,0,5,5,0,,,,,,,,,,,,,,,,,,,,,,,,,,,,,1345.950860933738,None,1345.950860933738,None,1346.3842585864809,None,1346.3842585864809,None,v,7.128372237753865,1346.3842585864809,None,t,5.391541275898362,1346.3842585864809,None,7.128372237753865,5.391541275898362,5.704867888027916,False,False,False,1353.583639772813,None,1353.583639772813,None,1353.583639772813,None,1353.583639772813,None,1353.583639772813,None,1353.583639772813,None,1353.583639772813,None,1353.583639772813,None,1354.5843265950334,None,1354.5843265950334,None,1355.5819443709292,None,1355.5819443709292,None,h,,,,,,,,,,,,,,,,,,,,,,,,,,,,,,,,,,,,,,,,,,,,,,,65_66Exp,001,2021_May_24_1033,ComputerHuman,2020.1.3,60.01253287231066,
Human.xlsx,h,Sychronize.jpg,Number10.jpg,10,Human,,,,,0,7,7,6,0,6,6,9,,,,,,,,,,,,,,,,,,,,,,,,,,,,,1356.6324458538043,None,1356.6324458538043,None,1357.0812127977983,None,1357.0812127977983,None,v,9.835164912719847,1357.0812127977983,None,t,8.982559655851219,1357.0812127977983,None,9.835164912719847,8.982559655851219,10.102135712981179,False,False,False,1367.0130627747812,None,1367.0130627747812,None,1367.0130627747812,None,1367.0130627747812,None,1367.0130627747812,None,1367.0130627747812,None,1367.0130627747812,None,1367.0130627747812,None,1367.9980582275111,None,1367.9980582275111,None,1368.9960173293493,None,1368.9960173293493,None,h,,,,,,,,,,,,,,,,,,,,,,,,,,,,,,,,,,,,,,,,,,,,,,,65_66Exp,001,2021_May_24_1033,ComputerHuman,2020.1.3,60.01253287231066,
Human.xlsx,h,Sychronize.jpg,Number7.jpg,7,Human,,,,,0,7,7,6,0,7,7,2,,,,,,,,,,,,,,,,,,,,,,,,,,,,,1370.0128879414742,None,1370.0128879414742,None,1370.4959106649922,None,1370.4959106649922,None,v,7.38020598250705,1370.4959106649922,None,t,7.407501792442417,1370.4959106649922,None,7.38020598250705,7.407501792442417,7.28019927060092,True,False,False,1377.979348497316,None,1377.979348497316,None,1377.979348497316,None,1377.979348497316,None,1377.979348497316,None,1377.979348497316,None,1377.979348497316,None,1377.979348497316,None,1378.9628047753554,None,1378.9628047753554,None,1379.960587119116,None,1379.960587119116,None,h,,,,,,,,,,,,,,,,,,,,,,,,,,,,,,,,,,,,,,,,,,,,,,,65_66Exp,001,2021_May_24_1033,ComputerHuman,2020.1.3,60.01253287231066,
Human.xlsx,h,Sychronize.jpg,Number8.jpg,8,Human,,,,,0,7,7,6,0,8,8,5,,,,,,,,,,,,,,,,,,,,,,,,,,,,,1381.0272290845633,None,1381.0272290845633,None,1381.4605975449554,None,1381.4605975449554,None,v,7.643264667151016,1381.4605975449554,None,t,7.682502714728344,1381.4605975449554,None,7.643264667151016,7.682502714728344,7.8812986114551595,True,False,False,1389.2255397777853,None,1389.2255397777853,None,1389.2255397777853,None,1389.2255397777853,None,1389.2255397777853,None,1389.2255397777853,None,1389.2255397777853,None,1389.2255397777853,None,1390.210786092251,None,1390.210786092251,None,1391.2084664231834,None,1391.2084664231834,None,h,,,,,,,,,,,,,,,,,,,,,,,,,,,,,,,,,,,,,,,,,,,,,,,65_66Exp,001,2021_May_24_1033,ComputerHuman,2020.1.3,60.01253287231066,
Human.xlsx,h,Sychronize.jpg,Number7.jpg,7,Human,,,,,0,7,7,6,0,9,9,3,,,,,,,,,,,,,,,,,,,,,,,,,,,,,1392.2581155535881,None,1392.2581155535881,None,1392.7087880202293,None,1392.7087880202293,None,v,6.526889202198618,1392.7087880202293,None,t,7.198499641511717,1392.7087880202293,None,6.526889202198618,7.198499641511717,7.464666855295989,False,False,False,1399.9739851247332,None,1399.9739851247332,None,1399.9739851247332,None,1399.9739851247332,None,1399.9739851247332,None,1399.9739851247332,None,1399.9739851247332,None,1399.9739851247332,None,1400.9756186131708,None,1400.9756186131708,None,1401.973095239241,None,1401.973095239241,None,h,,,,,,,,,,,,,,,,,,,,,,,,,,,,,,,,,,,,,,,,,,,,,,,65_66Exp,001,2021_May_24_1033,ComputerHuman,2020.1.3,60.01253287231066,
Human.xlsx,h,,,,,,,,,0,7,7,6,,,,,,,,,,,,,,,,,,,,,,,,,,,,,,,,,,,,,,,,,,,,,,,,,,,,,,,,,,,,,,,,,,,,,,,,,,,,,,,h,1402.9738058002954,None,1402.9738058002954,None,q,1,3.2457043135705135,1402.9738058002954,None,o,0,2.3566079772103876,1402.9738058002954,None,h,h,1406.3056127907407,None,1406.3056127907407,None,1408.3052005690906,None,None,None,None,None,None,None,None,,,,,,,,,,,,,,,,,,65_66Exp,001,2021_May_24_1033,ComputerHuman,2020.1.3,60.01253287231066,
Computer.xlsx,c,Sychronize.jpg,Number10.jpg,10,Computer,,,,,0,8,8,5,0,0,0,8,,,,,,,,,,,,,,,,,,,,,,,,,1413.290774736106,None,1413.290774736106,None,1416.387392433407,None,1416.387392433407,None,1416.8043028241195,None,1416.8043028241195,None,v,10.578761442358882,1416.8043028241195,None,t,9.546476948469262,1416.8043028241195,None,10.578761442358882,9.546476948469262,10.347421496095734,False,True,False,1427.453095752513,None,1427.453095752513,None,1427.453095752513,None,1427.453095752513,None,1427.453095752513,None,1427.453095752513,None,1427.453095752513,None,1427.453095752513,None,1428.4846488336693,None,1428.4846488336693,None,1429.4511873427105,None,1429.4511873427105,None,c,,,,,,,,,,,,,,,,,,,,,,,,,,,,,,,,,,,,,,,,,,,,,,,65_66Exp,001,2021_May_24_1033,ComputerHuman,2020.1.3,60.01253287231066,
Computer.xlsx,c,Sychronize.jpg,Number8.jpg,8,Computer,,,,,0,8,8,5,0,1,1,5,,,,,,,,,,,,,,,,,,,,,,,,,,,,,1430.5175758800615,None,1430.5175758800615,None,1430.95106207224,None,1430.95106207224,None,v,7.947775526865826,1430.95106207224,None,t,8.247480555809489,1430.95106207224,None,7.947775526865826,8.247480555809489,7.928156166299536,False,True,False,1439.282637127858,None,1439.282637127858,None,1439.282637127858,None,1439.282637127858,None,1439.282637127858,None,1439.282637127858,None,1439.282637127858,None,1439.282637127858,None,1440.2824314982254,None,1440.2824314982254,None,1441.2656199123912,None,1441.2656199123912,None,c,,,,,,,,,,,,,,,,,,,,,,,,,,,,,,,,,,,,,,,,,,,,,,,65_66Exp,001,2021_May_24_1033,ComputerHuman,2020.1.3,60.01253287231066,
Computer.xlsx,c,Sychronize.jpg,Number9.jpg,9,Computer,,,,,0,8,8,5,0,2,2,7,,,,,,,,,,,,,,,,,,,,,,,,,,,,,1442.3160209864127,None,1442.3160209864127,None,1442.765879595991,None,1442.765879595991,None,v,8.240644413113387,1442.765879595991,None,t,9.207457201929628,1442.765879595991,None,8.240644413113387,9.207457201929628,9.238475279636685,False,False,True,1452.0487852293127,None,1452.0487852293127,None,1452.0487852293127,None,1452.0487852293127,None,1452.0487852293127,None,1452.0487852293127,None,1452.0487852293127,None,1452.0487852293127,None,1453.0633198118217,None,1453.0633198118217,None,1454.0465130379134,None,1454.0465130379134,None,c,,,,,,,,,,,,,,,,,,,,,,,,,,,,,,,,,,,,,,,,,,,,,,,65_66Exp,001,2021_May_24_1033,ComputerHuman,2020.1.3,60.01253287231066,
Computer.xlsx,c,Sychronize.jpg,Number9.jpg,9,Computer,,,,,0,8,8,5,0,3,3,6,,,,,,,,,,,,,,,,,,,,,,,,,,,,,1455.0969551737026,None,1455.0969551737026,None,1455.546712732837,None,1455.546712732837,None,v,8.531756625620801,1455.546712732837,None,t,9.862472592072208,1455.546712732837,None,8.531756625620801,9.862472592072208,8.849029956506236,False,False,False,1465.4616766995323,None,1465.4616766995323,None,1465.4616766995323,None,1465.4616766995323,None,1465.4616766995323,None,1465.4616766995323,None,1465.4616766995323,None,1465.4616766995323,None,1466.4774585332289,None,1466.4774585332289,None,1467.477338555877,None,1467.477338555877,None,c,,,,,,,,,,,,,,,,,,,,,,,,,,,,,,,,,,,,,,,,,,,,,,,65_66Exp,001,2021_May_24_1033,ComputerHuman,2020.1.3,60.01253287231066,
Computer.xlsx,c,Sychronize.jpg,Number6.jpg,6,Computer,,,,,0,8,8,5,0,4,4,1,,,,,,,,,,,,,,,,,,,,,,,,,,,,,1468.5276976057462,None,1468.5276976057462,None,1468.9774477865944,None,1468.9774477865944,None,v,6.552505650003241,1468.9774477865944,None,t,6.875456772063899,1468.9774477865944,None,6.552505650003241,6.875456772063899,5.996376208481236,False,False,False,1475.92697742084,None,1475.92697742084,None,1475.92697742084,None,1475.92697742084,None,1475.92697742084,None,1475.92697742084,None,1475.92697742084,None,1475.92697742084,None,1476.9253833901944,None,1476.9253833901944,None,1477.9086170364635,None,1477.9086170364635,None,c,,,,,,,,,,,,,,,,,,,,,,,,,,,,,,,,,,,,,,,,,,,,,,,65_66Exp,001,2021_May_24_1033,ComputerHuman,2020.1.3,60.01253287231066,
Computer.xlsx,c,Sychronize.jpg,Number7.jpg,7,Computer,,,,,0,8,8,5,0,5,5,3,,,,,,,,,,,,,,,,,,,,,,,,,,,,,1478.9753241233075,None,1478.9753241233075,None,1479.4089880359484,None,1479.4089880359484,None,v,6.980807152446687,1479.4089880359484,None,t,7.004656981863718,1479.4089880359484,None,6.980807152446687,7.004656981863718,6.632519911234363,False,False,False,1486.490992555951,None,1486.490992555951,None,1486.490992555951,None,1486.490992555951,None,1486.490992555951,None,1486.490992555951,None,1486.490992555951,None,1486.490992555951,None,1487.5068594003378,None,1487.5068594003378,None,1488.4899727484599,None,1488.4899727484599,None,c,,,,,,,,,,,,,,,,,,,,,,,,,,,,,,,,,,,,,,,,,,,,,,,65_66Exp,001,2021_May_24_1033,ComputerHuman,2020.1.3,60.01253287231066,
Computer.xlsx,c,Sychronize.jpg,Number7.jpg,7,Computer,,,,,0,8,8,5,0,6,6,2,,,,,,,,,,,,,,,,,,,,,,,,,,,,,1489.539907386467,None,1489.539907386467,None,1489.99017853849,None,1489.99017853849,None,v,6.639532537440573,1489.99017853849,None,t,7.686506878647833,1489.99017853849,None,6.639532537440573,7.686506878647833,6.5961452762591275,False,True,False,1497.7715182107336,None,1497.7715182107336,None,1497.7715182107336,None,1497.7715182107336,None,1497.7715182107336,None,1497.7715182107336,None,1497.7715182107336,None,1497.7715182107336,None,1498.754671016648,None,1498.754671016648,None,1499.7378109907595,None,1499.7378109907595,None,c,,,,,,,,,,,,,,,,,,,,,,,,,,,,,,,,,,,,,,,,,,,,,,,65_66Exp,001,2021_May_24_1033,ComputerHuman,2020.1.3,60.01253287231066,
Computer.xlsx,c,Sychronize.jpg,Number6.jpg,6,Computer,,,,,0,8,8,5,0,7,7,0,,,,,,,,,,,,,,,,,,,,,,,,,,,,,1500.8210034148638,None,1500.8210034148638,None,1501.2544318639316,None,1501.2544318639316,None,v,5.94690071874129,1501.2544318639316,None,t,5.566510920666133,1501.2544318639316,None,5.94690071874129,5.566510920666133,6.208035042689791,False,True,False,1507.2714869332153,None,1507.2714869332153,None,1507.2714869332153,None,1507.2714869332153,None,1507.2714869332153,None,1507.2714869332153,None,1507.2714869332153,None,1507.2714869332153,None,1508.286263074404,None,1508.286263074404,None,1509.2693860463773,None,1509.2693860463773,None,c,,,,,,,,,,,,,,,,,,,,,,,,,,,,,,,,,,,,,,,,,,,,,,,65_66Exp,001,2021_May_24_1033,ComputerHuman,2020.1.3,60.01253287231066,
Computer.xlsx,c,Sychronize.jpg,Number10.jpg,10,Computer,,,,,0,8,8,5,0,8,8,9,,,,,,,,,,,,,,,,,,,,,,,,,,,,,1510.3199937124168,None,1510.3199937124168,None,1510.752724753028,None,1510.752724753028,None,v,9.436318491750171,1510.752724753028,None,t,9.55942969054513,1510.752724753028,None,9.436318491750171,9.55942969054513,9.99523279184404,False,False,False,1520.400475418277,None,1520.400475418277,None,1520.400475418277,None,1520.400475418277,None,1520.400475418277,None,1520.400475418277,None,1520.400475418277,None,1520.400475418277,None,1521.400344213098,None,1521.400344213098,None,1522.3834883575455,None,1522.3834883575455,None,c,,,,,,,,,,,,,,,,,,,,,,,,,,,,,,,,,,,,,,,,,,,,,,,65_66Exp,001,2021_May_24_1033,ComputerHuman,2020.1.3,60.01253287231066,
Computer.xlsx,c,Sychronize.jpg,Number8.jpg,8,Computer,,,,,0,8,8,5,0,9,9,4,,,,,,,,,,,,,,,,,,,,,,,,,,,,,1523.4333617236962,None,1523.4333617236962,None,1523.8834480977657,None,1523.8834480977657,None,v,8.673309369942217,1523.8834480977657,None,t,7.5045856049632675,1523.8834480977657,None,8.673309369942217,7.5045856049632675,8.57392394803003,False,True,False,1532.6318472502253,None,1532.6318472502253,None,1532.6318472502253,None,1532.6318472502253,None,1532.6318472502253,None,1532.6318472502253,None,1532.6318472502253,None,1532.6318472502253,None,1533.631390758857,None,1533.631390758857,None,1534.6310811916255,None,1534.6310811916255,None,c,,,,,,,,,,,,,,,,,,,,,,,,,,,,,,,,,,,,,,,,,,,,,,,65_66Exp,001,2021_May_24_1033,ComputerHuman,2020.1.3,60.01253287231066,
Computer.xlsx,c,,,,,,,,,0,8,8,5,,,,,,,,,,,,,,,,,,,,,,,,,,,,,,,,,,,,,,,,,,,,,,,,,,,,,,,,,,,,,,,,,,,,,,,,,,,,,,,c,1535.6317211777673,None,1535.6317211777673,None,a,1,3.4169116738926277,1535.6317211777673,None,o,0,2.7645059515502908,1535.6317211777673,None,c,h,1539.147599410379,None,1539.147599410379,None,1541.1466203438604,None,None,None,None,None,None,None,None,,,,,,,,,,,,,,,,,,65_66Exp,001,2021_May_24_1033,ComputerHuman,2020.1.3,60.01253287231066,
Computer.xlsx,c,Sychronize.jpg,Number10.jpg,10,Computer,,,,,0,9,9,9,0,0,0,9,,,,,,,,,,,,,,,,,,,,,,,,,1546.1320453411736,None,1546.1320453411736,None,1549.2117154355356,None,1549.2117154355356,None,1549.6454710955636,None,1549.6454710955636,None,v,9.766709492806967,1549.6454710955636,None,t,9.002404038168152,1549.6454710955636,None,9.766709492806967,9.002404038168152,10.300841307779125,False,False,False,1559.5098075069254,None,1559.5098075069254,None,1559.5098075069254,None,1559.5098075069254,None,1559.5098075069254,None,1559.5098075069254,None,1559.5098075069254,None,1559.5098075069254,None,1560.526139504147,None,1560.526139504147,None,1561.4926770508027,None,1561.4926770508027,None,c,,,,,,,,,,,,,,,,,,,,,,,,,,,,,,,,,,,,,,,,,,,,,,,65_66Exp,001,2021_May_24_1033,ComputerHuman,2020.1.3,60.01253287231066,
Computer.xlsx,c,Sychronize.jpg,Number8.jpg,8,Computer,,,,,0,9,9,9,0,1,1,4,,,,,,,,,,,,,,,,,,,,,,,,,,,,,1562.5594300113403,None,1562.5594300113403,None,1562.9929752298099,None,1562.9929752298099,None,v,8.926965230627502,1562.9929752298099,None,t,7.95452730046145,1562.9929752298099,None,8.926965230627502,7.95452730046145,7.95529751355795,False,False,True,1571.991028645395,None,1571.991028645395,None,1571.991028645395,None,1571.991028645395,None,1571.991028645395,None,1571.991028645395,None,1571.991028645395,None,1571.991028645395,None,1573.0071405772069,None,1573.0071405772069,None,1573.9901044348312,None,1573.9901044348312,None,c,,,,,,,,,,,,,,,,,,,,,,,,,,,,,,,,,,,,,,,,,,,,,,,65_66Exp,001,2021_May_24_1033,ComputerHuman,2020.1.3,60.01253287231066,
Computer.xlsx,c,Sychronize.jpg,Number6.jpg,6,Computer,,,,,0,9,9,9,0,2,2,1,,,,,,,,,,,,,,,,,,,,,,,,,,,,,1575.0401673908618,None,1575.0401673908618,None,1575.4903057337306,None,1575.4903057337306,None,v,5.3574086816765885,1575.4903057337306,None,t,5.596450723473026,1575.4903057337306,None,5.3574086816765885,5.596450723473026,6.091756870507001,False,False,False,1581.1723327093869,None,1581.1723327093869,None,1581.1723327093869,None,1581.1723327093869,None,1581.1723327093869,None,1581.1723327093869,None,1581.1723327093869,None,1581.1723327093869,None,1582.1552927174712,None,1582.1552927174712,None,1583.1386072040946,None,1583.1386072040946,None,c,,,,,,,,,,,,,,,,,,,,,,,,,,,,,,,,,,,,,,,,,,,,,,,65_66Exp,001,2021_May_24_1033,ComputerHuman,2020.1.3,60.01253287231066,
Computer.xlsx,c,Sychronize.jpg,Number6.jpg,6,Computer,,,,,0,9,9,9,0,3,3,0,,,,,,,,,,,,,,,,,,,,,,,,,,,,,1584.2056912251323,None,1584.2056912251323,None,1584.6555273790564,None,1584.6555273790564,None,v,4.940050781857735,1584.6555273790564,None,t,6.235444325215667,1584.6555273790564,None,4.940050781857735,6.235444325215667,6.351248550457331,False,False,True,1590.9870498242844,None,1590.9870498242844,None,1590.9870498242844,None,1590.9870498242844,None,1590.9870498242844,None,1590.9870498242844,None,1590.9870498242844,None,1590.9870498242844,None,1591.986844515447,None,1591.986844515447,None,1592.9534118960432,None,1592.9534118960432,None,c,,,,,,,,,,,,,,,,,,,,,,,,,,,,,,,,,,,,,,,,,,,,,,,65_66Exp,001,2021_May_24_1033,ComputerHuman,2020.1.3,60.01253287231066,
Computer.xlsx,c,Sychronize.jpg,Number9.jpg,9,Computer,,,,,0,9,9,9,0,4,4,6,,,,,,,,,,,,,,,,,,,,,,,,,,,,,1594.0201128877811,None,1594.0201128877811,None,1594.4537575527188,None,1594.4537575527188,None,v,9.441490028887529,1594.4537575527188,None,t,8.612450697809436,1594.4537575527188,None,9.441490028887529,8.612450697809436,9.573458870231455,False,True,False,1603.9845774567689,None,1603.9845774567689,None,1603.9845774567689,None,1603.9845774567689,None,1603.9845774567689,None,1603.9845774567689,None,1603.9845774567689,None,1603.9845774567689,None,1604.9844042274376,None,1604.9844042274376,None,1605.9675814137759,None,1605.9675814137759,None,c,,,,,,,,,,,,,,,,,,,,,,,,,,,,,,,,,,,,,,,,,,,,,,,65_66Exp,001,2021_May_24_1033,ComputerHuman,2020.1.3,60.01253287231066,
Computer.xlsx,c,Sychronize.jpg,Number8.jpg,8,Computer,,,,,0,9,9,9,0,5,5,5,,,,,,,,,,,,,,,,,,,,,,,,,,,,,1607.017587589081,None,1607.017587589081,None,1607.4675353796852,None,1607.4675353796852,None,v,8.299415992596096,1607.4675353796852,None,t,7.898461627296911,1607.4675353796852,None,8.299415992596096,7.898461627296911,8.509205612433941,False,True,False,1615.8656651444944,None,1615.8656651444944,None,1615.8656651444944,None,1615.8656651444944,None,1615.8656651444944,None,1615.8656651444944,None,1615.8656651444944,None,1615.8656651444944,None,1616.848919642442,None,1616.848919642442,None,1617.8486588360593,None,1617.8486588360593,None,c,,,,,,,,,,,,,,,,,,,,,,,,,,,,,,,,,,,,,,,,,,,,,,,65_66Exp,001,2021_May_24_1033,ComputerHuman,2020.1.3,60.01253287231066,
Computer.xlsx,c,Sychronize.jpg,Number7.jpg,7,Computer,,,,,0,9,9,9,0,6,6,3,,,,,,,,,,,,,,,,,,,,,,,,,,,,,1618.8989627091787,None,1618.8989627091787,None,1619.3486496934001,None,1619.3486496934001,None,v,6.4660927643067225,1619.3486496934001,None,t,6.653473969886818,1619.3486496934001,None,6.4660927643067225,6.653473969886818,6.948955749648649,False,False,True,1626.08185342553,None,1626.08185342553,None,1626.08185342553,None,1626.08185342553,None,1626.08185342553,None,1626.08185342553,None,1626.08185342553,None,1626.08185342553,None,1627.0967967009437,None,1627.0967967009437,None,1628.0633708182359,None,1628.0633708182359,None,c,,,,,,,,,,,,,,,,,,,,,,,,,,,,,,,,,,,,,,,,,,,,,,,65_66Exp,001,2021_May_24_1033,ComputerHuman,2020.1.3,60.01253287231066,
Computer.xlsx,c,Sychronize.jpg,Number9.jpg,9,Computer,,,,,0,9,9,9,0,7,7,7,,,,,,,,,,,,,,,,,,,,,,,,,,,,,1629.129886711225,None,1629.129886711225,None,1629.5636266522952,None,1629.5636266522952,None,v,8.978848698614456,1629.5636266522952,None,t,8.514407708064027,1629.5636266522952,None,8.978848698614456,8.514407708064027,9.06040488306986,False,True,False,1638.6281022887124,None,1638.6281022887124,None,1638.6281022887124,None,1638.6281022887124,None,1638.6281022887124,None,1638.6281022887124,None,1638.6281022887124,None,1638.6281022887124,None,1639.6278029869231,None,1639.6278029869231,None,1640.611042086708,None,1640.611042086708,None,c,,,,,,,,,,,,,,,,,,,,,,,,,,,,,,,,,,,,,,,,,,,,,,,65_66Exp,001,2021_May_24_1033,ComputerHuman,2020.1.3,60.01253287231066,
Computer.xlsx,c,Sychronize.jpg,Number7.jpg,7,Computer,,,,,0,9,9,9,0,8,8,2,,,,,,,,,,,,,,,,,,,,,,,,,,,,,1641.661301369314,None,1641.661301369314,None,1642.1110111299845,None,1642.1110111299845,None,v,6.319210651678986,1642.1110111299845,None,t,6.458547985327186,1642.1110111299845,None,6.319210651678986,6.458547985327186,7.403163418661502,False,False,False,1648.644458024769,None,1648.644458024769,None,1648.644458024769,None,1648.644458024769,None,1648.644458024769,None,1648.644458024769,None,1648.644458024769,None,1648.644458024769,None,1649.642599658995,None,1649.642599658995,None,1650.6424549804237,None,1650.6424549804237,None,c,,,,,,,,,,,,,,,,,,,,,,,,,,,,,,,,,,,,,,,,,,,,,,,65_66Exp,001,2021_May_24_1033,ComputerHuman,2020.1.3,60.01253287231066,
Computer.xlsx,c,Sychronize.jpg,Number10.jpg,10,Computer,,,,,0,9,9,9,0,9,9,8,,,,,,,,,,,,,,,,,,,,,,,,,,,,,1651.6923716539072,None,1651.6923716539072,None,1652.142629332538,None,1652.142629332538,None,v,9.419302880258329,1652.142629332538,None,t,9.930410569555534,1652.142629332538,None,9.419302880258329,9.930410569555534,10.399642142005126,False,False,False,1662.1570234068117,None,1662.1570234068117,None,1662.1570234068117,None,1662.1570234068117,None,1662.1570234068117,None,1662.1570234068117,None,1662.1570234068117,None,1662.1570234068117,None,1663.1400254390483,None,1663.1400254390483,None,1664.1232311761473,None,1664.1232311761473,None,c,,,,,,,,,,,,,,,,,,,,,,,,,,,,,,,,,,,,,,,,,,,,,,,65_66Exp,001,2021_May_24_1033,ComputerHuman,2020.1.3,60.01253287231066,
Computer.xlsx,c,,,,,,,,,0,9,9,9,,,,,,,,,,,,,,,,,,,,,,,,,,,,,,,,,,,,,,,,,,,,,,,,,,,,,,,,,,,,,,,,,,,,,,,,,,,,,,,c,1665.124288837455,None,1665.124288837455,None,q,0,2.293516250675566,1665.124288837455,None,l,1,3.0566090999932385,1665.124288837455,None,h,c,1668.272920887127,None,1668.272920887127,None,None,None,1670.2720797624834,None,1670.2720797624834,None,"['space', 'space']",1671.2551552567884,None,"[289.01635926480185, 309.45991328909577]",,,,,,,,,,,,,,,,,65_66Exp,001,2021_May_24_1033,ComputerHuman,2020.1.3,60.01253287231066,
Human.xlsx,h,Sychronize.jpg,Number8.jpg,8,Human,,,,,1,0,10,8,0,0,0,4,,,,,,,,,,,,,,,,,,,,,,,,,1980.7653230165643,None,1980.7653230165643,None,1983.8632354427214,None,1983.8632354427214,None,1984.2962837496452,None,1984.2962837496452,None,v,6.910553034640998,1984.2962837496452,None,t,7.645544557631638,1984.2962837496452,None,6.910553034640998,7.645544557631638,7.550197196279315,False,False,False,1992.01138212947,None,1992.01138212947,None,1992.01138212947,None,1992.01138212947,None,1992.01138212947,None,1992.01138212947,None,1992.01138212947,None,1992.01138212947,None,1993.0297861419745,None,1993.0297861419745,None,1994.0104428415384,None,1994.0104428415384,None,h,,,,,,,,,,,,,,,,,,,,,,,,,,,,,,,,,,,,,,,,,,,,,,,65_66Exp,001,2021_May_24_1033,ComputerHuman,2020.1.3,60.01253287231066,
Human.xlsx,h,Sychronize.jpg,Number10.jpg,10,Human,,,,,1,0,10,8,0,1,1,9,,,,,,,,,,,,,,,,,,,,,,,,,,,,,1995.077634008126,None,1995.077634008126,None,1995.5103371395667,None,1995.5103371395667,None,v,9.14853677353949,1995.5103371395667,None,t,9.435418982405736,1995.5103371395667,None,9.14853677353949,9.435418982405736,10.035026909588321,True,False,False,2005.0266879032997,None,2005.0266879032997,None,2005.0266879032997,None,2005.0266879032997,None,2005.0266879032997,None,2005.0266879032997,None,2005.0266879032997,None,2005.0266879032997,None,2006.026980468393,None,2006.026980468393,None,2007.0246460427525,None,2007.0246460427525,None,h,,,,,,,,,,,,,,,,,,,,,,,,,,,,,,,,,,,,,,,,,,,,,,,65_66Exp,001,2021_May_24_1033,ComputerHuman,2020.1.3,60.01253287231066,
Human.xlsx,h,Sychronize.jpg,Number7.jpg,7,Human,,,,,1,0,10,8,0,2,2,3,,,,,,,,,,,,,,,,,,,,,,,,,,,,,2008.0748921727613,None,2008.0748921727613,None,2008.5249185581547,None,2008.5249185581547,None,v,6.401430104370775,2008.5249185581547,None,t,6.500527868268819,2008.5249185581547,None,6.401430104370775,6.500527868268819,6.935933501049024,True,False,False,2015.1067621994353,None,2015.1067621994353,None,2015.1067621994353,None,2015.1067621994353,None,2015.1067621994353,None,2015.1067621994353,None,2015.1067621994353,None,2015.1067621994353,None,2016.0917996763178,None,2016.0917996763178,None,2017.1059688732557,None,2017.1059688732557,None,h,,,,,,,,,,,,,,,,,,,,,,,,,,,,,,,,,,,,,,,,,,,,,,,65_66Exp,001,2021_May_24_1033,ComputerHuman,2020.1.3,60.01253287231066,
Human.xlsx,h,Sychronize.jpg,Number10.jpg,10,Human,,,,,1,0,10,8,0,3,3,8,,,,,,,,,,,,,,,,,,,,,,,,,,,,,2018.1565659530584,None,2018.1565659530584,None,2018.6061656810239,None,2018.6061656810239,None,v,9.355878810042668,2018.6061656810239,None,t,9.679415383085598,2018.6061656810239,None,9.355878810042668,9.679415383085598,10.433953997014353,False,False,False,2028.3552000076993,None,2028.3552000076993,None,2028.3552000076993,None,2028.3552000076993,None,2028.3552000076993,None,2028.3552000076993,None,2028.3552000076993,None,2028.3552000076993,None,2029.339083905552,None,2029.339083905552,None,2030.336869778058,None,2030.336869778058,None,h,,,,,,,,,,,,,,,,,,,,,,,,,,,,,,,,,,,,,,,,,,,,,,,65_66Exp,001,2021_May_24_1033,ComputerHuman,2020.1.3,60.01253287231066,
Human.xlsx,h,Sychronize.jpg,Number6.jpg,6,Human,,,,,1,0,10,8,0,4,4,0,,,,,,,,,,,,,,,,,,,,,,,,,,,,,2031.3875329416428,None,2031.3875329416428,None,2031.8368086665996,None,2031.8368086665996,None,v,5.597044515126527,2031.8368086665996,None,t,5.772862021233323,2031.8368086665996,None,5.597044515126527,5.772862021233323,6.304480818202778,True,False,False,2037.686785328759,None,2037.686785328759,None,2037.686785328759,None,2037.686785328759,None,2037.686785328759,None,2037.686785328759,None,2037.686785328759,None,2037.686785328759,None,2038.6874808124458,None,2038.6874808124458,None,2039.6851078913983,None,2039.6851078913983,None,h,,,,,,,,,,,,,,,,,,,,,,,,,,,,,,,,,,,,,,,,,,,,,,,65_66Exp,001,2021_May_24_1033,ComputerHuman,2020.1.3,60.01253287231066,
Human.xlsx,h,Sychronize.jpg,Number9.jpg,9,Human,,,,,1,0,10,8,0,5,5,6,,,,,,,,,,,,,,,,,,,,,,,,,,,,,2040.7353970079448,None,2040.7353970079448,None,2041.1849511830123,None,2041.1849511830123,None,v,8.676386115348578,2041.1849511830123,None,t,7.779472645003352,2041.1849511830123,None,8.676386115348578,7.779472645003352,9.052983637064099,False,False,False,2049.916876867629,None,2049.916876867629,None,2049.916876867629,None,2049.916876867629,None,2049.916876867629,None,2049.916876867629,None,2049.916876867629,None,2049.916876867629,None,2050.935339585629,None,2050.935339585629,None,2051.9327578269986,None,2051.9327578269986,None,h,,,,,,,,,,,,,,,,,,,,,,,,,,,,,,,,,,,,,,,,,,,,,,,65_66Exp,001,2021_May_24_1033,ComputerHuman,2020.1.3,60.01253287231066,
Human.xlsx,h,Sychronize.jpg,Number9.jpg,9,Human,,,,,1,0,10,8,0,6,6,7,,,,,,,,,,,,,,,,,,,,,,,,,,,,,2052.983190980526,None,2052.983190980526,None,2053.4328577546594,None,2053.4328577546594,None,v,8.64843941223944,2053.4328577546594,None,t,8.407502434032722,2053.4328577546594,None,8.64843941223944,8.407502434032722,9.096743191019725,True,False,False,2062.149142755405,None,2062.149142755405,None,2062.149142755405,None,2062.149142755405,None,2062.149142755405,None,2062.149142755405,None,2062.149142755405,None,2062.149142755405,None,2063.1326526062194,None,2063.1326526062194,None,2064.130444894627,None,2064.130444894627,None,h,,,,,,,,,,,,,,,,,,,,,,,,,,,,,,,,,,,,,,,,,,,,,,,65_66Exp,001,2021_May_24_1033,ComputerHuman,2020.1.3,60.01253287231066,
Human.xlsx,h,Sychronize.jpg,Number8.jpg,8,Human,,,,,1,0,10,8,0,7,7,5,,,,,,,,,,,,,,,,,,,,,,,,,,,,,2065.19728318665,None,2065.19728318665,None,2065.630282732725,None,2065.630282732725,None,v,7.0748183898977,2065.630282732725,None,t,7.986467581253237,2065.630282732725,None,7.0748183898977,7.986467581253237,7.575776860161151,False,False,False,2073.6959440276783,None,2073.6959440276783,None,2073.6959440276783,None,2073.6959440276783,None,2073.6959440276783,None,2073.6959440276783,None,2073.6959440276783,None,2073.6959440276783,None,2074.6980455561065,None,2074.6980455561065,None,2075.694911388385,None,2075.694911388385,None,h,,,,,,,,,,,,,,,,,,,,,,,,,,,,,,,,,,,,,,,,,,,,,,,65_66Exp,001,2021_May_24_1033,ComputerHuman,2020.1.3,60.01253287231066,
Human.xlsx,h,Sychronize.jpg,Number7.jpg,7,Human,,,,,1,0,10,8,0,8,8,2,,,,,,,,,,,,,,,,,,,,,,,,,,,,,2076.744543516652,None,2076.744543516652,None,2077.178223789841,None,2077.178223789841,None,v,6.658605407642426,2077.178223789841,None,t,6.337628137576303,2077.178223789841,None,6.658605407642426,6.337628137576303,7.443557163776674,False,False,False,2083.9266729863293,None,2083.9266729863293,None,2083.9266729863293,None,2083.9266729863293,None,2083.9266729863293,None,2083.9266729863293,None,2083.9266729863293,None,2083.9266729863293,None,2084.9118958827557,None,2084.9118958827557,None,2085.9095893662857,None,2085.9095893662857,None,h,,,,,,,,,,,,,,,,,,,,,,,,,,,,,,,,,,,,,,,,,,,,,,,65_66Exp,001,2021_May_24_1033,ComputerHuman,2020.1.3,60.01253287231066,
Human.xlsx,h,Sychronize.jpg,Number6.jpg,6,Human,,,,,1,0,10,8,0,9,9,1,,,,,,,,,,,,,,,,,,,,,,,,,,,,,2086.9591563731556,None,2086.9591563731556,None,2087.409680953275,None,2087.409680953275,None,v,5.531003398823486,2087.409680953275,None,t,5.798491621634639,2087.409680953275,None,5.531003398823486,5.798491621634639,5.6273971936244624,True,False,False,2093.2916331836827,None,2093.2916331836827,None,2093.2916331836827,None,2093.2916331836827,None,2093.2916331836827,None,2093.2916331836827,None,2093.2916331836827,None,2093.2916331836827,None,2094.2765176413222,None,2094.2765176413222,None,2095.2578441609685,None,2095.2578441609685,None,h,,,,,,,,,,,,,,,,,,,,,,,,,,,,,,,,,,,,,,,,,,,,,,,65_66Exp,001,2021_May_24_1033,ComputerHuman,2020.1.3,60.01253287231066,
Human.xlsx,h,,,,,,,,,1,0,10,8,,,,,,,,,,,,,,,,,,,,,,,,,,,,,,,,,,,,,,,,,,,,,,,,,,,,,,,,,,,,,,,,,,,,,,,,,,,,,,,h,2096.2578759196795,None,2096.2578759196795,None,q,1,2.5666238405265176,2096.2578759196795,None,o,0,2.053511823703957,2096.2578759196795,None,h,h,2098.8903416627772,None,2098.8903416627772,None,2100.9068010156375,None,None,None,None,None,None,None,None,,,,,,,,,,,,,,,,,,65_66Exp,001,2021_May_24_1033,ComputerHuman,2020.1.3,60.01253287231066,
Computer.xlsx,c,Sychronize.jpg,Number9.jpg,9,Computer,,,,,1,1,11,7,0,0,0,6,,,,,,,,,,,,,,,,,,,,,,,,,2105.909141536384,None,2105.909141536384,None,2108.9718518375944,None,2108.9718518375944,None,2109.422206396333,None,2109.422206396333,None,v,8.085877799538139,2109.422206396333,None,t,8.085462369937432,2109.422206396333,None,8.085877799538139,8.085462369937432,9.545692788623844,False,False,False,2117.6202075223237,None,2117.6202075223237,None,2117.6202075223237,None,2117.6202075223237,None,2117.6202075223237,None,2117.6202075223237,None,2117.6202075223237,None,2117.6202075223237,None,2118.619907899739,None,2118.619907899739,None,2119.6032002515035,None,2119.6032002515035,None,c,,,,,,,,,,,,,,,,,,,,,,,,,,,,,,,,,,,,,,,,,,,,,,,65_66Exp,001,2021_May_24_1033,ComputerHuman,2020.1.3,60.01253287231066,
Computer.xlsx,c,Sychronize.jpg,Number6.jpg,6,Computer,,,,,1,1,11,7,0,1,1,1,,,,,,,,,,,,,,,,,,,,,,,,,,,,,2120.6534037157694,None,2120.6534037157694,None,2121.10316608683,None,2121.10316608683,None,v,5.892770722959995,2121.10316608683,None,t,5.45553187018686,2121.10316608683,None,5.892770722959995,5.45553187018686,5.846295273670183,False,True,False,2127.069859539884,None,2127.069859539884,None,2127.069859539884,None,2127.069859539884,None,2127.069859539884,None,2127.069859539884,None,2127.069859539884,None,2127.069859539884,None,2128.0682100116933,None,2128.0682100116933,None,2129.0513682711235,None,2129.0513682711235,None,c,,,,,,,,,,,,,,,,,,,,,,,,,,,,,,,,,,,,,,,,,,,,,,,65_66Exp,001,2021_May_24_1033,ComputerHuman,2020.1.3,60.01253287231066,
Computer.xlsx,c,Sychronize.jpg,Number8.jpg,8,Computer,,,,,1,1,11,7,0,2,2,5,,,,,,,,,,,,,,,,,,,,,,,,,,,,,2130.1178953919393,None,2130.1178953919393,None,2130.551652976738,None,2130.551652976738,None,v,7.416038469743398,2130.551652976738,None,t,7.283481781246792,2130.551652976738,None,7.416038469743398,7.283481781246792,8.451223472910229,False,False,False,2138.066316358463,None,2138.066316358463,None,2138.066316358463,None,2138.066316358463,None,2138.066316358463,None,2138.066316358463,None,2138.066316358463,None,2138.066316358463,None,2139.06616077286,None,2139.06616077286,None,2140.0493017093568,None,2140.0493017093568,None,c,,,,,,,,,,,,,,,,,,,,,,,,,,,,,,,,,,,,,,,,,,,,,,,65_66Exp,001,2021_May_24_1033,ComputerHuman,2020.1.3,60.01253287231066,
Computer.xlsx,c,Sychronize.jpg,Number6.jpg,6,Computer,,,,,1,1,11,7,0,3,3,0,,,,,,,,,,,,,,,,,,,,,,,,,,,,,2141.0989399327295,None,2141.0989399327295,None,2141.549245409824,None,2141.549245409824,None,v,7.8383282727913866,2141.549245409824,None,t,5.549372123871763,2141.549245409824,None,7.8383282727913866,5.549372123871763,6.1062100278175535,False,False,False,2149.4483553639343,None,2149.4483553639343,None,2149.4483553639343,None,2149.4483553639343,None,2149.4483553639343,None,2149.4483553639343,None,2149.4483553639343,None,2149.4483553639343,None,2150.4806536520114,None,2150.4806536520114,None,2151.4637618674124,None,2151.4637618674124,None,c,,,,,,,,,,,,,,,,,,,,,,,,,,,,,,,,,,,,,,,,,,,,,,,65_66Exp,001,2021_May_24_1033,ComputerHuman,2020.1.3,60.01253287231066,
Computer.xlsx,c,Sychronize.jpg,Number8.jpg,8,Computer,,,,,1,1,11,7,0,4,4,4,,,,,,,,,,,,,,,,,,,,,,,,,,,,,2152.513981050636,None,2152.513981050636,None,2152.9638207333055,None,2152.9638207333055,None,v,7.335299486247095,2152.9638207333055,None,t,7.4105220779179035,2152.9638207333055,None,7.335299486247095,7.4105220779179035,8.574808165258922,False,False,False,2160.4620789765354,None,2160.4620789765354,None,2160.4620789765354,None,2160.4620789765354,None,2160.4620789765354,None,2160.4620789765354,None,2160.4620789765354,None,2160.4620789765354,None,2161.445056307553,None,2161.445056307553,None,2162.4284195550254,None,2162.4284195550254,None,c,,,,,,,,,,,,,,,,,,,,,,,,,,,,,,,,,,,,,,,,,,,,,,,65_66Exp,001,2021_May_24_1033,ComputerHuman,2020.1.3,60.01253287231066,
Computer.xlsx,c,Sychronize.jpg,Number7.jpg,7,Computer,,,,,1,1,11,7,0,5,5,3,,,,,,,,,,,,,,,,,,,,,,,,,,,,,2163.49611661542,None,2163.49611661542,None,2163.928606738942,None,2163.928606738942,None,v,5.8065371617012715,2163.928606738942,None,t,6.665498331063645,2163.928606738942,None,5.8065371617012715,6.665498331063645,7.2829476734800735,False,False,False,2170.676827850144,None,2170.676827850144,None,2170.676827850144,None,2170.676827850144,None,2170.676827850144,None,2170.676827850144,None,2170.676827850144,None,2170.676827850144,None,2171.6765664021714,None,2171.6765664021714,None,2172.6597801591465,None,2172.6597801591465,None,c,,,,,,,,,,,,,,,,,,,,,,,,,,,,,,,,,,,,,,,,,,,,,,,65_66Exp,001,2021_May_24_1033,ComputerHuman,2020.1.3,60.01253287231066,
Computer.xlsx,c,Sychronize.jpg,Number7.jpg,7,Computer,,,,,1,1,11,7,0,6,6,2,,,,,,,,,,,,,,,,,,,,,,,,,,,,,2173.6931970595924,None,2173.6931970595924,None,2174.160119720716,None,2174.160119720716,None,v,6.45463524799834,2174.160119720716,None,t,6.673505054928228,2174.160119720716,None,6.45463524799834,6.673505054928228,6.575115343141852,False,True,True,2180.8918532490925,None,2180.8918532490925,None,2180.8918532490925,None,2180.8918532490925,None,2180.8918532490925,None,2180.8918532490925,None,2180.8918532490925,None,2180.8918532490925,None,2181.9078275598245,None,2181.9078275598245,None,2182.891092323214,None,2182.891092323214,None,c,,,,,,,,,,,,,,,,,,,,,,,,,,,,,,,,,,,,,,,,,,,,,,,65_66Exp,001,2021_May_24_1033,ComputerHuman,2020.1.3,60.01253287231066,
Computer.xlsx,c,Sychronize.jpg,Number9.jpg,9,Computer,,,,,1,1,11,7,0,7,7,7,,,,,,,,,,,,,,,,,,,,,,,,,,,,,2183.958340912117,None,2183.958340912117,None,2184.408101999997,None,2184.408101999997,None,v,9.130381698000292,2184.408101999997,None,t,10.053506370187733,2184.408101999997,None,9.130381698000292,10.053506370187733,8.899264151284891,False,True,False,2194.5406410447654,None,2194.5406410447654,None,2194.5406410447654,None,2194.5406410447654,None,2194.5406410447654,None,2194.5406410447654,None,2194.5406410447654,None,2194.5406410447654,None,2195.538724294291,None,2195.538724294291,None,2196.5219001974497,None,2196.5219001974497,None,c,,,,,,,,,,,,,,,,,,,,,,,,,,,,,,,,,,,,,,,,,,,,,,,65_66Exp,001,2021_May_24_1033,ComputerHuman,2020.1.3,60.01253287231066,
Computer.xlsx,c,Sychronize.jpg,Number10.jpg,10,Computer,,,,,1,1,11,7,0,8,8,9,,,,,,,,,,,,,,,,,,,,,,,,,,,,,2197.588417052824,None,2197.588417052824,None,2198.021553257594,None,2198.021553257594,None,v,10.152629156100375,2198.021553257594,None,t,9.651428580593802,2198.021553257594,None,10.152629156100375,9.651428580593802,9.963272810996052,False,True,False,2208.253474611477,None,2208.253474611477,None,2208.253474611477,None,2208.253474611477,None,2208.253474611477,None,2208.253474611477,None,2208.253474611477,None,2208.253474611477,None,2209.2694742650187,None,2209.2694742650187,None,2210.2359547101537,None,2210.2359547101537,None,c,,,,,,,,,,,,,,,,,,,,,,,,,,,,,,,,,,,,,,,,,,,,,,,65_66Exp,001,2021_May_24_1033,ComputerHuman,2020.1.3,60.01253287231066,
Computer.xlsx,c,Sychronize.jpg,Number10.jpg,10,Computer,,,,,1,1,11,7,0,9,9,8,,,,,,,,,,,,,,,,,,,,,,,,,,,,,2211.2863050985566,None,2211.2863050985566,None,2211.7362955549033,None,2211.7362955549033,None,v,10.369551416230024,2211.7362955549033,None,t,11.356423199256824,2211.7362955549033,None,10.369551416230024,11.356423199256824,9.988486512196936,False,False,False,2223.1834565988347,None,2223.1834565988347,None,2223.1834565988347,None,2223.1834565988347,None,2223.1834565988347,None,2223.1834565988347,None,2223.1834565988347,None,2223.1834565988347,None,2224.1832147193604,None,2224.1832147193604,None,2225.16642238123,None,2225.16642238123,None,c,,,,,,,,,,,,,,,,,,,,,,,,,,,,,,,,,,,,,,,,,,,,,,,65_66Exp,001,2021_May_24_1033,ComputerHuman,2020.1.3,60.01253287231066,
Computer.xlsx,c,,,,,,,,,1,1,11,7,,,,,,,,,,,,,,,,,,,,,,,,,,,,,,,,,,,,,,,,,,,,,,,,,,,,,,,,,,,,,,,,,,,,,,,,,,,,,,,c,2226.1672253312613,None,2226.1672253312613,None,q,0,2.130521885440885,2226.1672253312613,None,l,1,2.5218963479087506,2226.1672253312613,None,h,c,2228.76554725231,None,2228.76554725231,None,2230.765343547448,None,None,None,None,None,None,None,None,,,,,,,,,,,,,,,,,,65_66Exp,001,2021_May_24_1033,ComputerHuman,2020.1.3,60.01253287231066,
