Condition,CorrectTuringReply,Sychronize,NumberImage,Number,Partner,trials.thisRepN,trials.thisTrialN,trials.thisN,trials.thisIndex,Block.thisRepN,Block.thisTrialN,Block.thisN,Block.thisIndex,trials_loop.thisRepN,trials_loop.thisTrialN,trials_loop.thisN,trials_loop.thisIndex,key_resp_Istr.keys,key_resp_Istr.rt,key_resp_Istr.started,key_resp_Istr.stopped,key_respPrLeft.keys,key_respPrLeft.rt,key_respPrRight.keys,RTPrLeft,RTPrRight,CompPr,SychronizedRTsPr,SychronizedRTsLeftCPr,SychronizedRTsRightCPr,CreditLeftPr.started,CreditLeftPr.stopped,CreditRightPr.started,CreditRightPr.stopped,key_respPrRight.rt,text_StartExp.started,text_StartExp.stopped,key_startExp.keys,key_startExp.rt,key_startExp.started,key_startExp.stopped,SychroLeft.started,SychroLeft.stopped,SychroRight.started,SychroRight.stopped,NumberLeft.started,NumberLeft.stopped,NumberRight.started,NumberRight.stopped,CrossLeft.started,CrossLeft.stopped,CrossRight.started,CrossRight.stopped,key_respLeft.keys,key_respLeft.rt,key_respLeft.started,key_respLeft.stopped,key_respRight.keys,key_respRight.rt,key_respRight.started,key_respRight.stopped,RTLeft,RTRight,Comp,SychronizedRTs,SychronizedRTsLeftC,SychronizedRTsRightC,FeedbackLeftLeft.started,FeedbackLeftLeft.stopped,FeedbackLeftRight.started,FeedbackLeftRight.stopped,FeedbackRightLeft.started,FeedbackRightLeft.stopped,FeedbackRightRight.started,FeedbackRightRight.stopped,textLeftLeft.started,textLeftLeft.stopped,textLeftRight.started,textLeftRight.stopped,textRightLeft.started,textRightLeft.stopped,textRightRight.started,textRightRight.stopped,CreditLeft.started,CreditLeft.stopped,CreditRight.started,CreditRight.stopped,BlankLeft.started,BlankLeft.stopped,BlankRight.started,BlankRight.stopped,CorrectTuringReply,TuringtextLeft.started,TuringtextLeft.stopped,TuringtextRight.started,TuringtextRight.stopped,keyTuringLeft.keys,keyTuringLeft.corr,keyTuringLeft.rt,keyTuringLeft.started,keyTuringLeft.stopped,keyTuringRight.keys,keyTuringRight.corr,keyTuringRight.rt,keyTuringRight.started,keyTuringRight.stopped,RespTuringLeft,RespTuringRight,ScoreLeft.started,ScoreLeft.stopped,ScoreRight.started,ScoreRight.stopped,BlockText.started,BlockText.stopped,text_Pause.started,text_Pause.stopped,text_LongPause.started,text_LongPause.stopped,key_respPause.keys,key_respPause.started,key_respPause.stopped,key_respPause.rt,QuestImageLeft.started,QuestImageLeft.stopped,QuestImageRight.started,QuestImageRight.stopped,respQuestLeft.keys,respQuestLeft.rt,respQuestLeft.started,respQuestLeft.stopped,respQuestRight.keys,respQuestRight.rt,respQuestRight.started,respQuestRight.stopped,RespInclusionLeft,RespInclusionRight,EndText.started,EndText.stopped,participant,session,date,expName,psychopyVersion,frameRate,
,,,,,,,,,,,,,,,,,,"['v', 'v', 't']","[71.97870369924749, 116.46148165613522, 409.5831633921498]",20.381932501511983,None,,,,,,,,,,,,,,,,,,,,,,,,,,,,,,,,,,,,,,,,,,,,,,,,,,,,,,,,,,,,,,,,,,,,,,,,,,,,,,,,,,,,,,,,,,,,,,,,,,,,,,,,,,,,,,,,,,,,,,67_68Exp,001,2021_May_24_1441,ComputerHuman,2020.1.3,59.98054688096026,
,,,,,,,,,,,,,,,,,,,,,,v,8.472061156369818,t,8.472061156369818,9.279498789801437,8,False,False,False,505.93952916909257,None,505.93952916909257,None,9.279498789801437,506.93930236698543,None,"['space', 'space']","[36.73616563290307, 53.19583800491091]",507.9224420203027,None,,,,,,,,,,,,,,,,,,,,,,,,,,,,,,,,,,,,,,,,,,,,,,,,,,,,,,,,,,,,,,,,,,,,,,,,,,,,,,,,,,,,,,,,,,,,,,,,,,67_68Exp,001,2021_May_24_1441,ComputerHuman,2020.1.3,59.98054688096026,
Computer.xlsx,c,Sychronize.jpg,Number8.jpg,8,Computer,,,,,0,0,0,1,0,0,0,4,,,,,,,,,,,,,,,,,,,,,,,,,561.1986266763543,None,561.1986266763543,None,564.2624151697564,None,564.2624151697564,None,564.6955231445609,None,564.6955231445609,None,v,8.118485654847973,564.6955231445609,None,t,9.22950255914293,564.6955231445609,None,8.118485654847973,9.22950255914293,7.447071156492582,False,False,False,574.026491897519,None,574.026491897519,None,574.026491897519,None,574.026491897519,None,574.026491897519,None,574.026491897519,None,574.026491897519,None,574.026491897519,None,575.0262769648289,None,575.0262769648289,None,576.0094175805316,None,576.0094175805316,None,c,,,,,,,,,,,,,,,,,,,,,,,,,,,,,,,,,,,,,,,,,,,,,,,67_68Exp,001,2021_May_24_1441,ComputerHuman,2020.1.3,59.98054688096026,
Computer.xlsx,c,Sychronize.jpg,Number7.jpg,7,Computer,,,,,0,0,0,1,0,1,1,2,,,,,,,,,,,,,,,,,,,,,,,,,,,,,577.0592145974588,None,577.0592145974588,None,577.5093381837542,None,577.5093381837542,None,v,6.516400807762693,577.5093381837542,None,t,8.107459928687604,577.5093381837542,None,6.516400807762693,8.107459928687604,6.66746272690509,False,True,False,585.7076633127544,None,585.7076633127544,None,585.7076633127544,None,585.7076633127544,None,585.7076633127544,None,585.7076633127544,None,585.7076633127544,None,585.7076633127544,None,586.6907211633315,None,586.6907211633315,None,587.673962187886,None,587.673962187886,None,c,,,,,,,,,,,,,,,,,,,,,,,,,,,,,,,,,,,,,,,,,,,,,,,67_68Exp,001,2021_May_24_1441,ComputerHuman,2020.1.3,59.98054688096026,
Computer.xlsx,c,Sychronize.jpg,Number8.jpg,8,Computer,,,,,0,0,0,1,0,2,2,5,,,,,,,,,,,,,,,,,,,,,,,,,,,,,588.7410118838525,None,588.7410118838525,None,589.190800239312,None,589.190800239312,None,v,7.454725712206709,589.190800239312,None,t,9.637619315712072,589.190800239312,None,7.454725712206709,9.637619315712072,7.568753245801717,False,True,False,598.9063583184561,None,598.9063583184561,None,598.9063583184561,None,598.9063583184561,None,598.9063583184561,None,598.9063583184561,None,598.9063583184561,None,598.9063583184561,None,599.9048303715917,None,599.9048303715917,None,600.8880819823844,None,600.8880819823844,None,c,,,,,,,,,,,,,,,,,,,,,,,,,,,,,,,,,,,,,,,,,,,,,,,67_68Exp,001,2021_May_24_1441,ComputerHuman,2020.1.3,59.98054688096026,
Computer.xlsx,c,Sychronize.jpg,Number10.jpg,10,Computer,,,,,0,0,0,1,0,3,3,9,,,,,,,,,,,,,,,,,,,,,,,,,,,,,601.9546350876008,None,601.9546350876008,None,602.3881453394079,None,602.3881453394079,None,v,9.309028616522482,602.3881453394079,None,t,12.640398042507513,602.3881453394079,None,9.309028616522482,12.640398042507513,10.298884233594574,False,False,False,615.1186328997792,None,615.1186328997792,None,615.1186328997792,None,615.1186328997792,None,615.1186328997792,None,615.1186328997792,None,615.1186328997792,None,615.1186328997792,None,616.1018242010996,None,616.1018242010996,None,617.0849856684799,None,617.0849856684799,None,c,,,,,,,,,,,,,,,,,,,,,,,,,,,,,,,,,,,,,,,,,,,,,,,67_68Exp,001,2021_May_24_1441,ComputerHuman,2020.1.3,59.98054688096026,
Computer.xlsx,c,Sychronize.jpg,Number6.jpg,6,Computer,,,,,0,0,0,1,0,4,4,0,,,,,,,,,,,,,,,,,,,,,,,,,,,,,618.1516792819311,None,618.1516792819311,None,618.5852206508607,None,618.5852206508607,None,v,6.22764034382817,618.5852206508607,None,t,6.842503741272594,618.5852206508607,None,6.22764034382817,6.842503741272594,5.7204696821567005,False,False,False,625.5166827866178,None,625.5166827866178,None,625.5166827866178,None,625.5166827866178,None,625.5166827866178,None,625.5166827866178,None,625.5166827866178,None,625.5166827866178,None,626.5164187722839,None,626.5164187722839,None,627.4996819316984,None,627.4996819316984,None,c,,,,,,,,,,,,,,,,,,,,,,,,,,,,,,,,,,,,,,,,,,,,,,,67_68Exp,001,2021_May_24_1441,ComputerHuman,2020.1.3,59.98054688096026,
Computer.xlsx,c,Sychronize.jpg,Number9.jpg,9,Computer,,,,,0,0,0,1,0,5,5,6,,,,,,,,,,,,,,,,,,,,,,,,,,,,,628.550167054027,None,628.550167054027,None,628.9997603660904,None,628.9997603660904,None,v,9.476827208553004,628.9997603660904,None,t,10.056397054460831,628.9997603660904,None,9.476827208553004,10.056397054460831,8.354046243267554,False,False,False,639.1474050085726,None,639.1474050085726,None,639.1474050085726,None,639.1474050085726,None,639.1474050085726,None,639.1474050085726,None,639.1474050085726,None,639.1474050085726,None,640.1471644122794,None,640.1471644122794,None,641.1304490649618,None,641.1304490649618,None,c,,,,,,,,,,,,,,,,,,,,,,,,,,,,,,,,,,,,,,,,,,,,,,,67_68Exp,001,2021_May_24_1441,ComputerHuman,2020.1.3,59.98054688096026,
Computer.xlsx,c,Sychronize.jpg,Number9.jpg,9,Computer,,,,,0,0,0,1,0,6,6,7,,,,,,,,,,,,,,,,,,,,,,,,,,,,,642.1805572530957,None,642.1805572530957,None,642.6306779522365,None,642.6306779522365,None,v,8.225596237716672,642.6306779522365,None,t,9.332471357010945,642.6306779522365,None,8.225596237716672,9.332471357010945,9.148375692764736,False,False,True,652.0463022755594,None,652.0463022755594,None,652.0463022755594,None,652.0463022755594,None,652.0463022755594,None,652.0463022755594,None,652.0463022755594,None,652.0463022755594,None,653.044587625971,None,653.044587625971,None,654.0279152651929,None,654.0279152651929,None,c,,,,,,,,,,,,,,,,,,,,,,,,,,,,,,,,,,,,,,,,,,,,,,,67_68Exp,001,2021_May_24_1441,ComputerHuman,2020.1.3,59.98054688096026,
Computer.xlsx,c,Sychronize.jpg,Number10.jpg,10,Computer,,,,,0,0,0,1,0,7,7,8,,,,,,,,,,,,,,,,,,,,,,,,,,,,,655.0946557147236,None,655.0946557147236,None,655.5444713377638,None,655.5444713377638,None,v,9.33954745441224,655.5444713377638,None,t,11.566372016404785,655.5444713377638,None,9.33954745441224,11.566372016404785,9.581053572599016,False,True,False,667.2087143977624,None,667.2087143977624,None,667.2087143977624,None,667.2087143977624,None,667.2087143977624,None,667.2087143977624,None,667.2087143977624,None,667.2087143977624,None,668.1919676125308,None,668.1919676125308,None,669.1750976419953,None,669.1750976419953,None,c,,,,,,,,,,,,,,,,,,,,,,,,,,,,,,,,,,,,,,,,,,,,,,,67_68Exp,001,2021_May_24_1441,ComputerHuman,2020.1.3,59.98054688096026,
Computer.xlsx,c,Sychronize.jpg,Number6.jpg,6,Computer,,,,,0,0,0,1,0,8,8,1,,,,,,,,,,,,,,,,,,,,,,,,,,,,,670.2250252225112,None,670.2250252225112,None,670.6752719941105,None,670.6752719941105,None,v,6.252400910416327,670.6752719941105,None,t,7.075510024043979,670.6752719941105,None,6.252400910416327,7.075510024043979,6.177663151004086,False,True,False,677.8248019491512,None,677.8248019491512,None,677.8248019491512,None,677.8248019491512,None,677.8248019491512,None,677.8248019491512,None,677.8248019491512,None,677.8248019491512,None,678.8399033765272,None,678.8399033765272,None,679.823024102936,None,679.823024102936,None,c,,,,,,,,,,,,,,,,,,,,,,,,,,,,,,,,,,,,,,,,,,,,,,,67_68Exp,001,2021_May_24_1441,ComputerHuman,2020.1.3,59.98054688096026,
Computer.xlsx,c,Sychronize.jpg,Number7.jpg,7,Computer,,,,,0,0,0,1,0,9,9,3,,,,,,,,,,,,,,,,,,,,,,,,,,,,,680.8729532874277,None,680.8729532874277,None,681.3062835732071,None,681.3062835732071,None,v,6.517202474613441,681.3062835732071,None,t,6.888588517782409,681.3062835732071,None,6.517202474613441,6.888588517782409,7.005981804562047,False,False,True,688.2726385874739,None,688.2726385874739,None,688.2726385874739,None,688.2726385874739,None,688.2726385874739,None,688.2726385874739,None,688.2726385874739,None,688.2726385874739,None,689.2878484435823,None,689.2878484435823,None,690.2710596341967,None,690.2710596341967,None,c,,,,,,,,,,,,,,,,,,,,,,,,,,,,,,,,,,,,,,,,,,,,,,,67_68Exp,001,2021_May_24_1441,ComputerHuman,2020.1.3,59.98054688096026,
Computer.xlsx,c,,,,,,,,,0,0,0,1,,,,,,,,,,,,,,,,,,,,,,,,,,,,,,,,,,,,,,,,,,,,,,,,,,,,,,,,,,,,,,,,,,,,,,,,,,,,,,,c,691.2718690001293,None,691.2718690001293,None,a,0,9.15556122293492,691.2718690001293,None,o,0,11.126417633462552,691.2718690001293,None,c,h,702.5022239117425,None,702.5022239117425,None,704.4683578982149,None,None,None,None,None,None,None,None,,,,,,,,,,,,,,,,,,67_68Exp,001,2021_May_24_1441,ComputerHuman,2020.1.3,59.98054688096026,
Human.xlsx,h,Sychronize.jpg,Number8.jpg,8,Human,,,,,0,1,1,2,0,0,0,4,,,,,,,,,,,,,,,,,,,,,,,,,709.4862624328125,None,709.4862624328125,None,712.5671217144572,None,712.5671217144572,None,713.0003403635565,None,713.0003403635565,None,v,7.630431581632365,713.0003403635565,None,t,9.377474733379131,713.0003403635565,None,7.630431581632365,9.377474733379131,7.7172884572139075,False,False,False,722.4815951855071,None,722.4815951855071,None,722.4815951855071,None,722.4815951855071,None,722.4815951855071,None,722.4815951855071,None,722.4815951855071,None,722.4815951855071,None,723.4664575082879,None,723.4664575082879,None,724.4644968088905,None,724.4644968088905,None,h,,,,,,,,,,,,,,,,,,,,,,,,,,,,,,,,,,,,,,,,,,,,,,,67_68Exp,001,2021_May_24_1441,ComputerHuman,2020.1.3,59.98054688096026,
Human.xlsx,h,Sychronize.jpg,Number10.jpg,10,Human,,,,,0,1,1,2,0,1,1,8,,,,,,,,,,,,,,,,,,,,,,,,,,,,,725.514842385368,None,725.514842385368,None,725.9646666698736,None,725.9646666698736,None,v,9.477790556113177,725.9646666698736,None,t,11.845337965614817,725.9646666698736,None,9.477790556113177,11.845337965614817,10.308891470166126,False,False,False,737.8953290635509,None,737.8953290635509,None,737.8953290635509,None,737.8953290635509,None,737.8953290635509,None,737.8953290635509,None,737.8953290635509,None,737.8953290635509,None,738.8799918518052,None,738.8799918518052,None,739.8783002994624,None,739.8783002994624,None,h,,,,,,,,,,,,,,,,,,,,,,,,,,,,,,,,,,,,,,,,,,,,,,,67_68Exp,001,2021_May_24_1441,ComputerHuman,2020.1.3,59.98054688096026,
Human.xlsx,h,Sychronize.jpg,Number10.jpg,10,Human,,,,,0,1,1,2,0,2,2,9,,,,,,,,,,,,,,,,,,,,,,,,,,,,,740.9286510086586,None,740.9286510086586,None,741.3785301491207,None,741.3785301491207,None,v,10.10758664273635,741.3785301491207,None,t,11.802608384619816,741.3785301491207,None,10.10758664273635,11.802608384619816,9.590476500532342,False,False,False,753.2756534194341,None,753.2756534194341,None,753.2756534194341,None,753.2756534194341,None,753.2756534194341,None,753.2756534194341,None,753.2756534194341,None,753.2756534194341,None,754.2435723096114,None,754.2435723096114,None,755.2420363428719,None,755.2420363428719,None,h,,,,,,,,,,,,,,,,,,,,,,,,,,,,,,,,,,,,,,,,,,,,,,,67_68Exp,001,2021_May_24_1441,ComputerHuman,2020.1.3,59.98054688096026,
Human.xlsx,h,Sychronize.jpg,Number9.jpg,9,Human,,,,,0,1,1,2,0,3,3,6,,,,,,,,,,,,,,,,,,,,,,,,,,,,,756.308372590629,None,756.308372590629,None,756.7586216077925,None,756.7586216077925,None,v,10.179156341077032,756.7586216077925,None,t,10.598402440609789,756.7586216077925,None,10.179156341077032,10.598402440609789,9.217588104430167,False,False,False,767.4396316631137,None,767.4396316631137,None,767.4396316631137,None,767.4396316631137,None,767.4396316631137,None,767.4396316631137,None,767.4396316631137,None,767.4396316631137,None,768.4087766320044,None,768.4087766320044,None,769.4060264559685,None,769.4060264559685,None,h,,,,,,,,,,,,,,,,,,,,,,,,,,,,,,,,,,,,,,,,,,,,,,,67_68Exp,001,2021_May_24_1441,ComputerHuman,2020.1.3,59.98054688096026,
Human.xlsx,h,Sychronize.jpg,Number9.jpg,9,Human,,,,,0,1,1,2,0,4,4,7,,,,,,,,,,,,,,,,,,,,,,,,,,,,,770.4560759386059,None,770.4560759386059,None,770.9061966377467,None,770.9061966377467,None,v,9.75541077005255,770.9061966377467,None,t,11.482395569179062,770.9061966377467,None,9.75541077005255,11.482395569179062,9.271329824507681,False,False,False,782.4867901406851,None,782.4867901406851,None,782.4867901406851,None,782.4867901406851,None,782.4867901406851,None,782.4867901406851,None,782.4867901406851,None,782.4867901406851,None,783.4554744478719,None,783.4554744478719,None,784.4531024892094,None,784.4531024892094,None,h,,,,,,,,,,,,,,,,,,,,,,,,,,,,,,,,,,,,,,,,,,,,,,,67_68Exp,001,2021_May_24_1441,ComputerHuman,2020.1.3,59.98054688096026,
Human.xlsx,h,Sychronize.jpg,Number7.jpg,7,Human,,,,,0,1,1,2,0,5,5,3,,,,,,,,,,,,,,,,,,,,,,,,,,,,,785.5198827173263,None,785.5198827173263,None,785.95326336793,None,785.95326336793,None,v,8.831921995475568,785.95326336793,None,t,8.2274539618993,785.95326336793,None,8.831921995475568,8.2274539618993,7.134376897248712,False,False,False,794.8520047285183,None,794.8520047285183,None,794.8520047285183,None,794.8520047285183,None,794.8520047285183,None,794.8520047285183,None,794.8520047285183,None,794.8520047285183,None,795.8531567035734,None,795.8531567035734,None,796.8508049549982,None,796.8508049549982,None,h,,,,,,,,,,,,,,,,,,,,,,,,,,,,,,,,,,,,,,,,,,,,,,,67_68Exp,001,2021_May_24_1441,ComputerHuman,2020.1.3,59.98054688096026,
Human.xlsx,h,Sychronize.jpg,Number8.jpg,8,Human,,,,,0,1,1,2,0,6,6,5,,,,,,,,,,,,,,,,,,,,,,,,,,,,,797.9004749370852,None,797.9004749370852,None,798.3344490585459,None,798.3344490585459,None,v,7.554564191894315,798.3344490585459,None,t,9.509464256210777,798.3344490585459,None,7.554564191894315,9.509464256210777,7.466506918871843,False,False,False,807.9320199983649,None,807.9320199983649,None,807.9320199983649,None,807.9320199983649,None,807.9320199983649,None,807.9320199983649,None,807.9320199983649,None,807.9320199983649,None,808.917897637506,None,808.917897637506,None,809.9149690994145,None,809.9149690994145,None,h,,,,,,,,,,,,,,,,,,,,,,,,,,,,,,,,,,,,,,,,,,,,,,,67_68Exp,001,2021_May_24_1441,ComputerHuman,2020.1.3,59.98054688096026,
Human.xlsx,h,Sychronize.jpg,Number7.jpg,7,Human,,,,,0,1,1,2,0,7,7,2,,,,,,,,,,,,,,,,,,,,,,,,,,,,,810.9488341505585,None,810.9488341505585,None,811.415165586388,None,811.415165586388,None,v,8.261489676013298,811.415165586388,None,t,8.852428177993716,811.415165586388,None,8.261489676013298,8.852428177993716,7.243803322622192,False,False,False,820.3307304022292,None,820.3307304022292,None,820.3307304022292,None,820.3307304022292,None,820.3307304022292,None,820.3307304022292,None,820.3307304022292,None,820.3307304022292,None,821.3312362960369,None,821.3312362960369,None,822.3454311565783,None,822.3454311565783,None,h,,,,,,,,,,,,,,,,,,,,,,,,,,,,,,,,,,,,,,,,,,,,,,,67_68Exp,001,2021_May_24_1441,ComputerHuman,2020.1.3,59.98054688096026,
Human.xlsx,h,Sychronize.jpg,Number6.jpg,6,Human,,,,,0,1,1,2,0,8,8,0,,,,,,,,,,,,,,,,,,,,,,,,,,,,,823.3967028683892,None,823.3967028683892,None,823.8458727309753,None,823.8458727309753,None,v,7.570506423118786,823.8458727309753,None,t,7.265503463782807,823.8458727309753,None,7.570506423118786,7.265503463782807,5.606308961059052,False,False,False,831.5108189737457,None,831.5108189737457,None,831.5108189737457,None,831.5108189737457,None,831.5108189737457,None,831.5108189737457,None,831.5108189737457,None,831.5108189737457,None,832.4964018022274,None,832.4964018022274,None,833.4771239439815,None,833.4771239439815,None,h,,,,,,,,,,,,,,,,,,,,,,,,,,,,,,,,,,,,,,,,,,,,,,,67_68Exp,001,2021_May_24_1441,ComputerHuman,2020.1.3,59.98054688096026,
Human.xlsx,h,Sychronize.jpg,Number6.jpg,6,Human,,,,,0,1,1,2,0,9,9,1,,,,,,,,,,,,,,,,,,,,,,,,,,,,,834.527497429628,None,834.527497429628,None,834.9773656630587,None,834.9773656630587,None,v,5.862793387132115,834.9773656630587,None,t,7.330491089116549,834.9773656630587,None,5.862793387132115,7.330491089116549,5.721119999148719,False,False,False,842.3920882314724,None,842.3920882314724,None,842.3920882314724,None,842.3920882314724,None,842.3920882314724,None,842.3920882314724,None,842.3920882314724,None,842.3920882314724,None,843.378149365386,None,843.378149365386,None,844.3750931508639,None,844.3750931508639,None,h,,,,,,,,,,,,,,,,,,,,,,,,,,,,,,,,,,,,,,,,,,,,,,,67_68Exp,001,2021_May_24_1441,ComputerHuman,2020.1.3,59.98054688096026,
Human.xlsx,h,,,,,,,,,0,1,1,2,,,,,,,,,,,,,,,,,,,,,,,,,,,,,,,,,,,,,,,,,,,,,,,,,,,,,,,,,,,,,,,,,,,,,,,,,,,,,,,h,845.3755419431527,None,845.3755419431527,None,q,0,5.3644283191461,845.3755419431527,None,o,1,6.0995042112372175,845.3755419431527,None,h,h,851.5738866406482,None,851.5738866406482,None,853.556628187298,None,None,None,None,None,None,None,None,,,,,,,,,,,,,,,,,,67_68Exp,001,2021_May_24_1441,ComputerHuman,2020.1.3,59.98054688096026,
Human.xlsx,h,Sychronize.jpg,Number9.jpg,9,Human,,,,,0,2,2,8,0,0,0,7,,,,,,,,,,,,,,,,,,,,,,,,,858.5753892447046,None,858.5753892447046,None,861.639332682118,None,861.639332682118,None,862.0889599984603,None,862.0889599984603,None,v,9.782556447898969,862.0889599984603,None,t,10.46543930477128,862.0889599984603,None,9.782556447898969,10.46543930477128,8.71731228012292,False,False,False,872.669686631345,None,872.669686631345,None,872.669686631345,None,872.669686631345,None,872.669686631345,None,872.669686631345,None,872.669686631345,None,872.669686631345,None,873.6550468280566,None,873.6550468280566,None,874.652656904871,None,874.652656904871,None,h,,,,,,,,,,,,,,,,,,,,,,,,,,,,,,,,,,,,,,,,,,,,,,,67_68Exp,001,2021_May_24_1441,ComputerHuman,2020.1.3,59.98054688096026,
Human.xlsx,h,Sychronize.jpg,Number6.jpg,6,Human,,,,,0,2,2,8,0,1,1,1,,,,,,,,,,,,,,,,,,,,,,,,,,,,,875.7027346174746,None,875.7027346174746,None,876.1526192114525,None,876.1526192114525,None,v,6.258645186229842,876.1526192114525,None,t,6.961498818673135,876.1526192114525,None,6.258645186229842,6.961498818673135,5.995087862422505,False,False,False,883.2009630267657,None,883.2009630267657,None,883.2009630267657,None,883.2009630267657,None,883.2009630267657,None,883.2009630267657,None,883.2009630267657,None,883.2009630267657,None,884.1689852129512,None,884.1689852129512,None,885.1673106627477,None,885.1673106627477,None,h,,,,,,,,,,,,,,,,,,,,,,,,,,,,,,,,,,,,,,,,,,,,,,,67_68Exp,001,2021_May_24_1441,ComputerHuman,2020.1.3,59.98054688096026,
Human.xlsx,h,Sychronize.jpg,Number10.jpg,10,Human,,,,,0,2,2,8,0,2,2,8,,,,,,,,,,,,,,,,,,,,,,,,,,,,,886.2175000120278,None,886.2175000120278,None,886.6675533442085,None,886.6675533442085,None,v,10.347488094492292,886.6675533442085,None,t,11.514407708065846,886.6675533442085,None,10.347488094492292,11.514407708065846,9.886033719530243,False,False,False,898.2648278693905,None,898.2648278693905,None,898.2648278693905,None,898.2648278693905,None,898.2648278693905,None,898.2648278693905,None,898.2648278693905,None,898.2648278693905,None,899.2337790780675,None,899.2337790780675,None,900.231116799876,None,900.231116799876,None,h,,,,,,,,,,,,,,,,,,,,,,,,,,,,,,,,,,,,,,,,,,,,,,,67_68Exp,001,2021_May_24_1441,ComputerHuman,2020.1.3,59.98054688096026,
Human.xlsx,h,Sychronize.jpg,Number8.jpg,8,Human,,,,,0,2,2,8,0,3,3,4,,,,,,,,,,,,,,,,,,,,,,,,,,,,,901.2983326676822,None,901.2983326676822,None,901.7312577893044,None,901.7312577893044,None,v,8.771474261811818,901.7312577893044,None,t,9.406495779137913,901.7312577893044,None,8.771474261811818,9.406495779137913,7.529847690694431,False,False,False,911.2137046856933,None,911.2137046856933,None,911.2137046856933,None,911.2137046856933,None,911.2137046856933,None,911.2137046856933,None,911.2137046856933,None,911.2137046856933,None,912.2144941623319,None,912.2144941623319,None,913.2119762419188,None,913.2119762419188,None,h,,,,,,,,,,,,,,,,,,,,,,,,,,,,,,,,,,,,,,,,,,,,,,,67_68Exp,001,2021_May_24_1441,ComputerHuman,2020.1.3,59.98054688096026,
Human.xlsx,h,Sychronize.jpg,Number9.jpg,9,Human,,,,,0,2,2,8,0,4,4,6,,,,,,,,,,,,,,,,,,,,,,,,,,,,,914.262607325998,None,914.262607325998,None,914.6955087087827,None,914.6955087087827,None,v,9.482864571557002,914.6955087087827,None,t,9.542472463752347,914.6955087087827,None,9.482864571557002,9.542472463752347,8.954996430723615,True,False,False,924.3265010401792,None,924.3265010401792,None,924.3265010401792,None,924.3265010401792,None,924.3265010401792,None,924.3265010401792,None,924.3265010401792,None,924.3265010401792,None,925.3123299184681,None,925.3123299184681,None,926.3094966565131,None,926.3094966565131,None,h,,,,,,,,,,,,,,,,,,,,,,,,,,,,,,,,,,,,,,,,,,,,,,,67_68Exp,001,2021_May_24_1441,ComputerHuman,2020.1.3,59.98054688096026,
Human.xlsx,h,Sychronize.jpg,Number10.jpg,10,Human,,,,,0,2,2,8,0,5,5,9,,,,,,,,,,,,,,,,,,,,,,,,,,,,,927.3598791244203,None,927.3598791244203,None,927.8094615294558,None,927.8094615294558,None,v,10.972586458279693,927.8094615294558,None,t,9.75152690428149,927.8094615294558,None,10.972586458279693,9.75152690428149,10.376417492807445,False,False,False,938.8904077465577,None,938.8904077465577,None,938.8904077465577,None,938.8904077465577,None,938.8904077465577,None,938.8904077465577,None,938.8904077465577,None,938.8904077465577,None,939.859119321327,None,939.859119321327,None,940.8566870531922,None,940.8566870531922,None,h,,,,,,,,,,,,,,,,,,,,,,,,,,,,,,,,,,,,,,,,,,,,,,,67_68Exp,001,2021_May_24_1441,ComputerHuman,2020.1.3,59.98054688096026,
Human.xlsx,h,Sychronize.jpg,Number8.jpg,8,Human,,,,,0,2,2,8,0,6,6,5,,,,,,,,,,,,,,,,,,,,,,,,,,,,,941.9064061169211,None,941.9064061169211,None,942.3568851441396,None,942.3568851441396,None,v,8.628871234468534,942.3568851441396,None,t,7.856500992056681,942.3568851441396,None,8.628871234468534,7.856500992056681,7.8885584377497935,False,False,False,951.0714654399471,None,951.0714654399471,None,951.0714654399471,None,951.0714654399471,None,951.0714654399471,None,951.0714654399471,None,951.0714654399471,None,951.0714654399471,None,952.0405363051777,None,952.0405363051777,None,953.0377171582059,None,953.0377171582059,None,h,,,,,,,,,,,,,,,,,,,,,,,,,,,,,,,,,,,,,,,,,,,,,,,67_68Exp,001,2021_May_24_1441,ComputerHuman,2020.1.3,59.98054688096026,
Human.xlsx,h,Sychronize.jpg,Number7.jpg,7,Human,,,,,0,2,2,8,0,7,7,3,,,,,,,,,,,,,,,,,,,,,,,,,,,,,954.0881333095949,None,954.0881333095949,None,954.5380413216099,None,954.5380413216099,None,v,7.1195064247222035,954.5380413216099,None,t,7.254633964817913,954.5380413216099,None,7.1195064247222035,7.254633964817913,6.993646364603983,True,False,False,961.8706480541387,None,961.8706480541387,None,961.8706480541387,None,961.8706480541387,None,961.8706480541387,None,961.8706480541387,None,961.8706480541387,None,961.8706480541387,None,962.8715764350363,None,962.8715764350363,None,963.8690174528547,None,963.8690174528547,None,h,,,,,,,,,,,,,,,,,,,,,,,,,,,,,,,,,,,,,,,,,,,,,,,67_68Exp,001,2021_May_24_1441,ComputerHuman,2020.1.3,59.98054688096026,
Human.xlsx,h,Sychronize.jpg,Number7.jpg,7,Human,,,,,0,2,2,8,0,8,8,2,,,,,,,,,,,,,,,,,,,,,,,,,,,,,964.9018614133256,None,964.9018614133256,None,965.3525819992265,None,965.3525819992265,None,v,7.916731868263014,965.3525819992265,None,t,6.948481275994709,965.3525819992265,None,7.916731868263014,6.948481275994709,7.45713351009738,False,False,False,973.3672295015949,None,973.3672295015949,None,973.3672295015949,None,973.3672295015949,None,973.3672295015949,None,973.3672295015949,None,973.3672295015949,None,973.3672295015949,None,974.353294164257,None,974.353294164257,None,975.3501253506674,None,975.3501253506674,None,h,,,,,,,,,,,,,,,,,,,,,,,,,,,,,,,,,,,,,,,,,,,,,,,67_68Exp,001,2021_May_24_1441,ComputerHuman,2020.1.3,59.98054688096026,
Human.xlsx,h,Sychronize.jpg,Number6.jpg,6,Human,,,,,0,2,2,8,0,9,9,0,,,,,,,,,,,,,,,,,,,,,,,,,,,,,976.3996561076983,None,976.3996561076983,None,976.850522655348,None,976.850522655348,None,v,6.158552316061105,976.850522655348,None,t,6.665490311188478,976.850522655348,None,6.158552316061105,6.665490311188478,5.733967649457034,False,False,False,983.5985666876786,None,983.5985666876786,None,983.5985666876786,None,983.5985666876786,None,983.5985666876786,None,983.5985666876786,None,983.5985666876786,None,983.5985666876786,None,984.5666164622398,None,984.5666164622398,None,985.5648482398774,None,985.5648482398774,None,h,,,,,,,,,,,,,,,,,,,,,,,,,,,,,,,,,,,,,,,,,,,,,,,67_68Exp,001,2021_May_24_1441,ComputerHuman,2020.1.3,59.98054688096026,
Human.xlsx,h,,,,,,,,,0,2,2,8,,,,,,,,,,,,,,,,,,,,,,,,,,,,,,,,,,,,,,,,,,,,,,,,,,,,,,,,,,,,,,,,,,,,,,,,,,,,,,,h,986.5651812251472,None,986.5651812251472,None,a,0,3.96374310090323,986.5651812251472,None,l,0,4.8505207305788645,986.5651812251472,None,c,c,991.5140522671372,None,991.5140522671372,None,993.5134700241088,None,None,None,None,None,None,None,None,,,,,,,,,,,,,,,,,,67_68Exp,001,2021_May_24_1441,ComputerHuman,2020.1.3,59.98054688096026,
Human.xlsx,h,Sychronize.jpg,Number8.jpg,8,Human,,,,,0,3,3,4,0,0,0,4,,,,,,,,,,,,,,,,,,,,,,,,,998.5153572614381,None,998.5153572614381,None,1001.5791146377178,None,1001.5791146377178,None,1002.0121722476997,None,1002.0121722476997,None,v,7.652306917461829,1002.0121722476997,None,t,8.327494542474597,1002.0121722476997,None,7.652306917461829,8.327494542474597,7.924618638502914,False,False,False,1010.4268011439544,None,1010.4268011439544,None,1010.4268011439544,None,1010.4268011439544,None,1010.4268011439544,None,1010.4268011439544,None,1010.4268011439544,None,1010.4268011439544,None,1011.4279126988313,None,1011.4279126988313,None,1012.426476499355,None,1012.426476499355,None,h,,,,,,,,,,,,,,,,,,,,,,,,,,,,,,,,,,,,,,,,,,,,,,,67_68Exp,001,2021_May_24_1441,ComputerHuman,2020.1.3,59.98054688096026,
Human.xlsx,h,Sychronize.jpg,Number8.jpg,8,Human,,,,,0,3,3,4,0,1,1,5,,,,,,,,,,,,,,,,,,,,,,,,,,,,,1013.4602943936243,None,1013.4602943936243,None,1013.9267021786782,None,1013.9267021786782,None,v,7.105730843322817,1013.9267021786782,None,t,7.97646037940649,1013.9267021786782,None,7.105730843322817,7.97646037940649,7.7187874664585845,False,False,False,1021.959572123551,None,1021.959572123551,None,1021.959572123551,None,1021.959572123551,None,1021.959572123551,None,1021.959572123551,None,1021.959572123551,None,1021.959572123551,None,1022.9766765952718,None,1022.9766765952718,None,1023.9742311745413,None,1023.9742311745413,None,h,,,,,,,,,,,,,,,,,,,,,,,,,,,,,,,,,,,,,,,,,,,,,,,67_68Exp,001,2021_May_24_1441,ComputerHuman,2020.1.3,59.98054688096026,
Human.xlsx,h,Sychronize.jpg,Number10.jpg,10,Human,,,,,0,3,3,4,0,2,2,9,,,,,,,,,,,,,,,,,,,,,,,,,,,,,1025.024785909396,None,1025.024785909396,None,1025.4743644648897,None,1025.4743644648897,None,v,10.113584868737235,1025.4743644648897,None,t,10.568419972059928,1025.4743644648897,None,10.113584868737235,10.568419972059928,10.455267170603964,False,False,False,1036.1385003793384,None,1036.1385003793384,None,1036.1385003793384,None,1036.1385003793384,None,1036.1385003793384,None,1036.1385003793384,None,1036.1385003793384,None,1036.1385003793384,None,1037.106672376818,None,1037.106672376818,None,1038.1048659798453,None,1038.1048659798453,None,h,,,,,,,,,,,,,,,,,,,,,,,,,,,,,,,,,,,,,,,,,,,,,,,67_68Exp,001,2021_May_24_1441,ComputerHuman,2020.1.3,59.98054688096026,
Human.xlsx,h,Sychronize.jpg,Number7.jpg,7,Human,,,,,0,3,3,4,0,3,3,3,,,,,,,,,,,,,,,,,,,,,,,,,,,,,1039.1712185881497,None,1039.1712185881497,None,1039.6213938224482,None,1039.6213938224482,None,v,9.710291907464125,1039.6213938224482,None,t,6.88145692283797,1039.6213938224482,None,9.710291907464125,6.88145692283797,7.50417550524354,False,False,False,1049.419304484234,None,1049.419304484234,None,1049.419304484234,None,1049.419304484234,None,1049.419304484234,None,1049.419304484234,None,1049.419304484234,None,1049.419304484234,None,1050.388664385815,None,1050.388664385815,None,1051.385685482901,None,1051.385685482901,None,h,,,,,,,,,,,,,,,,,,,,,,,,,,,,,,,,,,,,,,,,,,,,,,,67_68Exp,001,2021_May_24_1441,ComputerHuman,2020.1.3,59.98054688096026,
Human.xlsx,h,Sychronize.jpg,Number9.jpg,9,Human,,,,,0,3,3,4,0,4,4,6,,,,,,,,,,,,,,,,,,,,,,,,,,,,,1052.435261472032,None,1052.435261472032,None,1052.8859477328606,None,1052.8859477328606,None,v,9.16145583213438,1052.8859477328606,None,t,9.20043243173859,1052.8859477328606,None,9.16145583213438,9.20043243173859,8.85420025493826,True,False,False,1062.1686223937413,None,1062.1686223937413,None,1062.1686223937413,None,1062.1686223937413,None,1062.1686223937413,None,1062.1686223937413,None,1062.1686223937413,None,1062.1686223937413,None,1063.1691664621594,None,1063.1691664621594,None,1064.1666809420476,None,1064.1666809420476,None,h,,,,,,,,,,,,,,,,,,,,,,,,,,,,,,,,,,,,,,,,,,,,,,,67_68Exp,001,2021_May_24_1441,ComputerHuman,2020.1.3,59.98054688096026,
Human.xlsx,h,Sychronize.jpg,Number6.jpg,6,Human,,,,,0,3,3,4,0,5,5,0,,,,,,,,,,,,,,,,,,,,,,,,,,,,,1065.2165863877035,None,1065.2165863877035,None,1065.6496093518163,None,1065.6496093518163,None,v,6.329570407298888,1065.6496093518163,None,t,7.328626628233906,1065.6496093518163,None,6.329570407298888,7.328626628233906,6.23064940886838,False,False,False,1073.0648471170953,None,1073.0648471170953,None,1073.0648471170953,None,1073.0648471170953,None,1073.0648471170953,None,1073.0648471170953,None,1073.0648471170953,None,1073.0648471170953,None,1074.0500446707101,None,1074.0500446707101,None,1075.0478199569825,None,1075.0478199569825,None,h,,,,,,,,,,,,,,,,,,,,,,,,,,,,,,,,,,,,,,,,,,,,,,,67_68Exp,001,2021_May_24_1441,ComputerHuman,2020.1.3,59.98054688096026,
Human.xlsx,h,Sychronize.jpg,Number9.jpg,9,Human,,,,,0,3,3,4,0,6,6,7,,,,,,,,,,,,,,,,,,,,,,,,,,,,,1076.0814960598345,None,1076.0814960598345,None,1076.5482066754248,None,1076.5482066754248,None,v,9.202717775733618,1076.5482066754248,None,t,8.362442918529268,1076.5482066754248,None,9.202717775733618,8.362442918529268,9.215826200694833,False,False,False,1085.8458319900037,None,1085.8458319900037,None,1085.8458319900037,None,1085.8458319900037,None,1085.8458319900037,None,1085.8458319900037,None,1085.8458319900037,None,1085.8458319900037,None,1086.814604836627,None,1086.814604836627,None,1087.812094936091,None,1087.812094936091,None,h,,,,,,,,,,,,,,,,,,,,,,,,,,,,,,,,,,,,,,,,,,,,,,,67_68Exp,001,2021_May_24_1441,ComputerHuman,2020.1.3,59.98054688096026,
Human.xlsx,h,Sychronize.jpg,Number7.jpg,7,Human,,,,,0,3,3,4,0,7,7,2,,,,,,,,,,,,,,,,,,,,,,,,,,,,,1088.8791224971956,None,1088.8791224971956,None,1089.3290635511057,None,1089.3290635511057,None,v,6.549573262374906,1089.3290635511057,None,t,7.880511539802683,1089.3290635511057,None,6.549573262374906,7.880511539802683,6.661291830035109,False,False,False,1097.2936378320028,None,1097.2936378320028,None,1097.2936378320028,None,1097.2936378320028,None,1097.2936378320028,None,1097.2936378320028,None,1097.2936378320028,None,1097.2936378320028,None,1098.2781877003963,None,1098.2781877003963,None,1099.2599107227343,None,1099.2599107227343,None,h,,,,,,,,,,,,,,,,,,,,,,,,,,,,,,,,,,,,,,,,,,,,,,,67_68Exp,001,2021_May_24_1441,ComputerHuman,2020.1.3,59.98054688096026,
Human.xlsx,h,Sychronize.jpg,Number10.jpg,10,Human,,,,,0,3,3,4,0,8,8,8,,,,,,,,,,,,,,,,,,,,,,,,,,,,,1100.3270095003445,None,1100.3270095003445,None,1100.760000384953,None,1100.760000384953,None,v,9.866336247756408,1100.760000384953,None,t,10.237623165256082,1100.760000384953,None,9.866336247756408,10.237623165256082,9.375410173388572,False,False,False,1111.0755565393283,None,1111.0755565393283,None,1111.0755565393283,None,1111.0755565393283,None,1111.0755565393283,None,1111.0755565393283,None,1111.0755565393283,None,1111.0755565393283,None,1112.0759809511892,None,1112.0759809511892,None,1113.0739362034856,None,1113.0739362034856,None,h,,,,,,,,,,,,,,,,,,,,,,,,,,,,,,,,,,,,,,,,,,,,,,,67_68Exp,001,2021_May_24_1441,ComputerHuman,2020.1.3,59.98054688096026,
Human.xlsx,h,Sychronize.jpg,Number6.jpg,6,Human,,,,,0,3,3,4,0,9,9,1,,,,,,,,,,,,,,,,,,,,,,,,,,,,,1114.1244518013427,None,1114.1244518013427,None,1114.557555926609,None,1114.557555926609,None,v,6.17657618641897,1114.557555926609,None,t,5.735492925665312,1114.557555926609,None,6.17657618641897,5.735492925665312,6.310518979924611,False,False,False,1120.8070263741665,None,1120.8070263741665,None,1120.8070263741665,None,1120.8070263741665,None,1120.8070263741665,None,1120.8070263741665,None,1120.8070263741665,None,1120.8070263741665,None,1121.7908069760106,None,1121.7908069760106,None,1122.805424323642,None,1122.805424323642,None,h,,,,,,,,,,,,,,,,,,,,,,,,,,,,,,,,,,,,,,,,,,,,,,,67_68Exp,001,2021_May_24_1441,ComputerHuman,2020.1.3,59.98054688096026,
Human.xlsx,h,,,,,,,,,0,3,3,4,,,,,,,,,,,,,,,,,,,,,,,,,,,,,,,,,,,,,,,,,,,,,,,,,,,,,,,,,,,,,,,,,,,,,,,,,,,,,,,h,1123.8054965025312,None,1123.8054965025312,None,q,1,4.592444955578685,1123.8054965025312,None,o,0,2.435577134368941,1123.8054965025312,None,h,h,1128.4877101809125,None,1128.4877101809125,None,1130.4872803155322,None,None,None,None,None,None,None,None,,,,,,,,,,,,,,,,,,67_68Exp,001,2021_May_24_1441,ComputerHuman,2020.1.3,59.98054688096026,
Computer.xlsx,c,Sychronize.jpg,Number7.jpg,7,Computer,,,,,0,4,4,9,0,0,0,2,,,,,,,,,,,,,,,,,,,,,,,,,1135.4725375370308,None,1135.4725375370308,None,1138.5698481516574,None,1138.5698481516574,None,1139.002935274786,None,1139.002935274786,None,v,7.150591786685254,1139.002935274786,None,t,7.777470242246636,1139.002935274786,None,7.150591786685254,7.777470242246636,6.516568160506912,False,False,False,1146.8675084328988,None,1146.8675084328988,None,1146.8675084328988,None,1146.8675084328988,None,1146.8675084328988,None,1146.8675084328988,None,1146.8675084328988,None,1146.8675084328988,None,1147.883934743868,None,1147.883934743868,None,1148.850459137926,None,1148.850459137926,None,c,,,,,,,,,,,,,,,,,,,,,,,,,,,,,,,,,,,,,,,,,,,,,,,67_68Exp,001,2021_May_24_1441,ComputerHuman,2020.1.3,59.98054688096026,
Computer.xlsx,c,Sychronize.jpg,Number7.jpg,7,Computer,,,,,0,4,4,9,0,1,1,3,,,,,,,,,,,,,,,,,,,,,,,,,,,,,1149.9007793715955,None,1149.9007793715955,None,1150.3505763885205,None,1150.3505763885205,None,v,6.9987684677689685,1150.3505763885205,None,t,6.02653584644213,1150.3505763885205,None,6.9987684677689685,6.02653584644213,6.9880137765026324,False,True,False,1157.4321821602662,None,1157.4321821602662,None,1157.4321821602662,None,1157.4321821602662,None,1157.4321821602662,None,1157.4321821602662,None,1157.4321821602662,None,1157.4321821602662,None,1158.431945413513,None,1158.431945413513,None,1159.41511040964,None,1159.41511040964,None,c,,,,,,,,,,,,,,,,,,,,,,,,,,,,,,,,,,,,,,,,,,,,,,,67_68Exp,001,2021_May_24_1441,ComputerHuman,2020.1.3,59.98054688096026,
Computer.xlsx,c,Sychronize.jpg,Number6.jpg,6,Computer,,,,,0,4,4,9,0,2,2,1,,,,,,,,,,,,,,,,,,,,,,,,,,,,,1160.4654534197562,None,1160.4654534197562,None,1160.915271929951,None,1160.915271929951,None,v,6.529820627445588,1160.915271929951,None,t,5.845557389435271,1160.915271929951,None,6.529820627445588,5.845557389435271,5.771857643055277,False,False,True,1167.5152170739948,None,1167.5152170739948,None,1167.5152170739948,None,1167.5152170739948,None,1167.5152170739948,None,1167.5152170739948,None,1167.5152170739948,None,1167.5152170739948,None,1168.5133907877262,None,1168.5133907877262,None,1169.4965227419616,None,1169.4965227419616,None,c,,,,,,,,,,,,,,,,,,,,,,,,,,,,,,,,,,,,,,,,,,,,,,,67_68Exp,001,2021_May_24_1441,ComputerHuman,2020.1.3,59.98054688096026,
Computer.xlsx,c,Sychronize.jpg,Number9.jpg,9,Computer,,,,,0,4,4,9,0,3,3,6,,,,,,,,,,,,,,,,,,,,,,,,,,,,,1170.563111776226,None,1170.563111776226,None,1170.9966691849058,None,1170.9966691849058,None,v,8.588191854694742,1170.9966691849058,None,t,8.591386011088616,1170.9966691849058,None,8.588191854694742,8.591386011088616,9.127363674577841,False,False,False,1179.6628315617436,None,1179.6628315617436,None,1179.6628315617436,None,1179.6628315617436,None,1179.6628315617436,None,1179.6628315617436,None,1179.6628315617436,None,1179.6628315617436,None,1180.6943990786767,None,1180.6943990786767,None,1181.660897488333,None,1181.660897488333,None,c,,,,,,,,,,,,,,,,,,,,,,,,,,,,,,,,,,,,,,,,,,,,,,,67_68Exp,001,2021_May_24_1441,ComputerHuman,2020.1.3,59.98054688096026,
Computer.xlsx,c,Sychronize.jpg,Number6.jpg,6,Computer,,,,,0,4,4,9,0,4,4,0,,,,,,,,,,,,,,,,,,,,,,,,,,,,,1182.7279414099885,None,1182.7279414099885,None,1183.161182514743,None,1183.161182514743,None,v,5.97546912267353,1183.161182514743,None,t,5.926545309896028,1183.161182514743,None,5.97546912267353,5.926545309896028,5.8762555503157206,False,True,True,1189.2108611582935,None,1189.2108611582935,None,1189.2108611582935,None,1189.2108611582935,None,1189.2108611582935,None,1189.2108611582935,None,1189.2108611582935,None,1189.2108611582935,None,1190.2259436587647,None,1190.2259436587647,None,1191.2090595732461,None,1191.2090595732461,None,c,,,,,,,,,,,,,,,,,,,,,,,,,,,,,,,,,,,,,,,,,,,,,,,67_68Exp,001,2021_May_24_1441,ComputerHuman,2020.1.3,59.98054688096026,
Computer.xlsx,c,Sychronize.jpg,Number8.jpg,8,Computer,,,,,0,4,4,9,0,5,5,5,,,,,,,,,,,,,,,,,,,,,,,,,,,,,1192.2588806498006,None,1192.2588806498006,None,1192.7090324660621,None,1192.7090324660621,None,v,7.751332181680482,1192.7090324660621,None,t,6.454536763914803,1192.7090324660621,None,7.751332181680482,6.454536763914803,7.656200738147944,False,True,False,1200.5572858171672,None,1200.5572858171672,None,1200.5572858171672,None,1200.5572858171672,None,1200.5572858171672,None,1200.5572858171672,None,1200.5572858171672,None,1200.5572858171672,None,1201.5403718977122,None,1201.5403718977122,None,1202.5235802011684,None,1202.5235802011684,None,c,,,,,,,,,,,,,,,,,,,,,,,,,,,,,,,,,,,,,,,,,,,,,,,67_68Exp,001,2021_May_24_1441,ComputerHuman,2020.1.3,59.98054688096026,
Computer.xlsx,c,Sychronize.jpg,Number10.jpg,10,Computer,,,,,0,4,4,9,0,6,6,8,,,,,,,,,,,,,,,,,,,,,,,,,,,,,1203.5736255134707,None,1203.5736255134707,None,1204.0237247193454,None,1204.0237247193454,None,v,9.984394603587134,1204.0237247193454,None,t,9.951436119277787,1204.0237247193454,None,9.984394603587134,9.951436119277787,9.554061541972546,False,False,False,1214.089237806982,None,1214.089237806982,None,1214.089237806982,None,1214.089237806982,None,1214.089237806982,None,1214.089237806982,None,1214.089237806982,None,1214.089237806982,None,1215.0878269503137,None,1215.0878269503137,None,1216.0710176100456,None,1216.0710176100456,None,c,,,,,,,,,,,,,,,,,,,,,,,,,,,,,,,,,,,,,,,,,,,,,,,67_68Exp,001,2021_May_24_1441,ComputerHuman,2020.1.3,59.98054688096026,
Computer.xlsx,c,Sychronize.jpg,Number9.jpg,9,Computer,,,,,0,4,4,9,0,7,7,7,,,,,,,,,,,,,,,,,,,,,,,,,,,,,1217.1206721939652,None,1217.1206721939652,None,1217.5712304575663,None,1217.5712304575663,None,v,9.088722289321595,1217.5712304575663,None,t,8.255479580591782,1217.5712304575663,None,9.088722289321595,8.255479580591782,8.920983642388244,False,True,False,1226.7523112481958,None,1226.7523112481958,None,1226.7523112481958,None,1226.7523112481958,None,1226.7523112481958,None,1226.7523112481958,None,1226.7523112481958,None,1226.7523112481958,None,1227.7520684063365,None,1227.7520684063365,None,1228.7352674067388,None,1228.7352674067388,None,c,,,,,,,,,,,,,,,,,,,,,,,,,,,,,,,,,,,,,,,,,,,,,,,67_68Exp,001,2021_May_24_1441,ComputerHuman,2020.1.3,59.98054688096026,
Computer.xlsx,c,Sychronize.jpg,Number10.jpg,10,Computer,,,,,0,4,4,9,0,8,8,9,,,,,,,,,,,,,,,,,,,,,,,,,,,,,1229.785163870134,None,1229.785163870134,None,1230.235377920637,None,1230.235377920637,None,v,9.89216794904496,1230.235377920637,None,t,9.079473446992779,1230.235377920637,None,9.89216794904496,9.079473446992779,9.874122629036567,False,True,False,1240.200216536663,None,1240.200216536663,None,1240.200216536663,None,1240.200216536663,None,1240.200216536663,None,1240.200216536663,None,1240.200216536663,None,1240.200216536663,None,1241.2161908473954,None,1241.2161908473954,None,1242.1993041955193,None,1242.1993041955193,None,c,,,,,,,,,,,,,,,,,,,,,,,,,,,,,,,,,,,,,,,,,,,,,,,67_68Exp,001,2021_May_24_1441,ComputerHuman,2020.1.3,59.98054688096026,
Computer.xlsx,c,Sychronize.jpg,Number8.jpg,8,Computer,,,,,0,4,4,9,0,9,9,4,,,,,,,,,,,,,,,,,,,,,,,,,,,,,1243.2488349525465,None,1243.2488349525465,None,1243.6996241885881,None,1243.6996241885881,None,v,9.083632234127435,1243.6996241885881,None,t,7.850491538225469,1243.6996241885881,None,9.083632234127435,7.850491538225469,7.846340331264446,False,False,True,1252.865252602047,None,1252.865252602047,None,1252.865252602047,None,1252.865252602047,None,1252.865252602047,None,1252.865252602047,None,1252.865252602047,None,1252.865252602047,None,1253.8638237808573,None,1253.8638237808573,None,1254.8469201268435,None,1254.8469201268435,None,c,,,,,,,,,,,,,,,,,,,,,,,,,,,,,,,,,,,,,,,,,,,,,,,67_68Exp,001,2021_May_24_1441,ComputerHuman,2020.1.3,59.98054688096026,
Computer.xlsx,c,,,,,,,,,0,4,4,9,,,,,,,,,,,,,,,,,,,,,,,,,,,,,,,,,,,,,,,,,,,,,,,,,,,,,,,,,,,,,,,,,,,,,,,,,,,,,,,c,1255.8639251520963,None,1255.8639251520963,None,a,0,2.7712362318779924,1255.8639251520963,None,l,1,4.002461139687512,1255.8639251520963,None,c,c,1259.9802855396829,None,1259.9802855396829,None,None,None,1261.9623428304712,None,1261.9623428304712,None,"['space', 'space']",1262.9454266654484,None,"[3.993508070401731, 16.309277232692693]",,,,,,,,,,,,,,,,,67_68Exp,001,2021_May_24_1441,ComputerHuman,2020.1.3,59.98054688096026,
Human.xlsx,h,Sychronize.jpg,Number8.jpg,8,Human,,,,,0,5,5,0,0,0,0,4,,,,,,,,,,,,,,,,,,,,,,,,,1279.3122096203242,None,1279.3122096203242,None,1282.3588788854304,None,1282.3588788854304,None,1282.808887947891,None,1282.808887947891,None,v,7.641576001962676,1282.808887947891,None,t,7.160500825244526,1282.808887947891,None,7.641576001962676,7.160500825244526,7.587486887828449,False,False,False,1290.524377697684,None,1290.524377697684,None,1290.524377697684,None,1290.524377697684,None,1290.524377697684,None,1290.524377697684,None,1290.524377697684,None,1290.524377697684,None,1291.5421378745068,None,1291.5421378745068,None,1292.5397736149262,None,1292.5397736149262,None,h,,,,,,,,,,,,,,,,,,,,,,,,,,,,,,,,,,,,,,,,,,,,,,,67_68Exp,001,2021_May_24_1441,ComputerHuman,2020.1.3,59.98054688096026,
Human.xlsx,h,Sychronize.jpg,Number6.jpg,6,Human,,,,,0,5,5,0,0,1,1,0,,,,,,,,,,,,,,,,,,,,,,,,,,,,,1293.5900065923397,None,1293.5900065923397,None,1294.039997048685,None,1294.039997048685,None,v,6.106267533454229,1294.039997048685,None,t,5.241494840811356,1294.039997048685,None,6.106267533454229,5.241494840811356,5.920650206217082,False,False,False,1300.2232659824094,None,1300.2232659824094,None,1300.2232659824094,None,1300.2232659824094,None,1300.2232659824094,None,1300.2232659824094,None,1300.2232659824094,None,1300.2232659824094,None,1301.207198320315,None,1301.207198320315,None,1302.2045418164362,None,1302.2045418164362,None,h,,,,,,,,,,,,,,,,,,,,,,,,,,,,,,,,,,,,,,,,,,,,,,,67_68Exp,001,2021_May_24_1441,ComputerHuman,2020.1.3,59.98054688096026,
Human.xlsx,h,Sychronize.jpg,Number7.jpg,7,Human,,,,,0,5,5,0,0,2,2,3,,,,,,,,,,,,,,,,,,,,,,,,,,,,,1303.271680051841,None,1303.271680051841,None,1303.7046555382858,None,1303.7046555382858,None,v,7.253303948506073,1303.7046555382858,None,t,7.108477811409102,1303.7046555382858,None,7.253303948506073,7.108477811409102,6.553527963962491,True,False,False,1311.0528753663075,None,1311.0528753663075,None,1311.0528753663075,None,1311.0528753663075,None,1311.0528753663075,None,1311.0528753663075,None,1311.0528753663075,None,1311.0528753663075,None,1312.0379279205572,None,1312.0379279205572,None,1313.0359242346221,None,1313.0359242346221,None,h,,,,,,,,,,,,,,,,,,,,,,,,,,,,,,,,,,,,,,,,,,,,,,,67_68Exp,001,2021_May_24_1441,ComputerHuman,2020.1.3,59.98054688096026,
Human.xlsx,h,Sychronize.jpg,Number10.jpg,10,Human,,,,,0,5,5,0,0,3,3,9,,,,,,,,,,,,,,,,,,,,,,,,,,,,,1314.0696962551974,None,1314.0696962551974,None,1314.5193800314682,None,1314.5193800314682,None,v,9.058335939793324,1314.5193800314682,None,t,9.95350236025115,1314.5193800314682,None,9.058335939793324,9.95350236025115,9.987603819887102,False,False,False,1324.5521376980705,None,1324.5521376980705,None,1324.5521376980705,None,1324.5521376980705,None,1324.5521376980705,None,1324.5521376980705,None,1324.5521376980705,None,1324.5521376980705,None,1325.55232151364,None,1325.55232151364,None,1326.5499726522194,None,1326.5499726522194,None,h,,,,,,,,,,,,,,,,,,,,,,,,,,,,,,,,,,,,,,,,,,,,,,,67_68Exp,001,2021_May_24_1441,ComputerHuman,2020.1.3,59.98054688096026,
Human.xlsx,h,Sychronize.jpg,Number8.jpg,8,Human,,,,,0,5,5,0,0,4,4,5,,,,,,,,,,,,,,,,,,,,,,,,,,,,,1327.6003547993332,None,1327.6003547993332,None,1328.05000713769,None,1328.05000713769,None,v,8.071570339929167,1328.05000713769,None,t,7.298463231272763,1328.05000713769,None,8.071570339929167,7.298463231272763,7.51046825855499,False,False,False,1336.214790256172,None,1336.214790256172,None,1336.214790256172,None,1336.214790256172,None,1336.214790256172,None,1336.214790256172,None,1336.214790256172,None,1336.214790256172,None,1337.1831204056125,None,1337.1831204056125,None,1338.18107822427,None,1338.18107822427,None,h,,,,,,,,,,,,,,,,,,,,,,,,,,,,,,,,,,,,,,,,,,,,,,,67_68Exp,001,2021_May_24_1441,ComputerHuman,2020.1.3,59.98054688096026,
Human.xlsx,h,Sychronize.jpg,Number9.jpg,9,Human,,,,,0,5,5,0,0,5,5,7,,,,,,,,,,,,,,,,,,,,,,,,,,,,,1339.2479668811193,None,1339.2479668811193,None,1339.6975775161172,None,1339.6975775161172,None,v,8.787673770671972,1339.6975775161172,None,t,8.302407085720915,1339.6975775161172,None,8.787673770671972,8.302407085720915,8.68655985975046,False,False,False,1348.5791143169208,None,1348.5791143169208,None,1348.5791143169208,None,1348.5791143169208,None,1348.5791143169208,None,1348.5791143169208,None,1348.5791143169208,None,1348.5791143169208,None,1349.5482025050896,None,1349.5482025050896,None,1350.545409021719,None,1350.545409021719,None,h,,,,,,,,,,,,,,,,,,,,,,,,,,,,,,,,,,,,,,,,,,,,,,,67_68Exp,001,2021_May_24_1441,ComputerHuman,2020.1.3,59.98054688096026,
Human.xlsx,h,Sychronize.jpg,Number10.jpg,10,Human,,,,,0,5,5,0,0,6,6,8,,,,,,,,,,,,,,,,,,,,,,,,,,,,,1351.595437652677,None,1351.595437652677,None,1352.0456039047185,None,1352.0456039047185,None,v,10.627231971717265,1352.0456039047185,None,t,9.710487592448771,1352.0456039047185,None,10.627231971717265,9.710487592448771,10.032016184478627,False,False,False,1362.7440004106156,None,1362.7440004106156,None,1362.7440004106156,None,1362.7440004106156,None,1362.7440004106156,None,1362.7440004106156,None,1362.7440004106156,None,1362.7440004106156,None,1363.7447866793063,None,1363.7447866793063,None,1364.726008619762,None,1364.726008619762,None,h,,,,,,,,,,,,,,,,,,,,,,,,,,,,,,,,,,,,,,,,,,,,,,,67_68Exp,001,2021_May_24_1441,ComputerHuman,2020.1.3,59.98054688096026,
Human.xlsx,h,Sychronize.jpg,Number9.jpg,9,Human,,,,,0,5,5,0,0,7,7,6,,,,,,,,,,,,,,,,,,,,,,,,,,,,,1365.7930429175667,None,1365.7930429175667,None,1366.2263048740006,None,1366.2263048740006,None,v,8.66630513063501,1366.2263048740006,None,t,8.729514588954771,1366.2263048740006,None,8.66630513063501,8.729514588954771,9.454435064709513,True,False,False,1375.0407656736443,None,1375.0407656736443,None,1375.0407656736443,None,1375.0407656736443,None,1375.0407656736443,None,1375.0407656736443,None,1375.0407656736443,None,1375.0407656736443,None,1376.0265919855756,None,1376.0265919855756,None,1377.0237102835654,None,1377.0237102835654,None,h,,,,,,,,,,,,,,,,,,,,,,,,,,,,,,,,,,,,,,,,,,,,,,,67_68Exp,001,2021_May_24_1441,ComputerHuman,2020.1.3,59.98054688096026,
Human.xlsx,h,Sychronize.jpg,Number6.jpg,6,Human,,,,,0,5,5,0,0,8,8,1,,,,,,,,,,,,,,,,,,,,,,,,,,,,,1378.0573305680791,None,1378.0573305680791,None,1378.5239202439316,None,1378.5239202439316,None,v,5.312497052695107,1378.5239202439316,None,t,7.467510678467079,1378.5239202439316,None,5.312497052695107,7.467510678467079,6.2759031566418555,False,False,False,1386.0564734036834,None,1386.0564734036834,None,1386.0564734036834,None,1386.0564734036834,None,1386.0564734036834,None,1386.0564734036834,None,1386.0564734036834,None,1386.0564734036834,None,1387.057310678787,None,1387.057310678787,None,1388.0549223595754,None,1388.0549223595754,None,h,,,,,,,,,,,,,,,,,,,,,,,,,,,,,,,,,,,,,,,,,,,,,,,67_68Exp,001,2021_May_24_1441,ComputerHuman,2020.1.3,59.98054688096026,
Human.xlsx,h,Sychronize.jpg,Number7.jpg,7,Human,,,,,0,5,5,0,0,9,9,2,,,,,,,,,,,,,,,,,,,,,,,,,,,,,1389.138611053635,None,1389.138611053635,None,1389.5717889617608,None,1389.5717889617608,None,v,7.844353124786721,1389.5717889617608,None,t,7.007522323325247,1389.5717889617608,None,7.844353124786721,7.007522323325247,7.071080027209527,False,False,False,1397.5033476568333,None,1397.5033476568333,None,1397.5033476568333,None,1397.5033476568333,None,1397.5033476568333,None,1397.5033476568333,None,1397.5033476568333,None,1397.5033476568333,None,1398.4890559161813,None,1398.4890559161813,None,1399.4694315992765,None,1399.4694315992765,None,h,,,,,,,,,,,,,,,,,,,,,,,,,,,,,,,,,,,,,,,,,,,,,,,67_68Exp,001,2021_May_24_1441,ComputerHuman,2020.1.3,59.98054688096026,
Human.xlsx,h,,,,,,,,,0,5,5,0,,,,,,,,,,,,,,,,,,,,,,,,,,,,,,,,,,,,,,,,,,,,,,,,,,,,,,,,,,,,,,,,,,,,,,,,,,,,,,,h,1400.4706875119282,None,1400.4706875119282,None,q,1,4.913302889883198,1400.4706875119282,None,o,0,3.8525417394484975,1400.4706875119282,None,h,h,1405.4859166157385,None,1405.4859166157385,None,1407.467937015097,None,None,None,None,None,None,None,None,,,,,,,,,,,,,,,,,,67_68Exp,001,2021_May_24_1441,ComputerHuman,2020.1.3,59.98054688096026,
Human.xlsx,h,Sychronize.jpg,Number9.jpg,9,Human,,,,,0,6,6,6,0,0,0,7,,,,,,,,,,,,,,,,,,,,,,,,,1412.4703830774179,None,1412.4703830774179,None,1415.5331575376422,None,1415.5331575376422,None,1415.9666924906687,None,1415.9666924906687,None,v,8.91284286976952,1415.9666924906687,None,t,8.012454547351808,1415.9666924906687,None,8.91284286976952,8.012454547351808,8.653853297799374,False,False,False,1424.9497782504168,None,1424.9497782504168,None,1424.9497782504168,None,1424.9497782504168,None,1424.9497782504168,None,1424.9497782504168,None,1424.9497782504168,None,1424.9497782504168,None,1425.9666020264613,None,1425.9666020264613,None,1426.9641797029744,None,1426.9641797029744,None,h,,,,,,,,,,,,,,,,,,,,,,,,,,,,,,,,,,,,,,,,,,,,,,,67_68Exp,001,2021_May_24_1441,ComputerHuman,2020.1.3,59.98054688096026,
Human.xlsx,h,Sychronize.jpg,Number7.jpg,7,Human,,,,,0,6,6,6,0,1,1,3,,,,,,,,,,,,,,,,,,,,,,,,,,,,,1428.0140036666871,None,1428.0140036666871,None,1428.464319088429,None,1428.464319088429,None,v,6.430986877880059,1428.464319088429,None,t,5.226525580997986,1428.464319088429,None,6.430986877880059,5.226525580997986,6.945709153840706,False,False,False,1434.964572356128,None,1434.964572356128,None,1434.964572356128,None,1434.964572356128,None,1434.964572356128,None,1434.964572356128,None,1434.964572356128,None,1434.964572356128,None,1435.9479904595555,None,1435.9479904595555,None,1436.9456268415652,None,1436.9456268415652,None,h,,,,,,,,,,,,,,,,,,,,,,,,,,,,,,,,,,,,,,,,,,,,,,,67_68Exp,001,2021_May_24_1441,ComputerHuman,2020.1.3,59.98054688096026,
Human.xlsx,h,Sychronize.jpg,Number8.jpg,8,Human,,,,,0,6,6,6,0,2,2,4,,,,,,,,,,,,,,,,,,,,,,,,,,,,,1438.0129877087365,None,1438.0129877087365,None,1438.4457254860445,None,1438.4457254860445,None,v,7.213422386041202,1438.4457254860445,None,t,8.136464293103927,1438.4457254860445,None,7.213422386041202,8.136464293103927,7.926715810543065,False,False,False,1446.6770986011743,None,1446.6770986011743,None,1446.6770986011743,None,1446.6770986011743,None,1446.6770986011743,None,1446.6770986011743,None,1446.6770986011743,None,1446.6770986011743,None,1447.6630522687428,None,1447.6630522687428,None,1448.6433965139204,None,1448.6433965139204,None,h,,,,,,,,,,,,,,,,,,,,,,,,,,,,,,,,,,,,,,,,,,,,,,,67_68Exp,001,2021_May_24_1441,ComputerHuman,2020.1.3,59.98054688096026,
Human.xlsx,h,Sychronize.jpg,Number8.jpg,8,Human,,,,,0,6,6,6,0,3,3,5,,,,,,,,,,,,,,,,,,,,,,,,,,,,,1449.6933404549836,None,1449.6933404549836,None,1450.1431977813827,None,1450.1431977813827,None,v,7.419561761871591,1450.1431977813827,None,t,7.170735149997199,1450.1431977813827,None,7.419561761871591,7.170735149997199,8.527212696467743,True,False,False,1457.658334335816,None,1457.658334335816,None,1457.658334335816,None,1457.658334335816,None,1457.658334335816,None,1457.658334335816,None,1457.658334335816,None,1457.658334335816,None,1458.6437926958151,None,1458.6437926958151,None,1459.6413196867124,None,1459.6413196867124,None,h,,,,,,,,,,,,,,,,,,,,,,,,,,,,,,,,,,,,,,,,,,,,,,,67_68Exp,001,2021_May_24_1441,ComputerHuman,2020.1.3,59.98054688096026,
Human.xlsx,h,Sychronize.jpg,Number6.jpg,6,Human,,,,,0,6,6,6,0,4,4,1,,,,,,,,,,,,,,,,,,,,,,,,,,,,,1460.6911269690809,None,1460.6911269690809,None,1461.1412046816822,None,1461.1412046816822,None,v,5.729430540650355,1461.1412046816822,None,t,5.320530402546865,1461.1412046816822,None,5.729430540650355,5.320530402546865,6.382387509027266,False,False,False,1466.956605731646,None,1466.956605731646,None,1466.956605731646,None,1466.956605731646,None,1466.956605731646,None,1466.956605731646,None,1466.956605731646,None,1466.956605731646,None,1467.9251556257022,None,1467.9251556257022,None,1468.9228882462285,None,1468.9228882462285,None,h,,,,,,,,,,,,,,,,,,,,,,,,,,,,,,,,,,,,,,,,,,,,,,,67_68Exp,001,2021_May_24_1441,ComputerHuman,2020.1.3,59.98054688096026,
Human.xlsx,h,Sychronize.jpg,Number10.jpg,10,Human,,,,,0,6,6,6,0,5,5,9,,,,,,,,,,,,,,,,,,,,,,,,,,,,,1469.9899411501447,None,1469.9899411501447,None,1470.4227126109345,None,1470.4227126109345,None,v,9.547840648261626,1470.4227126109345,None,t,10.002411416455288,1470.4227126109345,None,9.547840648261626,10.002411416455288,9.901779095745475,False,False,False,1480.505280767853,None,1480.505280767853,None,1480.505280767853,None,1480.505280767853,None,1480.505280767853,None,1480.505280767853,None,1480.505280767853,None,1480.505280767853,None,1481.5062806860533,None,1481.5062806860533,None,1482.486978447383,None,1482.486978447383,None,h,,,,,,,,,,,,,,,,,,,,,,,,,,,,,,,,,,,,,,,,,,,,,,,67_68Exp,001,2021_May_24_1441,ComputerHuman,2020.1.3,59.98054688096026,
Human.xlsx,h,Sychronize.jpg,Number9.jpg,9,Human,,,,,0,6,6,6,0,6,6,6,,,,,,,,,,,,,,,,,,,,,,,,,,,,,1483.5534523162187,None,1483.5534523162187,None,1483.9869404331675,None,1483.9869404331675,None,v,8.731304304586956,1483.9869404331675,None,t,7.942494598613848,1483.9869404331675,None,8.731304304586956,7.942494598613848,8.404870053115165,False,False,False,1492.8015834444068,None,1492.8015834444068,None,1492.8015834444068,None,1492.8015834444068,None,1492.8015834444068,None,1492.8015834444068,None,1492.8015834444068,None,1492.8015834444068,None,1493.7870183863688,None,1493.7870183863688,None,1494.7846246136414,None,1494.7846246136414,None,h,,,,,,,,,,,,,,,,,,,,,,,,,,,,,,,,,,,,,,,,,,,,,,,67_68Exp,001,2021_May_24_1441,ComputerHuman,2020.1.3,59.98054688096026,
Human.xlsx,h,Sychronize.jpg,Number10.jpg,10,Human,,,,,0,6,6,6,0,7,7,8,,,,,,,,,,,,,,,,,,,,,,,,,,,,,1495.8343686993849,None,1495.8343686993849,None,1496.2847293532268,None,1496.2847293532268,None,v,4.769125400391204,1496.2847293532268,None,t,8.568491830152198,1496.2847293532268,None,4.769125400391204,8.568491830152198,9.76292105892107,False,False,False,1504.9493637832002,None,1504.9493637832002,None,1504.9493637832002,None,1504.9493637832002,None,1504.9493637832002,None,1504.9493637832002,None,1504.9493637832002,None,1504.9493637832002,None,1505.9348157272998,None,1505.9348157272998,None,1506.9322836919,None,1506.9322836919,None,h,,,,,,,,,,,,,,,,,,,,,,,,,,,,,,,,,,,,,,,,,,,,,,,67_68Exp,001,2021_May_24_1441,ComputerHuman,2020.1.3,59.98054688096026,
Human.xlsx,h,Sychronize.jpg,Number6.jpg,6,Human,,,,,0,6,6,6,0,8,8,0,,,,,,,,,,,,,,,,,,,,,,,,,,,,,1507.982920550292,None,1507.982920550292,None,1508.43218376424,None,1508.43218376424,None,v,6.39340541598358,1508.43218376424,None,t,5.728500234985404,1508.43218376424,None,6.39340541598358,5.728500234985404,5.723427868174753,False,False,False,1514.9141728860795,None,1514.9141728860795,None,1514.9141728860795,None,1514.9141728860795,None,1514.9141728860795,None,1514.9141728860795,None,1514.9141728860795,None,1514.9141728860795,None,1515.882554683527,None,1515.882554683527,None,1516.880422037977,None,1516.880422037977,None,h,,,,,,,,,,,,,,,,,,,,,,,,,,,,,,,,,,,,,,,,,,,,,,,67_68Exp,001,2021_May_24_1441,ComputerHuman,2020.1.3,59.98054688096026,
Human.xlsx,h,Sychronize.jpg,Number7.jpg,7,Human,,,,,0,6,6,6,0,9,9,2,,,,,,,,,,,,,,,,,,,,,,,,,,,,,1517.9469446676649,None,1517.9469446676649,None,1518.380707064387,None,1518.380707064387,None,v,6.5246911144568,1518.380707064387,None,t,6.163630501836451,1518.380707064387,None,6.5246911144568,6.163630501836451,6.7699969838824225,False,False,False,1524.979673783504,None,1524.979673783504,None,1524.979673783504,None,1524.979673783504,None,1524.979673783504,None,1524.979673783504,None,1524.979673783504,None,1524.979673783504,None,1525.9799958617423,None,1525.9799958617423,None,1526.978525978784,None,1526.978525978784,None,h,,,,,,,,,,,,,,,,,,,,,,,,,,,,,,,,,,,,,,,,,,,,,,,67_68Exp,001,2021_May_24_1441,ComputerHuman,2020.1.3,59.98054688096026,
Human.xlsx,h,,,,,,,,,0,6,6,6,,,,,,,,,,,,,,,,,,,,,,,,,,,,,,,,,,,,,,,,,,,,,,,,,,,,,,,,,,,,,,,,,,,,,,,,,,,,,,,h,1527.978815977518,None,1527.978815977518,None,q,1,4.122552053006075,1527.978815977518,None,o,0,2.0816943111822184,1527.978815977518,None,h,h,1532.194581450667,None,1532.194581450667,None,1534.1771812058996,None,None,None,None,None,None,None,None,,,,,,,,,,,,,,,,,,67_68Exp,001,2021_May_24_1441,ComputerHuman,2020.1.3,59.98054688096026,
Computer.xlsx,c,Sychronize.jpg,Number10.jpg,10,Computer,,,,,0,7,7,5,0,0,0,8,,,,,,,,,,,,,,,,,,,,,,,,,1539.1956978174694,None,1539.1956978174694,None,1542.2761464814375,None,1542.2761464814375,None,1542.7093596770228,None,1542.7093596770228,None,v,9.659393280307995,1542.7093596770228,None,t,9.250491217433591,1542.7093596770228,None,9.659393280307995,9.250491217433591,10.64955881192215,False,False,False,1552.4419792413519,None,1552.4419792413519,None,1552.4419792413519,None,1552.4419792413519,None,1552.4419792413519,None,1552.4419792413519,None,1552.4419792413519,None,1552.4419792413519,None,1553.4567476834582,None,1553.4567476834582,None,1554.4399033765276,None,1554.4399033765276,None,c,,,,,,,,,,,,,,,,,,,,,,,,,,,,,,,,,,,,,,,,,,,,,,,67_68Exp,001,2021_May_24_1441,ComputerHuman,2020.1.3,59.98054688096026,
Computer.xlsx,c,Sychronize.jpg,Number9.jpg,9,Computer,,,,,0,7,7,5,0,1,1,6,,,,,,,,,,,,,,,,,,,,,,,,,,,,,1555.5071843657333,None,1555.5071843657333,None,1555.9569682300626,None,1555.9569682300626,None,v,9.191563089963893,1555.9569682300626,None,t,9.182454114277789,1555.9569682300626,None,9.191563089963893,9.182454114277789,9.573549112242006,False,False,False,1565.2224742602066,None,1565.2224742602066,None,1565.2224742602066,None,1565.2224742602066,None,1565.2224742602066,None,1565.2224742602066,None,1565.2224742602066,None,1565.2224742602066,None,1566.2376639062259,None,1566.2376639062259,None,1567.2208135041892,None,1567.2208135041892,None,c,,,,,,,,,,,,,,,,,,,,,,,,,,,,,,,,,,,,,,,,,,,,,,,67_68Exp,001,2021_May_24_1441,ComputerHuman,2020.1.3,59.98054688096026,
Computer.xlsx,c,Sychronize.jpg,Number8.jpg,8,Computer,,,,,0,7,7,5,0,2,2,4,,,,,,,,,,,,,,,,,,,,,,,,,,,,,1568.2877056897796,None,1568.2877056897796,None,1568.7208245716192,None,1568.7208245716192,None,v,8.375440571915533,1568.7208245716192,None,t,8.23858555042898,1568.7208245716192,None,8.375440571915533,8.23858555042898,7.604466123556548,False,False,False,1577.1702972647417,None,1577.1702972647417,None,1577.1702972647417,None,1577.1702972647417,None,1577.1702972647417,None,1577.1702972647417,None,1577.1702972647417,None,1577.1702972647417,None,1578.1853977297342,None,1578.1853977297342,None,1579.1685466861072,None,1579.1685466861072,None,c,,,,,,,,,,,,,,,,,,,,,,,,,,,,,,,,,,,,,,,,,,,,,,,67_68Exp,001,2021_May_24_1441,ComputerHuman,2020.1.3,59.98054688096026,
Computer.xlsx,c,Sychronize.jpg,Number8.jpg,8,Computer,,,,,0,7,7,5,0,3,3,5,,,,,,,,,,,,,,,,,,,,,,,,,,,,,1580.201586973153,None,1580.201586973153,None,1580.6686401978677,None,1580.6686401978677,None,v,7.835368296786328,1580.6686401978677,None,t,7.886453947463451,1580.6686401978677,None,7.835368296786328,7.886453947463451,8.212105961444399,False,False,False,1588.634747558348,None,1588.634747558348,None,1588.634747558348,None,1588.634747558348,None,1588.634747558348,None,1588.634747558348,None,1588.634747558348,None,1588.634747558348,None,1589.6499105783787,None,1589.6499105783787,None,1590.6330428534075,None,1590.6330428534075,None,c,,,,,,,,,,,,,,,,,,,,,,,,,,,,,,,,,,,,,,,,,,,,,,,67_68Exp,001,2021_May_24_1441,ComputerHuman,2020.1.3,59.98054688096026,
Computer.xlsx,c,Sychronize.jpg,Number6.jpg,6,Computer,,,,,0,7,7,5,0,4,4,1,,,,,,,,,,,,,,,,,,,,,,,,,,,,,1591.6832071806766,None,1591.6832071806766,None,1592.1332858556652,None,1592.1332858556652,None,v,6.366504825560696,1592.1332858556652,None,t,6.34152964707755,1592.1332858556652,None,6.366504825560696,6.34152964707755,5.7854469410644915,False,False,False,1598.581309196712,None,1598.581309196712,None,1598.581309196712,None,1598.581309196712,None,1598.581309196712,None,1598.581309196712,None,1598.581309196712,None,1598.581309196712,None,1599.5647686827015,None,1599.5647686827015,None,1600.5478785020805,None,1600.5478785020805,None,c,,,,,,,,,,,,,,,,,,,,,,,,,,,,,,,,,,,,,,,,,,,,,,,67_68Exp,001,2021_May_24_1441,ComputerHuman,2020.1.3,59.98054688096026,
Computer.xlsx,c,Sychronize.jpg,Number7.jpg,7,Computer,,,,,0,7,7,5,0,5,5,2,,,,,,,,,,,,,,,,,,,,,,,,,,,,,1601.5980386590109,None,1601.5980386590109,None,1602.048057345326,None,1602.048057345326,None,v,7.635339104435843,1602.048057345326,None,t,6.8225063397112535,1602.048057345326,None,7.635339104435843,6.8225063397112535,7.503215367706673,False,True,False,1609.7793828223857,None,1609.7793828223857,None,1609.7793828223857,None,1609.7793828223857,None,1609.7793828223857,None,1609.7793828223857,None,1609.7793828223857,None,1609.7793828223857,None,1610.7791913077363,None,1610.7791913077363,None,1611.7623527751184,None,1611.7623527751184,None,c,,,,,,,,,,,,,,,,,,,,,,,,,,,,,,,,,,,,,,,,,,,,,,,67_68Exp,001,2021_May_24_1441,ComputerHuman,2020.1.3,59.98054688096026,
Computer.xlsx,c,Sychronize.jpg,Number10.jpg,10,Computer,,,,,0,7,7,5,0,6,6,9,,,,,,,,,,,,,,,,,,,,,,,,,,,,,1612.812501383427,None,1612.812501383427,None,1613.2627369271995,None,1613.2627369271995,None,v,9.952495384561189,1613.2627369271995,None,t,10.723431352260377,1613.2627369271995,None,9.952495384561189,10.723431352260377,10.053534682574375,False,True,False,1624.076689587475,None,1624.076689587475,None,1624.076689587475,None,1624.076689587475,None,1624.076689587475,None,1624.076689587475,None,1624.076689587475,None,1624.076689587475,None,1625.0764884489708,None,1625.0764884489708,None,1626.0596390093215,None,1626.0596390093215,None,c,,,,,,,,,,,,,,,,,,,,,,,,,,,,,,,,,,,,,,,,,,,,,,,67_68Exp,001,2021_May_24_1441,ComputerHuman,2020.1.3,59.98054688096026,
Computer.xlsx,c,Sychronize.jpg,Number7.jpg,7,Computer,,,,,0,7,7,5,0,7,7,3,,,,,,,,,,,,,,,,,,,,,,,,,,,,,1627.0936881968282,None,1627.0936881968282,None,1627.5597488816293,None,1627.5597488816293,None,v,7.811248357931618,1627.5597488816293,None,t,6.246499564520491,1627.5597488816293,None,7.811248357931618,6.246499564520491,7.2796540786278285,False,False,False,1635.4578393490428,None,1635.4578393490428,None,1635.4578393490428,None,1635.4578393490428,None,1635.4578393490428,None,1635.4578393490428,None,1635.4578393490428,None,1635.4578393490428,None,1636.4409735488425,None,1636.4409735488425,None,1637.4241465648465,None,1637.4241465648465,None,c,,,,,,,,,,,,,,,,,,,,,,,,,,,,,,,,,,,,,,,,,,,,,,,67_68Exp,001,2021_May_24_1441,ComputerHuman,2020.1.3,59.98054688096026,
Computer.xlsx,c,Sychronize.jpg,Number9.jpg,9,Computer,,,,,0,7,7,5,0,8,8,7,,,,,,,,,,,,,,,,,,,,,,,,,,,,,1638.4904093505338,None,1638.4904093505338,None,1638.941136673131,None,1638.941136673131,None,v,9.289572075431352,1638.941136673131,None,t,7.996621065649379,1638.941136673131,None,9.289572075431352,7.996621065649379,8.506702838307168,False,False,False,1648.32209620323,None,1648.32209620323,None,1648.32209620323,None,1648.32209620323,None,1648.32209620323,None,1648.32209620323,None,1648.32209620323,None,1648.32209620323,None,1649.3052528586832,None,1649.3052528586832,None,1650.2883466383082,None,1650.2883466383082,None,c,,,,,,,,,,,,,,,,,,,,,,,,,,,,,,,,,,,,,,,,,,,,,,,67_68Exp,001,2021_May_24_1441,ComputerHuman,2020.1.3,59.98054688096026,
Computer.xlsx,c,Sychronize.jpg,Number6.jpg,6,Computer,,,,,0,7,7,5,0,9,9,0,,,,,,,,,,,,,,,,,,,,,,,,,,,,,1651.33813884331,None,1651.33813884331,None,1651.7885771295569,None,1651.7885771295569,None,v,6.521944146374153,1651.7885771295569,None,t,5.805984111018915,1651.7885771295569,None,6.521944146374153,5.805984111018915,6.096244545196522,False,False,True,1658.3881094103617,None,1658.3881094103617,None,1658.3881094103617,None,1658.3881094103617,None,1658.3881094103617,None,1658.3881094103617,None,1658.3881094103617,None,1658.3881094103617,None,1659.403316700109,None,1659.403316700109,None,1660.3864695060238,None,1660.3864695060238,None,c,,,,,,,,,,,,,,,,,,,,,,,,,,,,,,,,,,,,,,,,,,,,,,,67_68Exp,001,2021_May_24_1441,ComputerHuman,2020.1.3,59.98054688096026,
Computer.xlsx,c,,,,,,,,,0,7,7,5,,,,,,,,,,,,,,,,,,,,,,,,,,,,,,,,,,,,,,,,,,,,,,,,,,,,,,,,,,,,,,,,,,,,,,,,,,,,,,,c,1661.3866831555333,None,1661.3866831555333,None,q,0,2.9196543112448126,1661.3866831555333,None,l,1,9.498394901926076,1661.3866831555333,None,h,c,1670.951456650162,None,1670.951456650162,None,1672.9674158835242,None,None,None,None,None,None,None,None,,,,,,,,,,,,,,,,,,67_68Exp,001,2021_May_24_1441,ComputerHuman,2020.1.3,59.98054688096026,
Computer.xlsx,c,Sychronize.jpg,Number9.jpg,9,Computer,,,,,0,8,8,7,0,0,0,6,,,,,,,,,,,,,,,,,,,,,,,,,1677.9694561400956,None,1677.9694561400956,None,1681.03257192626,None,1681.03257192626,None,1681.4828369831794,None,1681.4828369831794,None,v,9.394975066206825,1681.4828369831794,None,t,8.482438876511878,1681.4828369831794,None,9.394975066206825,8.482438876511878,9.55362965466256,False,True,False,1690.9489534863187,None,1690.9489534863187,None,1690.9489534863187,None,1690.9489534863187,None,1690.9489534863187,None,1690.9489534863187,None,1690.9489534863187,None,1690.9489534863187,None,1691.9803365460957,None,1691.9803365460957,None,1692.9635843073465,None,1692.9635843073465,None,c,,,,,,,,,,,,,,,,,,,,,,,,,,,,,,,,,,,,,,,,,,,,,,,67_68Exp,001,2021_May_24_1441,ComputerHuman,2020.1.3,59.98054688096026,
Computer.xlsx,c,Sychronize.jpg,Number10.jpg,10,Computer,,,,,0,8,8,7,0,1,1,9,,,,,,,,,,,,,,,,,,,,,,,,,,,,,1694.0138618752699,None,1694.0138618752699,None,1694.4639286808433,None,1694.4639286808433,None,v,9.81754460254524,1694.4639286808433,None,t,10.29671201104793,1694.4639286808433,None,9.81754460254524,10.29671201104793,9.510019037184312,False,False,False,1704.8446694287104,None,1704.8446694287104,None,1704.8446694287104,None,1704.8446694287104,None,1704.8446694287104,None,1704.8446694287104,None,1704.8446694287104,None,1704.8446694287104,None,1705.8444734229324,None,1705.8444734229324,None,1706.8275986404715,None,1706.8275986404715,None,c,,,,,,,,,,,,,,,,,,,,,,,,,,,,,,,,,,,,,,,,,,,,,,,67_68Exp,001,2021_May_24_1441,ComputerHuman,2020.1.3,59.98054688096026,
Computer.xlsx,c,Sychronize.jpg,Number7.jpg,7,Computer,,,,,0,8,8,7,0,2,2,2,,,,,,,,,,,,,,,,,,,,,,,,,,,,,1707.8774662323103,None,1707.8774662323103,None,1708.3278647399693,None,1708.3278647399693,None,v,6.941395875535818,1708.3278647399693,None,t,6.800508460168203,1708.3278647399693,None,6.941395875535818,6.800508460168203,6.662305441899629,False,True,True,1715.3444010836447,None,1715.3444010836447,None,1715.3444010836447,None,1715.3444010836447,None,1715.3444010836447,None,1715.3444010836447,None,1715.3444010836447,None,1715.3444010836447,None,1716.3591576563358,None,1716.3591576563358,None,1717.3256002476537,None,1717.3256002476537,None,c,,,,,,,,,,,,,,,,,,,,,,,,,,,,,,,,,,,,,,,,,,,,,,,67_68Exp,001,2021_May_24_1441,ComputerHuman,2020.1.3,59.98054688096026,
Computer.xlsx,c,Sychronize.jpg,Number10.jpg,10,Computer,,,,,0,8,8,7,0,3,3,8,,,,,,,,,,,,,,,,,,,,,,,,,,,,,1718.3756458807493,None,1718.3756458807493,None,1718.8255866138625,None,1718.8255866138625,None,v,8.667379152488138,1718.8255866138625,None,t,9.72222901238274,1718.8255866138625,None,8.667379152488138,9.72222901238274,9.267707291608408,False,False,False,1728.6074097242617,None,1728.6074097242617,None,1728.6074097242617,None,1728.6074097242617,None,1728.6074097242617,None,1728.6074097242617,None,1728.6074097242617,None,1728.6074097242617,None,1729.6399701019018,None,1729.6399701019018,None,1730.6230844124057,None,1730.6230844124057,None,c,,,,,,,,,,,,,,,,,,,,,,,,,,,,,,,,,,,,,,,,,,,,,,,67_68Exp,001,2021_May_24_1441,ComputerHuman,2020.1.3,59.98054688096026,
Computer.xlsx,c,Sychronize.jpg,Number8.jpg,8,Computer,,,,,0,8,8,7,0,4,4,4,,,,,,,,,,,,,,,,,,,,,,,,,,,,,1731.6730668488763,None,1731.6730668488763,None,1732.10640226738,None,1732.10640226738,None,v,8.806310359595955,1732.10640226738,None,t,7.861425196206255,1732.10640226738,None,8.806310359595955,7.861425196206255,7.945513369896094,False,False,True,1741.004339073961,None,1741.004339073961,None,1741.004339073961,None,1741.004339073961,None,1741.004339073961,None,1741.004339073961,None,1741.004339073961,None,1741.004339073961,None,1742.0039903697307,None,1742.0039903697307,None,1742.9873674113933,None,1742.9873674113933,None,c,,,,,,,,,,,,,,,,,,,,,,,,,,,,,,,,,,,,,,,,,,,,,,,67_68Exp,001,2021_May_24_1441,ComputerHuman,2020.1.3,59.98054688096026,
Computer.xlsx,c,Sychronize.jpg,Number6.jpg,6,Computer,,,,,0,8,8,7,0,5,5,1,,,,,,,,,,,,,,,,,,,,,,,,,,,,,1744.0376780212082,None,1744.0376780212082,None,1744.487464772692,None,1744.487464772692,None,v,6.3090446562782745,1744.487464772692,None,t,5.9404450389847625,1744.487464772692,None,6.3090446562782745,5.9404450389847625,6.028097120265098,False,True,True,1750.8858765163586,None,1750.8858765163586,None,1750.8858765163586,None,1750.8858765163586,None,1750.8858765163586,None,1750.8858765163586,None,1750.8858765163586,None,1750.8858765163586,None,1751.8690010923074,None,1751.8690010923074,None,1752.852153256632,None,1752.852153256632,None,c,,,,,,,,,,,,,,,,,,,,,,,,,,,,,,,,,,,,,,,,,,,,,,,67_68Exp,001,2021_May_24_1441,ComputerHuman,2020.1.3,59.98054688096026,
Computer.xlsx,c,Sychronize.jpg,Number8.jpg,8,Computer,,,,,0,8,8,7,0,6,6,5,,,,,,,,,,,,,,,,,,,,,,,,,,,,,1753.9191506630032,None,1753.9191506630032,None,1754.3523247215908,None,1754.3523247215908,None,v,8.36381431740665,1754.3523247215908,None,t,7.815426392771769,1754.3523247215908,None,8.36381431740665,7.815426392771769,8.339918000370396,False,True,False,1762.800273638184,None,1762.800273638184,None,1762.800273638184,None,1762.800273638184,None,1762.800273638184,None,1762.800273638184,None,1762.800273638184,None,1762.800273638184,None,1763.8001472449305,None,1763.8001472449305,None,1764.7665558319732,None,1764.7665558319732,None,c,,,,,,,,,,,,,,,,,,,,,,,,,,,,,,,,,,,,,,,,,,,,,,,67_68Exp,001,2021_May_24_1441,ComputerHuman,2020.1.3,59.98054688096026,
Computer.xlsx,c,Sychronize.jpg,Number9.jpg,9,Computer,,,,,0,8,8,7,0,7,7,7,,,,,,,,,,,,,,,,,,,,,,,,,,,,,1765.8334287698617,None,1765.8334287698617,None,1766.2666057156039,None,1766.2666057156039,None,v,9.18159855385602,1766.2666057156039,None,t,9.116409148431558,1766.2666057156039,None,9.18159855385602,9.116409148431558,8.438158825841613,False,False,False,1775.5478521968853,None,1775.5478521968853,None,1775.5478521968853,None,1775.5478521968853,None,1775.5478521968853,None,1775.5478521968853,None,1775.5478521968853,None,1775.5478521968853,None,1776.5477052727492,None,1776.5477052727492,None,1777.5308798927272,None,1777.5308798927272,None,c,,,,,,,,,,,,,,,,,,,,,,,,,,,,,,,,,,,,,,,,,,,,,,,67_68Exp,001,2021_May_24_1441,ComputerHuman,2020.1.3,59.98054688096026,
Computer.xlsx,c,Sychronize.jpg,Number6.jpg,6,Computer,,,,,0,8,8,7,0,8,8,0,,,,,,,,,,,,,,,,,,,,,,,,,,,,,1778.581122814785,None,1778.581122814785,None,1779.031136689171,None,1779.031136689171,None,v,6.012593772404216,1779.031136689171,None,t,5.739558040648262,1779.031136689171,None,6.012593772404216,5.739558040648262,5.6068345657372936,False,False,True,1785.1292807293594,None,1785.1292807293594,None,1785.1292807293594,None,1785.1292807293594,None,1785.1292807293594,None,1785.1292807293594,None,1785.1292807293594,None,1785.1292807293594,None,1786.1123741881875,None,1786.1123741881875,None,1787.095627402954,None,1787.095627402954,None,c,,,,,,,,,,,,,,,,,,,,,,,,,,,,,,,,,,,,,,,,,,,,,,,67_68Exp,001,2021_May_24_1441,ComputerHuman,2020.1.3,59.98054688096026,
Computer.xlsx,c,Sychronize.jpg,Number7.jpg,7,Computer,,,,,0,8,8,7,0,9,9,3,,,,,,,,,,,,,,,,,,,,,,,,,,,,,1788.1631650282052,None,1788.1631650282052,None,1788.6122768268888,None,1788.6122768268888,None,v,7.3112138724609395,1788.6122768268888,None,t,6.954501957650791,1788.6122768268888,None,7.3112138724609395,6.954501957650791,7.514552225343132,False,True,False,1796.0106491127608,None,1796.0106491127608,None,1796.0106491127608,None,1796.0106491127608,None,1796.0106491127608,None,1796.0106491127608,None,1796.0106491127608,None,1796.0106491127608,None,1797.0104396335864,None,1797.0104396335864,None,1797.9769428551717,None,1797.9769428551717,None,c,,,,,,,,,,,,,,,,,,,,,,,,,,,,,,,,,,,,,,,,,,,,,,,67_68Exp,001,2021_May_24_1441,ComputerHuman,2020.1.3,59.98054688096026,
Computer.xlsx,c,,,,,,,,,0,8,8,7,,,,,,,,,,,,,,,,,,,,,,,,,,,,,,,,,,,,,,,,,,,,,,,,,,,,,,,,,,,,,,,,,,,,,,,,,,,,,,,c,1798.9779321871338,None,1798.9779321871338,None,a,1,3.6454194475591066,1798.9779321871338,None,o,0,1.6605949785953271,1798.9779321871338,None,c,h,1802.709357752252,None,1802.709357752252,None,1804.6923411783773,None,None,None,None,None,None,None,None,,,,,,,,,,,,,,,,,,67_68Exp,001,2021_May_24_1441,ComputerHuman,2020.1.3,59.98054688096026,
Computer.xlsx,c,Sychronize.jpg,Number6.jpg,6,Computer,,,,,0,9,9,3,0,0,0,1,,,,,,,,,,,,,,,,,,,,,,,,,1809.710885057526,None,1809.710885057526,None,1812.7913982013033,None,1812.7913982013033,None,1813.2245299149417,None,1813.2245299149417,None,v,6.7704740228182345,1813.2245299149417,None,t,5.633504477496899,1813.2245299149417,None,6.7704740228182345,5.633504477496899,6.064878295736482,False,False,False,1820.0740619551489,None,1820.0740619551489,None,1820.0740619551489,None,1820.0740619551489,None,1820.0740619551489,None,1820.0740619551489,None,1820.0740619551489,None,1820.0740619551489,None,1821.0891890461298,None,1821.0891890461298,None,1822.088987586836,None,1822.088987586836,None,c,,,,,,,,,,,,,,,,,,,,,,,,,,,,,,,,,,,,,,,,,,,,,,,67_68Exp,001,2021_May_24_1441,ComputerHuman,2020.1.3,59.98054688096026,
Computer.xlsx,c,Sychronize.jpg,Number10.jpg,10,Computer,,,,,0,9,9,3,0,1,1,8,,,,,,,,,,,,,,,,,,,,,,,,,,,,,1823.139246227851,None,1823.139246227851,None,1823.5892867282255,None,1823.5892867282255,None,v,10.8813751200978,1823.5892867282255,None,t,9.808466423182836,1823.5892867282255,None,10.8813751200978,9.808466423182836,9.752650249154033,False,False,True,1834.5533073168535,None,1834.5533073168535,None,1834.5533073168535,None,1834.5533073168535,None,1834.5533073168535,None,1834.5533073168535,None,1834.5533073168535,None,1834.5533073168535,None,1835.5364463285787,None,1835.5364463285787,None,1836.5196247980984,None,1836.5196247980984,None,c,,,,,,,,,,,,,,,,,,,,,,,,,,,,,,,,,,,,,,,,,,,,,,,67_68Exp,001,2021_May_24_1441,ComputerHuman,2020.1.3,59.98054688096026,
Computer.xlsx,c,Sychronize.jpg,Number9.jpg,9,Computer,,,,,0,9,9,3,0,2,2,7,,,,,,,,,,,,,,,,,,,,,,,,,,,,,1837.5867633542966,None,1837.5867633542966,None,1838.0199149572309,None,1838.0199149572309,None,v,8.658487996650365,1838.0199149572309,None,t,9.245438374469813,1838.0199149572309,None,8.658487996650365,9.245438374469813,8.6421308225869,False,True,False,1847.3355753699961,None,1847.3355753699961,None,1847.3355753699961,None,1847.3355753699961,None,1847.3355753699961,None,1847.3355753699961,None,1847.3355753699961,None,1847.3355753699961,None,1848.3506482466128,None,1848.3506482466128,None,1849.31675592789,None,1849.31675592789,None,c,,,,,,,,,,,,,,,,,,,,,,,,,,,,,,,,,,,,,,,,,,,,,,,67_68Exp,001,2021_May_24_1441,ComputerHuman,2020.1.3,59.98054688096026,
Computer.xlsx,c,Sychronize.jpg,Number7.jpg,7,Computer,,,,,0,9,9,3,0,3,3,3,,,,,,,,,,,,,,,,,,,,,,,,,,,,,1850.3836035229706,None,1850.3836035229706,None,1850.817508031907,None,1850.817508031907,None,v,7.15263813835918,1850.817508031907,None,t,6.651476379058295,1850.817508031907,None,7.15263813835918,6.651476379058295,7.241469505067524,False,True,False,1858.0503468596562,None,1858.0503468596562,None,1858.0503468596562,None,1858.0503468596562,None,1858.0503468596562,None,1858.0503468596562,None,1858.0503468596562,None,1858.0503468596562,None,1859.065251318867,None,1859.065251318867,None,1860.0484615470978,None,1860.0484615470978,None,c,,,,,,,,,,,,,,,,,,,,,,,,,,,,,,,,,,,,,,,,,,,,,,,67_68Exp,001,2021_May_24_1441,ComputerHuman,2020.1.3,59.98054688096026,
Computer.xlsx,c,Sychronize.jpg,Number6.jpg,6,Computer,,,,,0,9,9,3,0,4,4,0,,,,,,,,,,,,,,,,,,,,,,,,,,,,,1861.098818672197,None,1861.098818672197,None,1861.5475817666502,None,1861.5475817666502,None,v,5.842404615599662,1861.5475817666502,None,t,5.933639051025239,1861.5475817666502,None,5.842404615599662,5.933639051025239,5.706749986416861,False,True,True,1867.5635852697324,None,1867.5635852697324,None,1867.5635852697324,None,1867.5635852697324,None,1867.5635852697324,None,1867.5635852697324,None,1867.5635852697324,None,1867.5635852697324,None,1868.5466033417233,None,1868.5466033417233,None,1869.530285138686,None,1869.530285138686,None,c,,,,,,,,,,,,,,,,,,,,,,,,,,,,,,,,,,,,,,,,,,,,,,,67_68Exp,001,2021_May_24_1441,ComputerHuman,2020.1.3,59.98054688096026,
Computer.xlsx,c,Sychronize.jpg,Number7.jpg,7,Computer,,,,,0,9,9,3,0,5,5,2,,,,,,,,,,,,,,,,,,,,,,,,,,,,,1870.5971814946151,None,1870.5971814946151,None,1871.0299346700867,None,1871.0299346700867,None,v,6.615825461823988,1871.0299346700867,None,t,6.995527154500451,1871.0299346700867,None,6.615825461823988,6.995527154500451,6.499033130945766,False,True,False,1878.1116758173466,None,1878.1116758173466,None,1878.1116758173466,None,1878.1116758173466,None,1878.1116758173466,None,1878.1116758173466,None,1878.1116758173466,None,1878.1116758173466,None,1879.1114846234905,None,1879.1114846234905,None,1880.0946316550926,None,1880.0946316550926,None,c,,,,,,,,,,,,,,,,,,,,,,,,,,,,,,,,,,,,,,,,,,,,,,,67_68Exp,001,2021_May_24_1441,ComputerHuman,2020.1.3,59.98054688096026,
Computer.xlsx,c,Sychronize.jpg,Number8.jpg,8,Computer,,,,,0,9,9,3,0,6,6,4,,,,,,,,,,,,,,,,,,,,,,,,,,,,,1881.1449149973287,None,1881.1449149973287,None,1881.5779642666366,None,1881.5779642666366,None,v,7.951506694189447,1881.5779642666366,None,t,7.6584960165273515,1881.5779642666366,None,7.951506694189447,7.6584960165273515,8.529552019214234,False,False,False,1889.6260626737294,None,1889.6260626737294,None,1889.6260626737294,None,1889.6260626737294,None,1889.6260626737294,None,1889.6260626737294,None,1889.6260626737294,None,1889.6260626737294,None,1890.6259147872097,None,1890.6259147872097,None,1891.6090983894483,None,1891.6090983894483,None,c,,,,,,,,,,,,,,,,,,,,,,,,,,,,,,,,,,,,,,,,,,,,,,,67_68Exp,001,2021_May_24_1441,ComputerHuman,2020.1.3,59.98054688096026,
Computer.xlsx,c,Sychronize.jpg,Number10.jpg,10,Computer,,,,,0,9,9,3,0,7,7,9,,,,,,,,,,,,,,,,,,,,,,,,,,,,,1892.658904388636,None,1892.658904388636,None,1893.109037598786,None,1893.109037598786,None,v,9.90814097659677,1893.109037598786,None,t,10.075468320686923,1893.109037598786,None,9.90814097659677,10.075468320686923,9.366512835160249,False,False,False,1903.2583279199152,None,1903.2583279199152,None,1903.2583279199152,None,1903.2583279199152,None,1903.2583279199152,None,1903.2583279199152,None,1903.2583279199152,None,1903.2583279199152,None,1904.2565994761408,None,1904.2565994761408,None,1905.2565048415981,None,1905.2565048415981,None,c,,,,,,,,,,,,,,,,,,,,,,,,,,,,,,,,,,,,,,,,,,,,,,,67_68Exp,001,2021_May_24_1441,ComputerHuman,2020.1.3,59.98054688096026,
Computer.xlsx,c,Sychronize.jpg,Number8.jpg,8,Computer,,,,,0,9,9,3,0,8,8,5,,,,,,,,,,,,,,,,,,,,,,,,,,,,,1906.3067012483752,None,1906.3067012483752,None,1906.7565935414332,None,1906.7565935414332,None,v,7.792356095345895,1906.7565935414332,None,t,7.8154629634082085,1906.7565935414332,None,7.792356095345895,7.8154629634082085,8.407071601686216,False,False,False,1914.654734052876,None,1914.654734052876,None,1914.654734052876,None,1914.654734052876,None,1914.654734052876,None,1914.654734052876,None,1914.654734052876,None,1914.654734052876,None,1915.6545909782817,None,1915.6545909782817,None,1916.6210130387135,None,1916.6210130387135,None,c,,,,,,,,,,,,,,,,,,,,,,,,,,,,,,,,,,,,,,,,,,,,,,,67_68Exp,001,2021_May_24_1441,ComputerHuman,2020.1.3,59.98054688096026,
Computer.xlsx,c,Sychronize.jpg,Number9.jpg,9,Computer,,,,,0,9,9,3,0,9,9,6,,,,,,,,,,,,,,,,,,,,,,,,,,,,,1917.6883748682721,None,1917.6883748682721,None,1918.1212624568743,None,1918.1212624568743,None,v,8.951426816220192,1918.1212624568743,None,t,9.31047540223517,1918.1212624568743,None,8.951426816220192,9.31047540223517,9.611043723874152,False,False,False,1927.503535321941,None,1927.503535321941,None,1927.503535321941,None,1927.503535321941,None,1927.503535321941,None,1927.503535321941,None,1927.503535321941,None,1927.503535321941,None,1928.518714702519,None,1928.518714702519,None,1929.5019377625486,None,1929.5019377625486,None,c,,,,,,,,,,,,,,,,,,,,,,,,,,,,,,,,,,,,,,,,,,,,,,,67_68Exp,001,2021_May_24_1441,ComputerHuman,2020.1.3,59.98054688096026,
Computer.xlsx,c,,,,,,,,,0,9,9,3,,,,,,,,,,,,,,,,,,,,,,,,,,,,,,,,,,,,,,,,,,,,,,,,,,,,,,,,,,,,,,,,,,,,,,,,,,,,,,,c,1930.502900147725,None,1930.502900147725,None,a,0,4.5495225767554075,1930.502900147725,None,l,1,4.720938774658862,1930.502900147725,None,c,c,1935.3174921525515,None,1935.3174921525515,None,None,None,1937.3004268178247,None,1937.3004268178247,None,"['space', 'space']",1938.283559092857,None,"[176.47314319810175, 193.57267788486934]",,,,,,,,,,,,,,,,,67_68Exp,001,2021_May_24_1441,ComputerHuman,2020.1.3,59.98054688096026,
Computer.xlsx,c,Sychronize.jpg,Number7.jpg,7,Computer,,,,,1,0,10,7,0,0,0,3,,,,,,,,,,,,,,,,,,,,,,,,,2131.9168839251197,None,2131.9168839251197,None,2134.9970448359218,None,2134.9970448359218,None,2135.4131994334766,None,2135.4131994334766,None,v,6.738945642879116,2135.4131994334766,None,t,6.870514603393531,2135.4131994334766,None,6.738945642879116,6.870514603393531,6.5348614137212495,False,True,False,2142.3780653170816,None,2142.3780653170816,None,2142.3780653170816,None,2142.3780653170816,None,2142.3780653170816,None,2142.3780653170816,None,2142.3780653170816,None,2142.3780653170816,None,2143.3779395654183,None,2143.3779395654183,None,2144.360996774407,None,2144.360996774407,None,c,,,,,,,,,,,,,,,,,,,,,,,,,,,,,,,,,,,,,,,,,,,,,,,67_68Exp,001,2021_May_24_1441,ComputerHuman,2020.1.3,59.98054688096026,
Computer.xlsx,c,Sychronize.jpg,Number8.jpg,8,Computer,,,,,1,0,10,7,0,1,1,4,,,,,,,,,,,,,,,,,,,,,,,,,,,,,2145.4114000939935,None,2145.4114000939935,None,2145.8612570995956,None,2145.8612570995956,None,v,8.066481888712588,2145.8612570995956,None,t,7.665477479382389,2145.8612570995956,None,8.066481888712588,7.665477479382389,8.525026528879218,False,False,False,2154.0104678635525,None,2154.0104678635525,None,2154.0104678635525,None,2154.0104678635525,None,2154.0104678635525,None,2154.0104678635525,None,2154.0104678635525,None,2154.0104678635525,None,2155.00898129925,None,2155.00898129925,None,2156.0088183353637,None,2156.0088183353637,None,c,,,,,,,,,,,,,,,,,,,,,,,,,,,,,,,,,,,,,,,,,,,,,,,67_68Exp,001,2021_May_24_1441,ComputerHuman,2020.1.3,59.98054688096026,
Computer.xlsx,c,Sychronize.jpg,Number8.jpg,8,Computer,,,,,1,0,10,7,0,2,2,5,,,,,,,,,,,,,,,,,,,,,,,,,,,,,2157.059240581859,None,2157.059240581859,None,2157.509171370324,None,2157.509171370324,None,v,7.854503401227703,2157.509171370324,None,t,7.885520754636673,2157.509171370324,None,7.854503401227703,7.885520754636673,7.480220576645487,False,False,False,2165.4903573817337,None,2165.4903573817337,None,2165.4903573817337,None,2165.4903573817337,None,2165.4903573817337,None,2165.4903573817337,None,2165.4903573817337,None,2165.4903573817337,None,2166.473455973284,None,2166.473455973284,None,2167.4566514449416,None,2167.4566514449416,None,c,,,,,,,,,,,,,,,,,,,,,,,,,,,,,,,,,,,,,,,,,,,,,,,67_68Exp,001,2021_May_24_1441,ComputerHuman,2020.1.3,59.98054688096026,
Computer.xlsx,c,Sychronize.jpg,Number7.jpg,7,Computer,,,,,1,0,10,7,0,3,3,2,,,,,,,,,,,,,,,,,,,,,,,,,,,,,2168.523631207585,None,2168.523631207585,None,2168.956845044757,None,2168.956845044757,None,v,7.234418743413698,2168.956845044757,None,t,7.125467117704829,2168.956845044757,None,7.234418743413698,7.125467117704829,7.172726166460618,False,True,True,2176.2882914615566,None,2176.2882914615566,None,2176.2882914615566,None,2176.2882914615566,None,2176.2882914615566,None,2176.2882914615566,None,2176.2882914615566,None,2176.2882914615566,None,2177.288096097369,None,2177.288096097369,None,2178.271227089217,None,2178.271227089217,None,c,,,,,,,,,,,,,,,,,,,,,,,,,,,,,,,,,,,,,,,,,,,,,,,67_68Exp,001,2021_May_24_1441,ComputerHuman,2020.1.3,59.98054688096026,
Computer.xlsx,c,Sychronize.jpg,Number9.jpg,9,Computer,,,,,1,0,10,7,0,4,4,6,,,,,,,,,,,,,,,,,,,,,,,,,,,,,2179.304784497899,None,2179.304784497899,None,2179.7715053789307,None,2179.7715053789307,None,v,9.615475153619627,2179.7715053789307,None,t,9.202439646418497,2179.7715053789307,None,9.615475153619627,9.202439646418497,9.085574315239016,False,False,True,2189.4857581429806,None,2189.4857581429806,None,2189.4857581429806,None,2189.4857581429806,None,2189.4857581429806,None,2189.4857581429806,None,2189.4857581429806,None,2189.4857581429806,None,2190.48540173967,None,2190.48540173967,None,2191.468719434246,None,2191.468719434246,None,c,,,,,,,,,,,,,,,,,,,,,,,,,,,,,,,,,,,,,,,,,,,,,,,67_68Exp,001,2021_May_24_1441,ComputerHuman,2020.1.3,59.98054688096026,
Computer.xlsx,c,Sychronize.jpg,Number6.jpg,6,Computer,,,,,1,0,10,7,0,5,5,0,,,,,,,,,,,,,,,,,,,,,,,,,,,,,2192.5193986375834,None,2192.5193986375834,None,2192.968879350583,None,2192.968879350583,None,v,6.0498303796157415,2192.968879350583,None,t,6.289507595625764,2192.968879350583,None,6.0498303796157415,6.289507595625764,5.961507726635867,False,True,False,2199.3505709350047,None,2199.3505709350047,None,2199.3505709350047,None,2199.3505709350047,None,2199.3505709350047,None,2199.3505709350047,None,2199.3505709350047,None,2199.3505709350047,None,2200.3337471589566,None,2200.3337471589566,None,2201.316845108917,None,2201.316845108917,None,c,,,,,,,,,,,,,,,,,,,,,,,,,,,,,,,,,,,,,,,,,,,,,,,67_68Exp,001,2021_May_24_1441,ComputerHuman,2020.1.3,59.98054688096026,
Computer.xlsx,c,Sychronize.jpg,Number10.jpg,10,Computer,,,,,1,0,10,7,0,6,6,9,,,,,,,,,,,,,,,,,,,,,,,,,,,,,2202.3675782058253,None,2202.3675782058253,None,2202.8172353561076,None,2202.8172353561076,None,v,10.421397992784478,2202.8172353561076,None,t,9.892461797317083,2202.8172353561076,None,10.421397992784478,9.892461797317083,9.93945953974123,False,False,True,2213.3311464734197,None,2213.3311464734197,None,2213.3311464734197,None,2213.3311464734197,None,2213.3311464734197,None,2213.3311464734197,None,2213.3311464734197,None,2213.3311464734197,None,2214.3309450141223,None,2214.3309450141223,None,2215.2975428702503,None,2215.2975428702503,None,c,,,,,,,,,,,,,,,,,,,,,,,,,,,,,,,,,,,,,,,,,,,,,,,67_68Exp,001,2021_May_24_1441,ComputerHuman,2020.1.3,59.98054688096026,
Computer.xlsx,c,Sychronize.jpg,Number10.jpg,10,Computer,,,,,1,0,10,7,0,7,7,8,,,,,,,,,,,,,,,,,,,,,,,,,,,,,2216.347564764512,None,2216.347564764512,None,2216.7977826645565,None,2216.7977826645565,None,v,10.74039210780029,2216.7977826645565,None,t,9.875451639341918,2216.7977826645565,None,10.74039210780029,9.875451639341918,9.771438344850338,False,False,True,2227.613099024622,None,2227.613099024622,None,2227.613099024622,None,2227.613099024622,None,2227.613099024622,None,2227.613099024622,None,2227.613099024622,None,2227.613099024622,None,2228.628325562071,None,2228.628325562071,None,2229.6114658569804,None,2229.6114658569804,None,c,,,,,,,,,,,,,,,,,,,,,,,,,,,,,,,,,,,,,,,,,,,,,,,67_68Exp,001,2021_May_24_1441,ComputerHuman,2020.1.3,59.98054688096026,
Computer.xlsx,c,Sychronize.jpg,Number6.jpg,6,Computer,,,,,1,0,10,7,0,8,8,1,,,,,,,,,,,,,,,,,,,,,,,,,,,,,2230.6629056654,None,2230.6629056654,None,2231.111304336666,None,2231.111304336666,None,v,5.786620921291615,2231.111304336666,None,t,6.2615503062806965,2231.111304336666,None,5.786620921291615,6.2615503062806965,5.63398402349974,False,True,False,2237.4599774481085,None,2237.4599774481085,None,2237.4599774481085,None,2237.4599774481085,None,2237.4599774481085,None,2237.4599774481085,None,2237.4599774481085,None,2237.4599774481085,None,2238.459797161284,None,2238.459797161284,None,2239.4429454760666,None,2239.4429454760666,None,c,,,,,,,,,,,,,,,,,,,,,,,,,,,,,,,,,,,,,,,,,,,,,,,67_68Exp,001,2021_May_24_1441,ComputerHuman,2020.1.3,59.98054688096026,
Computer.xlsx,c,Sychronize.jpg,Number9.jpg,9,Computer,,,,,1,0,10,7,0,9,9,7,,,,,,,,,,,,,,,,,,,,,,,,,,,,,2240.510003191912,None,2240.510003191912,None,2240.9432218410093,None,2240.9432218410093,None,v,7.854488965454948,2240.9432218410093,None,t,8.941472866350523,2240.9432218410093,None,7.854488965454948,8.941472866350523,8.894331394393701,False,False,True,2249.9586440634466,None,2249.9586440634466,None,2249.9586440634466,None,2249.9586440634466,None,2249.9586440634466,None,2249.9586440634466,None,2249.9586440634466,None,2249.9586440634466,None,2250.9574301749435,None,2250.9574301749435,None,2251.9405627707692,None,2251.9405627707692,None,c,,,,,,,,,,,,,,,,,,,,,,,,,,,,,,,,,,,,,,,,,,,,,,,67_68Exp,001,2021_May_24_1441,ComputerHuman,2020.1.3,59.98054688096026,
Computer.xlsx,c,,,,,,,,,1,0,10,7,,,,,,,,,,,,,,,,,,,,,,,,,,,,,,,,,,,,,,,,,,,,,,,,,,,,,,,,,,,,,,,,,,,,,,,,,,,,,,,c,2252.941152392088,None,2252.941152392088,None,q,0,4.604332016471744,2252.941152392088,None,l,0,1.9315830754931085,2252.941152392088,None,h,c,2257.6405504201593,None,2257.6405504201593,None,2259.6390317763526,None,None,None,None,None,None,None,None,,,,,,,,,,,,,,,,,,67_68Exp,001,2021_May_24_1441,ComputerHuman,2020.1.3,59.98054688096026,
Computer.xlsx,c,Sychronize.jpg,Number8.jpg,8,Computer,,,,,1,1,11,1,0,0,0,5,,,,,,,,,,,,,,,,,,,,,,,,,2264.640998570858,None,2264.640998570858,None,2267.704493215986,None,2267.704493215986,None,2268.1377680042224,None,2268.1377680042224,None,v,8.299325207597576,2268.1377680042224,None,t,8.202448628679122,2268.1377680042224,None,8.299325207597576,8.202448628679122,7.668728360585253,False,False,False,2276.535769771801,None,2276.535769771801,None,2276.535769771801,None,2276.535769771801,None,2276.535769771801,None,2276.535769771801,None,2276.535769771801,None,2276.535769771801,None,2277.53567834521,None,2277.53567834521,None,2278.518837887821,None,2278.518837887821,None,c,,,,,,,,,,,,,,,,,,,,,,,,,,,,,,,,,,,,,,,,,,,,,,,67_68Exp,001,2021_May_24_1441,ComputerHuman,2020.1.3,59.98054688096026,
Computer.xlsx,c,Sychronize.jpg,Number10.jpg,10,Computer,,,,,1,1,11,1,0,1,1,8,,,,,,,,,,,,,,,,,,,,,,,,,,,,,2279.5690625245606,None,2279.5690625245606,None,2280.035324347862,None,2280.035324347862,None,v,9.669486776027043,2280.035324347862,None,t,9.532404631638201,2280.035324347862,None,9.669486776027043,9.532404631638201,10.631917654509298,False,False,False,2289.785034589726,None,2289.785034589726,None,2289.785034589726,None,2289.785034589726,None,2289.785034589726,None,2289.785034589726,None,2289.785034589726,None,2289.785034589726,None,2290.799845055988,None,2290.799845055988,None,2291.782958083315,None,2291.782958083315,None,c,,,,,,,,,,,,,,,,,,,,,,,,,,,,,,,,,,,,,,,,,,,,,,,67_68Exp,001,2021_May_24_1441,ComputerHuman,2020.1.3,59.98054688096026,
Computer.xlsx,c,Sychronize.jpg,Number10.jpg,10,Computer,,,,,1,1,11,1,0,2,2,9,,,,,,,,,,,,,,,,,,,,,,,,,,,,,2292.832730078224,None,2292.832730078224,None,2293.2832042935206,None,2293.2832042935206,None,v,10.31732790548267,2293.2832042935206,None,t,9.624454528104252,2293.2832042935206,None,10.31732790548267,9.624454528104252,10.356589761744512,False,True,False,2303.697345902083,None,2303.697345902083,None,2303.697345902083,None,2303.697345902083,None,2303.697345902083,None,2303.697345902083,None,2303.697345902083,None,2303.697345902083,None,2304.680507369465,None,2304.680507369465,None,2305.680324837076,None,2305.680324837076,None,c,,,,,,,,,,,,,,,,,,,,,,,,,,,,,,,,,,,,,,,,,,,,,,,67_68Exp,001,2021_May_24_1441,ComputerHuman,2020.1.3,59.98054688096026,
Computer.xlsx,c,Sychronize.jpg,Number6.jpg,6,Computer,,,,,1,1,11,1,0,3,3,1,,,,,,,,,,,,,,,,,,,,,,,,,,,,,2306.729763525922,None,2306.729763525922,None,2307.180156900862,None,2307.180156900862,None,v,6.352155662596488,2307.180156900862,None,t,5.8195505340409,2307.180156900862,None,6.352155662596488,5.8195505340409,6.0134640855624095,False,False,True,2313.6288176616927,None,2313.6288176616927,None,2313.6288176616927,None,2313.6288176616927,None,2313.6288176616927,None,2313.6288176616927,None,2313.6288176616927,None,2313.6288176616927,None,2314.62861139047,None,2314.62861139047,None,2315.5951213487515,None,2315.5951213487515,None,c,,,,,,,,,,,,,,,,,,,,,,,,,,,,,,,,,,,,,,,,,,,,,,,67_68Exp,001,2021_May_24_1441,ComputerHuman,2020.1.3,59.98054688096026,
Computer.xlsx,c,Sychronize.jpg,Number9.jpg,9,Computer,,,,,1,1,11,1,0,4,4,7,,,,,,,,,,,,,,,,,,,,,,,,,,,,,2316.6615602509246,None,2316.6615602509246,None,2317.094918445875,None,2317.094918445875,None,v,8.401156466185057,2317.094918445875,None,t,8.86475248255374,2317.094918445875,None,8.401156466185057,8.86475248255374,9.3635244249711,False,False,False,2326.0276878214954,None,2326.0276878214954,None,2326.0276878214954,None,2326.0276878214954,None,2326.0276878214954,None,2326.0276878214954,None,2326.0276878214954,None,2326.0276878214954,None,2327.0429085846354,None,2327.0429085846354,None,2328.0260816006394,None,2328.0260816006394,None,c,,,,,,,,,,,,,,,,,,,,,,,,,,,,,,,,,,,,,,,,,,,,,,,67_68Exp,001,2021_May_24_1441,ComputerHuman,2020.1.3,59.98054688096026,
Computer.xlsx,c,Sychronize.jpg,Number7.jpg,7,Computer,,,,,1,1,11,1,0,5,5,3,,,,,,,,,,,,,,,,,,,,,,,,,,,,,2329.076258759711,None,2329.076258759711,None,2329.5263037512177,None,2329.5263037512177,None,v,7.585452585688472,2329.5263037512177,None,t,6.540501498915546,2329.5263037512177,None,7.585452585688472,6.540501498915546,6.7443807303513665,False,False,True,2337.207643583859,None,2337.207643583859,None,2337.207643583859,None,2337.207643583859,None,2337.207643583859,None,2337.207643583859,None,2337.207643583859,None,2337.207643583859,None,2338.190784520355,None,2338.190784520355,None,2339.190605516711,None,2339.190605516711,None,c,,,,,,,,,,,,,,,,,,,,,,,,,,,,,,,,,,,,,,,,,,,,,,,67_68Exp,001,2021_May_24_1441,ComputerHuman,2020.1.3,59.98054688096026,
Computer.xlsx,c,Sychronize.jpg,Number7.jpg,7,Computer,,,,,1,1,11,1,0,6,6,2,,,,,,,,,,,,,,,,,,,,,,,,,,,,,2340.240896878824,None,2340.240896878824,None,2340.6908421030694,None,2340.6908421030694,None,v,6.960716720321216,2340.6908421030694,None,t,6.731513462964358,2340.6908421030694,None,6.960716720321216,6.731513462964358,7.369087834268066,False,False,False,2347.738991516575,None,2347.738991516575,None,2347.738991516575,None,2347.738991516575,None,2347.738991516575,None,2347.738991516575,None,2347.738991516575,None,2347.738991516575,None,2348.73880288908,None,2348.73880288908,None,2349.7052884669374,None,2349.7052884669374,None,c,,,,,,,,,,,,,,,,,,,,,,,,,,,,,,,,,,,,,,,,,,,,,,,67_68Exp,001,2021_May_24_1441,ComputerHuman,2020.1.3,59.98054688096026,
Computer.xlsx,c,Sychronize.jpg,Number6.jpg,6,Computer,,,,,1,1,11,1,0,7,7,0,,,,,,,,,,,,,,,,,,,,,,,,,,,,,2350.7718341938653,None,2350.7718341938653,None,2351.2055892123044,None,2351.2055892123044,None,v,6.029745721796644,2351.2055892123044,None,t,6.229483632232586,2351.2055892123044,None,6.029745721796644,6.229483632232586,5.56436146219038,False,False,False,2357.5054074819036,None,2357.5054074819036,None,2357.5054074819036,None,2357.5054074819036,None,2357.5054074819036,None,2357.5054074819036,None,2357.5054074819036,None,2357.5054074819036,None,2358.520277936839,None,2358.520277936839,None,2359.5034345922923,None,2359.5034345922923,None,c,,,,,,,,,,,,,,,,,,,,,,,,,,,,,,,,,,,,,,,,,,,,,,,67_68Exp,001,2021_May_24_1441,ComputerHuman,2020.1.3,59.98054688096026,
Computer.xlsx,c,Sychronize.jpg,Number8.jpg,8,Computer,,,,,1,1,11,1,0,8,8,4,,,,,,,,,,,,,,,,,,,,,,,,,,,,,2360.553544705197,None,2360.553544705197,None,2361.0036253049566,None,2361.0036253049566,None,v,8.099415351007337,2361.0036253049566,None,t,7.998480073012615,2361.0036253049566,None,8.099415351007337,7.998480073012615,7.416745482967968,False,False,False,2369.2014977921262,None,2369.2014977921262,None,2369.2014977921262,None,2369.2014977921262,None,2369.2014977921262,None,2369.2014977921262,None,2369.2014977921262,None,2369.2014977921262,None,2370.184724060111,None,2370.184724060111,None,2371.167833237896,None,2371.167833237896,None,c,,,,,,,,,,,,,,,,,,,,,,,,,,,,,,,,,,,,,,,,,,,,,,,67_68Exp,001,2021_May_24_1441,ComputerHuman,2020.1.3,59.98054688096026,
Computer.xlsx,c,Sychronize.jpg,Number9.jpg,9,Computer,,,,,1,1,11,1,0,9,9,6,,,,,,,,,,,,,,,,,,,,,,,,,,,,,2372.235128662878,None,2372.235128662878,None,2372.6844781706986,None,2372.6844781706986,None,v,8.558310757383879,2372.6844781706986,None,t,9.113539315840171,2372.6844781706986,None,8.558310757383879,9.113539315840171,8.916271239125088,False,False,True,2381.8823567529744,None,2381.8823567529744,None,2381.8823567529744,None,2381.8823567529744,None,2381.8823567529744,None,2381.8823567529744,None,2381.8823567529744,None,2381.8823567529744,None,2382.865442191929,None,2382.865442191929,None,2383.848770793533,None,2383.848770793533,None,c,,,,,,,,,,,,,,,,,,,,,,,,,,,,,,,,,,,,,,,,,,,,,,,67_68Exp,001,2021_May_24_1441,ComputerHuman,2020.1.3,59.98054688096026,
