Condition,CorrectTuringReply,Sychronize,NumberImage,Number,Partner,trials.thisRepN,trials.thisTrialN,trials.thisN,trials.thisIndex,Block.thisRepN,Block.thisTrialN,Block.thisN,Block.thisIndex,trials_loop.thisRepN,trials_loop.thisTrialN,trials_loop.thisN,trials_loop.thisIndex,key_resp_Istr.keys,key_resp_Istr.rt,key_resp_Istr.started,key_resp_Istr.stopped,key_respPrLeft.keys,key_respPrLeft.rt,key_respPrRight.keys,key_respPrRight.rt,RTPrLeft,RTPrRight,CompPr,SychronizedRTsPr,SychronizedRTsLeftCPr,SychronizedRTsRightCPr,CreditLeftPr.started,CreditLeftPr.stopped,CreditRightPr.started,CreditRightPr.stopped,text_StartExp.started,text_StartExp.stopped,key_startExp.keys,key_startExp.rt,key_startExp.started,key_startExp.stopped,SychroLeft.started,SychroLeft.stopped,SychroRight.started,SychroRight.stopped,NumberLeft.started,NumberLeft.stopped,NumberRight.started,NumberRight.stopped,CrossLeft.started,CrossLeft.stopped,CrossRight.started,CrossRight.stopped,key_respLeft.keys,key_respLeft.rt,key_respLeft.started,key_respLeft.stopped,key_respRight.keys,key_respRight.rt,key_respRight.started,key_respRight.stopped,RTLeft,RTRight,Comp,SychronizedRTs,SychronizedRTsLeftC,SychronizedRTsRightC,FeedbackLeftLeft.started,FeedbackLeftLeft.stopped,FeedbackLeftRight.started,FeedbackLeftRight.stopped,FeedbackRightLeft.started,FeedbackRightLeft.stopped,FeedbackRightRight.started,FeedbackRightRight.stopped,textLeftLeft.started,textLeftLeft.stopped,textLeftRight.started,textLeftRight.stopped,textRightLeft.started,textRightLeft.stopped,textRightRight.started,textRightRight.stopped,CreditLeft.started,CreditLeft.stopped,CreditRight.started,CreditRight.stopped,BlankLeft.started,BlankLeft.stopped,BlankRight.started,BlankRight.stopped,CorrectTuringReply,TuringtextLeft.started,TuringtextLeft.stopped,TuringtextRight.started,TuringtextRight.stopped,keyTuringLeft.keys,keyTuringLeft.corr,keyTuringLeft.rt,keyTuringLeft.started,keyTuringLeft.stopped,keyTuringRight.keys,keyTuringRight.corr,keyTuringRight.rt,keyTuringRight.started,keyTuringRight.stopped,RespTuringLeft,RespTuringRight,ScoreLeft.started,ScoreLeft.stopped,ScoreRight.started,ScoreRight.stopped,BlockText.started,BlockText.stopped,text_Pause.started,text_Pause.stopped,text_LongPause.started,text_LongPause.stopped,key_respPause.keys,key_respPause.started,key_respPause.stopped,key_respPause.rt,QuestImageLeft.started,QuestImageLeft.stopped,QuestImageRight.started,QuestImageRight.stopped,respQuestLeft.keys,respQuestLeft.rt,respQuestLeft.started,respQuestLeft.stopped,respQuestRight.keys,respQuestRight.rt,respQuestRight.started,respQuestRight.stopped,RespInclusionLeft,RespInclusionRight,EndText.started,EndText.stopped,participant,session,date,expName,psychopyVersion,frameRate,
,,,,,,,,,,,,,,,,,,"['t', 'v']","[236.9436182962022, 237.6915415735873]",16.58308366042081,None,,,,,,,,,,,,,,,,,,,,,,,,,,,,,,,,,,,,,,,,,,,,,,,,,,,,,,,,,,,,,,,,,,,,,,,,,,,,,,,,,,,,,,,,,,,,,,,,,,,,,,,,,,,,,,,,,,,,,,69_70Exp,001,2021_May_25_1038,ComputerHuman,2020.1.3,59.982413641167064,
,,,,,,,,,,,,,,,,,,,,,,v,9.549048377307827,t,9.63601282089121,9.549048377307827,9.63601282089121,10,False,False,False,318.8435195604559,None,318.8435195604559,None,319.84334313205954,None,"['space', 'space']","[68.94244617009235, 77.80166593315221]",320.8264473864858,None,,,,,,,,,,,,,,,,,,,,,,,,,,,,,,,,,,,,,,,,,,,,,,,,,,,,,,,,,,,,,,,,,,,,,,,,,,,,,,,,,,,,,,,,,,,,,,,,,,69_70Exp,001,2021_May_25_1038,ComputerHuman,2020.1.3,59.982413641167064,
Human.xlsx,h,Sychronize.jpg,Number10.jpg,10,Human,,,,,0,0,0,0,0,0,0,8,,,,,,,,,,,,,,,,,,,,,,,,,398.71095030108313,None,398.71095030108313,None,401.75753830420877,None,401.75753830420877,None,402.2073226124746,None,402.2073226124746,None,v,11.571780374233413,402.2073226124746,None,t,9.634959703754248,402.2073226124746,None,11.571780374233413,9.634959703754248,9.703338397746698,False,False,False,413.8544055132911,None,413.8544055132911,None,413.8544055132911,None,413.8544055132911,None,413.8544055132911,None,413.8544055132911,None,413.8544055132911,None,413.8544055132911,None,414.8570054262959,None,414.8570054262959,None,415.8702519910746,None,415.8702519910746,None,h,,,,,,,,,,,,,,,,,,,,,,,,,,,,,,,,,,,,,,,,,,,,,,,69_70Exp,001,2021_May_25_1038,ComputerHuman,2020.1.3,59.982413641167064,
Human.xlsx,h,Sychronize.jpg,Number9.jpg,9,Human,,,,,0,0,0,0,0,1,1,6,,,,,,,,,,,,,,,,,,,,,,,,,,,,,416.92029189596997,None,416.92029189596997,None,417.3534345155533,None,417.3534345155533,None,v,11.044656272574912,417.3534345155533,None,t,8.819853134587447,417.3534345155533,None,11.044656272574912,8.819853134587447,8.614454085806452,False,False,False,428.4837980991924,None,428.4837980991924,None,428.4837980991924,None,428.4837980991924,None,428.4837980991924,None,428.4837980991924,None,428.4837980991924,None,428.4837980991924,None,429.4527608157023,None,429.4527608157023,None,430.44999890935173,None,430.44999890935173,None,h,,,,,,,,,,,,,,,,,,,,,,,,,,,,,,,,,,,,,,,,,,,,,,,69_70Exp,001,2021_May_25_1038,ComputerHuman,2020.1.3,59.982413641167064,
Human.xlsx,h,Sychronize.jpg,Number9.jpg,9,Human,,,,,0,0,0,0,0,2,2,7,,,,,,,,,,,,,,,,,,,,,,,,,,,,,431.5000619103282,None,431.5000619103282,None,431.95002072231705,None,431.95002072231705,None,v,10.443047951313474,431.95002072231705,None,t,9.177988664956729,431.95002072231705,None,10.443047951313474,9.177988664956729,8.977709498393995,False,False,False,442.4642793445332,None,442.4642793445332,None,442.4642793445332,None,442.4642793445332,None,442.4642793445332,None,442.4642793445332,None,442.4642793445332,None,442.4642793445332,None,443.4487818741957,None,443.4487818741957,None,444.4466082763522,None,444.4466082763522,None,h,,,,,,,,,,,,,,,,,,,,,,,,,,,,,,,,,,,,,,,,,,,,,,,69_70Exp,001,2021_May_25_1038,ComputerHuman,2020.1.3,59.982413641167064,
Human.xlsx,h,Sychronize.jpg,Number10.jpg,10,Human,,,,,0,0,0,0,0,3,3,9,,,,,,,,,,,,,,,,,,,,,,,,,,,,,445.51353943591675,None,445.51353943591675,None,445.9467914411057,None,445.9467914411057,None,v,10.189309914762589,445.9467914411057,None,t,9.496976658843778,445.9467914411057,None,10.189309914762589,9.496976658843778,9.674939609374574,False,False,False,456.2111793372194,None,456.2111793372194,None,456.2111793372194,None,456.2111793372194,None,456.2111793372194,None,456.2111793372194,None,456.2111793372194,None,456.2111793372194,None,457.2130376094017,None,457.2130376094017,None,458.2100094565619,None,458.2100094565619,None,h,,,,,,,,,,,,,,,,,,,,,,,,,,,,,,,,,,,,,,,,,,,,,,,69_70Exp,001,2021_May_25_1038,ComputerHuman,2020.1.3,59.982413641167064,
Human.xlsx,h,Sychronize.jpg,Number6.jpg,6,Human,,,,,0,0,0,0,0,4,4,1,,,,,,,,,,,,,,,,,,,,,,,,,,,,,459.2601763899029,None,459.2601763899029,None,459.71027249526196,None,459.71027249526196,None,v,5.813122872433951,459.71027249526196,None,t,6.000143388169363,459.71027249526196,None,5.813122872433951,6.000143388169363,6.016309567062822,True,False,False,465.8082159175624,None,465.8082159175624,None,465.8082159175624,None,465.8082159175624,None,465.8082159175624,None,465.8082159175624,None,465.8082159175624,None,465.8082159175624,None,466.7768690824312,None,466.7768690824312,None,467.7743070213369,None,467.7743070213369,None,h,,,,,,,,,,,,,,,,,,,,,,,,,,,,,,,,,,,,,,,,,,,,,,,69_70Exp,001,2021_May_25_1038,ComputerHuman,2020.1.3,59.982413641167064,
Human.xlsx,h,Sychronize.jpg,Number8.jpg,8,Human,,,,,0,0,0,0,0,5,5,5,,,,,,,,,,,,,,,,,,,,,,,,,,,,,468.8406120204836,None,468.8406120204836,None,469.2914148017651,None,469.2914148017651,None,v,9.60301108740191,469.2914148017651,None,t,7.838092622983595,469.2914148017651,None,9.60301108740191,7.838092622983595,7.703563614793164,False,False,False,478.9720903108091,None,478.9720903108091,None,478.9720903108091,None,478.9720903108091,None,478.9720903108091,None,478.9720903108091,None,478.9720903108091,None,478.9720903108091,None,479.9572536450107,None,479.9572536450107,None,480.9545222126558,None,480.9545222126558,None,h,,,,,,,,,,,,,,,,,,,,,,,,,,,,,,,,,,,,,,,,,,,,,,,69_70Exp,001,2021_May_25_1038,ComputerHuman,2020.1.3,59.982413641167064,
Human.xlsx,h,Sychronize.jpg,Number6.jpg,6,Human,,,,,0,0,0,0,0,6,6,0,,,,,,,,,,,,,,,,,,,,,,,,,,,,,482.0206241587573,None,482.0206241587573,None,482.45449879579587,None,482.45449879579587,None,v,6.61122078185349,482.45449879579587,None,t,5.994199996663838,482.45449879579587,None,6.61122078185349,5.994199996663838,6.26178300071235,False,False,False,489.1375868829657,None,489.1375868829657,None,489.1375868829657,None,489.1375868829657,None,489.1375868829657,None,489.1375868829657,None,489.1375868829657,None,489.1375868829657,None,490.1370883925513,None,490.1370883925513,None,491.13546364741,None,491.13546364741,None,h,,,,,,,,,,,,,,,,,,,,,,,,,,,,,,,,,,,,,,,,,,,,,,,69_70Exp,001,2021_May_25_1038,ComputerHuman,2020.1.3,59.982413641167064,
Human.xlsx,h,Sychronize.jpg,Number7.jpg,7,Human,,,,,0,0,0,0,0,7,7,3,,,,,,,,,,,,,,,,,,,,,,,,,,,,,492.18494058533156,None,492.18494058533156,None,492.6352198554441,None,492.6352198554441,None,v,6.909685341558998,492.6352198554441,None,t,6.745142124300628,492.6352198554441,None,6.909685341558998,6.745142124300628,6.888959703695441,True,False,False,499.6169300047602,None,499.6169300047602,None,499.6169300047602,None,499.6169300047602,None,499.6169300047602,None,499.6169300047602,None,499.6169300047602,None,499.6169300047602,None,500.6000923201682,None,500.6000923201682,None,501.61625444439164,None,501.61625444439164,None,h,,,,,,,,,,,,,,,,,,,,,,,,,,,,,,,,,,,,,,,,,,,,,,,69_70Exp,001,2021_May_25_1038,ComputerHuman,2020.1.3,59.982413641167064,
Human.xlsx,h,Sychronize.jpg,Number7.jpg,7,Human,,,,,0,0,0,0,0,8,8,2,,,,,,,,,,,,,,,,,,,,,,,,,,,,,502.666044462522,None,502.666044462522,None,503.1162326314263,None,503.1162326314263,None,v,6.9679375071373215,503.1162326314263,None,t,6.6591262239317075,503.1162326314263,None,6.9679375071373215,6.6591262239317075,7.048280247452614,False,False,False,510.1808108777409,None,510.1808108777409,None,510.1808108777409,None,510.1808108777409,None,510.1808108777409,None,510.1808108777409,None,510.1808108777409,None,510.1808108777409,None,511.1486027512565,None,511.1486027512565,None,512.1470684657659,None,512.1470684657659,None,h,,,,,,,,,,,,,,,,,,,,,,,,,,,,,,,,,,,,,,,,,,,,,,,69_70Exp,001,2021_May_25_1038,ComputerHuman,2020.1.3,59.982413641167064,
Human.xlsx,h,Sychronize.jpg,Number8.jpg,8,Human,,,,,0,0,0,0,0,9,9,4,,,,,,,,,,,,,,,,,,,,,,,,,,,,,513.2144984365236,None,513.2144984365236,None,513.6472346292373,None,513.6472346292373,None,v,8.064173423339525,513.6472346292373,None,t,7.291115515048887,513.6472346292373,None,8.064173423339525,7.291115515048887,8.151180519635407,False,False,False,521.7782821134967,None,521.7782821134967,None,521.7782821134967,None,521.7782821134967,None,521.7782821134967,None,521.7782821134967,None,521.7782821134967,None,521.7782821134967,None,522.7803293244524,None,522.7803293244524,None,523.7776071946857,None,523.7776071946857,None,h,,,,,,,,,,,,,,,,,,,,,,,,,,,,,,,,,,,,,,,,,,,,,,,69_70Exp,001,2021_May_25_1038,ComputerHuman,2020.1.3,59.982413641167064,
Human.xlsx,h,,,,,,,,,0,0,0,0,,,,,,,,,,,,,,,,,,,,,,,,,,,,,,,,,,,,,,,,,,,,,,,,,,,,,,,,,,,,,,,,,,,,,,,,,,,,,,,h,524.778689502703,None,524.778689502703,None,q,0,7.41192277440382,524.778689502703,None,o,1,11.146858997142544,524.778689502703,None,h,h,536.0242563382703,None,536.0242563382703,None,538.0075280392839,None,None,None,None,None,None,None,None,,,,,,,,,,,,,,,,,,69_70Exp,001,2021_May_25_1038,ComputerHuman,2020.1.3,59.982413641167064,
Computer.xlsx,c,Sychronize.jpg,Number6.jpg,6,Computer,,,,,0,1,1,3,0,0,0,1,,,,,,,,,,,,,,,,,,,,,,,,,543.0092307336984,None,543.0092307336984,None,546.0720770947182,None,546.0720770947182,None,546.5060300018092,None,546.5060300018092,None,v,5.355374907134319,546.5060300018092,None,t,5.590238954619963,546.5060300018092,None,5.355374907134319,5.590238954619963,6.268713535827211,False,False,False,552.2039663028179,None,552.2039663028179,None,552.2039663028179,None,552.2039663028179,None,552.2039663028179,None,552.2039663028179,None,552.2039663028179,None,552.2039663028179,None,553.2036965277607,None,553.2036965277607,None,554.1869663041009,None,554.1869663041009,None,c,,,,,,,,,,,,,,,,,,,,,,,,,,,,,,,,,,,,,,,,,,,,,,,69_70Exp,001,2021_May_25_1038,ComputerHuman,2020.1.3,59.982413641167064,
Computer.xlsx,c,Sychronize.jpg,Number7.jpg,7,Computer,,,,,0,1,1,3,0,1,1,3,,,,,,,,,,,,,,,,,,,,,,,,,,,,,555.2370283427406,None,555.2370283427406,None,555.6872309466955,None,555.6872309466955,None,v,6.813205312611899,555.6872309466955,None,t,6.648142433531575,555.6872309466955,None,6.813205312611899,6.648142433531575,7.068161152326583,False,True,False,562.584905363808,None,562.584905363808,None,562.584905363808,None,562.584905363808,None,562.584905363808,None,562.584905363808,None,562.584905363808,None,562.584905363808,None,563.5678081690837,None,563.5678081690837,None,564.5510987960527,None,564.5510987960527,None,c,,,,,,,,,,,,,,,,,,,,,,,,,,,,,,,,,,,,,,,,,,,,,,,69_70Exp,001,2021_May_25_1038,ComputerHuman,2020.1.3,59.982413641167064,
Computer.xlsx,c,Sychronize.jpg,Number9.jpg,9,Computer,,,,,0,1,1,3,0,2,2,6,,,,,,,,,,,,,,,,,,,,,,,,,,,,,565.6016063965878,None,565.6016063965878,None,566.051150120677,None,566.051150120677,None,v,8.412430567406773,566.051150120677,None,t,8.440088765937844,566.051150120677,None,8.412430567406773,8.440088765937844,8.986627138182765,False,False,False,574.5668233778531,None,574.5668233778531,None,574.5668233778531,None,574.5668233778531,None,574.5668233778531,None,574.5668233778531,None,574.5668233778531,None,574.5668233778531,None,575.5818313395855,None,575.5818313395855,None,576.5482214092972,None,576.5482214092972,None,c,,,,,,,,,,,,,,,,,,,,,,,,,,,,,,,,,,,,,,,,,,,,,,,69_70Exp,001,2021_May_25_1038,ComputerHuman,2020.1.3,59.982413641167064,
Computer.xlsx,c,Sychronize.jpg,Number9.jpg,9,Computer,,,,,0,1,1,3,0,3,3,7,,,,,,,,,,,,,,,,,,,,,,,,,,,,,577.5979678014969,None,577.5979678014969,None,578.048313793621,None,578.048313793621,None,v,8.93846626624918,578.048313793621,None,t,8.294053849796,578.048313793621,None,8.93846626624918,8.294053849796,9.48181971070694,False,False,False,587.063026959542,None,587.063026959542,None,587.063026959542,None,587.063026959542,None,587.063026959542,None,587.063026959542,None,587.063026959542,None,587.063026959542,None,588.0785738298307,None,588.0785738298307,None,589.0619234801175,None,589.0619234801175,None,c,,,,,,,,,,,,,,,,,,,,,,,,,,,,,,,,,,,,,,,,,,,,,,,69_70Exp,001,2021_May_25_1038,ComputerHuman,2020.1.3,59.982413641167064,
Computer.xlsx,c,Sychronize.jpg,Number10.jpg,10,Computer,,,,,0,1,1,3,0,4,4,9,,,,,,,,,,,,,,,,,,,,,,,,,,,,,590.1116438892261,None,590.1116438892261,None,590.5617929231041,None,590.5617929231041,None,v,10.519870969894328,590.5617929231041,None,t,9.342876077977508,590.5617929231041,None,10.519870969894328,9.342876077977508,9.767307449539112,False,False,False,601.1596548675632,None,601.1596548675632,None,601.1596548675632,None,601.1596548675632,None,601.1596548675632,None,601.1596548675632,None,601.1596548675632,None,601.1596548675632,None,602.1751879443589,None,602.1751879443589,None,603.1584824206745,None,603.1584824206745,None,c,,,,,,,,,,,,,,,,,,,,,,,,,,,,,,,,,,,,,,,,,,,,,,,69_70Exp,001,2021_May_25_1038,ComputerHuman,2020.1.3,59.982413641167064,
Computer.xlsx,c,Sychronize.jpg,Number8.jpg,8,Computer,,,,,0,1,1,3,0,5,5,5,,,,,,,,,,,,,,,,,,,,,,,,,,,,,604.2086634682871,None,604.2086634682871,None,604.6586787373628,None,604.6586787373628,None,v,7.10616241934008,604.6586787373628,None,t,7.70517660161704,604.6586787373628,None,7.10616241934008,7.70517660161704,7.52733959322927,False,False,True,612.440157412623,None,612.440157412623,None,612.440157412623,None,612.440157412623,None,612.440157412623,None,612.440157412623,None,612.440157412623,None,612.440157412623,None,613.4393525783566,None,613.4393525783566,None,614.4224318120287,None,614.4224318120287,None,c,,,,,,,,,,,,,,,,,,,,,,,,,,,,,,,,,,,,,,,,,,,,,,,69_70Exp,001,2021_May_25_1038,ComputerHuman,2020.1.3,59.982413641167064,
Computer.xlsx,c,Sychronize.jpg,Number8.jpg,8,Computer,,,,,0,1,1,3,0,6,6,4,,,,,,,,,,,,,,,,,,,,,,,,,,,,,615.4722035457617,None,615.4722035457617,None,615.9225004587138,None,615.9225004587138,None,v,8.301405139904546,615.9225004587138,None,t,6.869191175243941,615.9225004587138,None,8.301405139904546,6.869191175243941,7.663470782076778,False,False,False,624.3200686980097,None,624.3200686980097,None,624.3200686980097,None,624.3200686980097,None,624.3200686980097,None,624.3200686980097,None,624.3200686980097,None,624.3200686980097,None,625.3197511268963,None,625.3197511268963,None,626.2859596357491,None,626.2859596357491,None,c,,,,,,,,,,,,,,,,,,,,,,,,,,,,,,,,,,,,,,,,,,,,,,,69_70Exp,001,2021_May_25_1038,ComputerHuman,2020.1.3,59.982413641167064,
Computer.xlsx,c,Sychronize.jpg,Number10.jpg,10,Computer,,,,,0,1,1,3,0,7,7,8,,,,,,,,,,,,,,,,,,,,,,,,,,,,,627.3371132849941,None,627.3371132849941,None,627.7860898719834,None,627.7860898719834,None,v,9.72892546766343,627.7860898719834,None,t,9.004156653018526,627.7860898719834,None,9.72892546766343,9.004156653018526,9.893683707498967,False,True,False,637.5848562846361,None,637.5848562846361,None,637.5848562846361,None,637.5848562846361,None,637.5848562846361,None,637.5848562846361,None,637.5848562846361,None,637.5848562846361,None,638.5999300060435,None,638.5999300060435,None,639.5830701877069,None,639.5830701877069,None,c,,,,,,,,,,,,,,,,,,,,,,,,,,,,,,,,,,,,,,,,,,,,,,,69_70Exp,001,2021_May_25_1038,ComputerHuman,2020.1.3,59.982413641167064,
Computer.xlsx,c,Sychronize.jpg,Number6.jpg,6,Computer,,,,,0,1,1,3,0,8,8,0,,,,,,,,,,,,,,,,,,,,,,,,,,,,,640.6332095340622,None,640.6332095340622,None,641.0830519033095,None,641.0830519033095,None,v,6.079261900576512,641.0830519033095,None,t,5.174274045265747,641.0830519033095,None,6.079261900576512,5.174274045265747,5.8930166845044125,False,True,False,647.2313117419192,None,647.2313117419192,None,647.2313117419192,None,647.2313117419192,None,647.2313117419192,None,647.2313117419192,None,647.2313117419192,None,647.2313117419192,None,648.2309380344977,None,648.2309380344977,None,649.2140230421901,None,649.2140230421901,None,c,,,,,,,,,,,,,,,,,,,,,,,,,,,,,,,,,,,,,,,,,,,,,,,69_70Exp,001,2021_May_25_1038,ComputerHuman,2020.1.3,59.982413641167064,
Computer.xlsx,c,Sychronize.jpg,Number7.jpg,7,Computer,,,,,0,1,1,3,0,9,9,2,,,,,,,,,,,,,,,,,,,,,,,,,,,,,650.280827494088,None,650.280827494088,None,650.7139293747505,None,650.7139293747505,None,v,6.095687384279017,650.7139293747505,None,t,6.451115540711271,650.7139293747505,None,6.095687384279017,6.451115540711271,7.396846784848791,False,False,False,657.2469445809536,None,657.2469445809536,None,657.2469445809536,None,657.2469445809536,None,657.2469445809536,None,657.2469445809536,None,657.2469445809536,None,657.2469445809536,None,658.261856950573,None,658.261856950573,None,659.24502247377,None,659.24502247377,None,c,,,,,,,,,,,,,,,,,,,,,,,,,,,,,,,,,,,,,,,,,,,,,,,69_70Exp,001,2021_May_25_1038,ComputerHuman,2020.1.3,59.982413641167064,
Computer.xlsx,c,,,,,,,,,0,1,1,3,,,,,,,,,,,,,,,,,,,,,,,,,,,,,,,,,,,,,,,,,,,,,,,,,,,,,,,,,,,,,,,,,,,,,,,,,,,,,,,c,660.2459819234673,None,660.2459819234673,None,a,1,9.15071604266609,660.2459819234673,None,l,0,8.730012587364172,660.2459819234673,None,c,c,669.5097433383844,None,669.5097433383844,None,671.4919744326382,None,None,None,None,None,None,None,None,,,,,,,,,,,,,,,,,,69_70Exp,001,2021_May_25_1038,ComputerHuman,2020.1.3,59.982413641167064,
Computer.xlsx,c,Sychronize.jpg,Number10.jpg,10,Computer,,,,,0,2,2,5,0,0,0,8,,,,,,,,,,,,,,,,,,,,,,,,,676.4937589256729,None,676.4937589256729,None,679.5734339894759,None,679.5734339894759,None,679.9902188097049,None,679.9902188097049,None,v,10.132993649860737,679.9902188097049,None,t,9.131937324935052,679.9902188097049,None,10.132993649860737,9.131937324935052,10.16713924563331,False,True,False,690.220918826257,None,690.220918826257,None,690.220918826257,None,690.220918826257,None,690.220918826257,None,690.220918826257,None,690.220918826257,None,690.220918826257,None,691.2371139907077,None,691.2371139907077,None,692.2203452735794,None,692.2203452735794,None,c,,,,,,,,,,,,,,,,,,,,,,,,,,,,,,,,,,,,,,,,,,,,,,,69_70Exp,001,2021_May_25_1038,ComputerHuman,2020.1.3,59.982413641167064,
Computer.xlsx,c,Sychronize.jpg,Number9.jpg,9,Computer,,,,,0,2,2,5,0,1,1,7,,,,,,,,,,,,,,,,,,,,,,,,,,,,,693.2706135730534,None,693.2706135730534,None,693.7038395951513,None,693.7038395951513,None,v,7.81456541515854,693.7038395951513,None,t,8.070212086179254,693.7038395951513,None,7.81456541515854,8.070212086179254,8.716914378588234,False,False,False,701.8524943125901,None,701.8524943125901,None,701.8524943125901,None,701.8524943125901,None,701.8524943125901,None,701.8524943125901,None,701.8524943125901,None,701.8524943125901,None,702.8677114221668,None,702.8677114221668,None,703.8509058154648,None,703.8509058154648,None,c,,,,,,,,,,,,,,,,,,,,,,,,,,,,,,,,,,,,,,,,,,,,,,,69_70Exp,001,2021_May_25_1038,ComputerHuman,2020.1.3,59.982413641167064,
Computer.xlsx,c,Sychronize.jpg,Number8.jpg,8,Computer,,,,,0,2,2,5,0,2,2,4,,,,,,,,,,,,,,,,,,,,,,,,,,,,,704.9006342440459,None,704.9006342440459,None,705.3510123140604,None,705.3510123140604,None,v,7.678551631930532,705.3510123140604,None,t,7.17009461694488,705.3510123140604,None,7.678551631930532,7.17009461694488,8.2654124784134,False,False,False,713.0991957431356,None,713.0991957431356,None,713.0991957431356,None,713.0991957431356,None,713.0991957431356,None,713.0991957431356,None,713.0991957431356,None,713.0991957431356,None,714.09819779997,None,714.09819779997,None,715.0815346191007,None,715.0815346191007,None,c,,,,,,,,,,,,,,,,,,,,,,,,,,,,,,,,,,,,,,,,,,,,,,,69_70Exp,001,2021_May_25_1038,ComputerHuman,2020.1.3,59.982413641167064,
Computer.xlsx,c,Sychronize.jpg,Number7.jpg,7,Computer,,,,,0,2,2,5,0,3,3,3,,,,,,,,,,,,,,,,,,,,,,,,,,,,,716.131782388725,None,716.131782388725,None,716.5814630854054,None,716.5814630854054,None,v,5.771470373502098,716.5814630854054,None,t,6.131209798384134,716.5814630854054,None,5.771470373502098,6.131209798384134,7.410378916401304,False,False,False,722.7810979107028,None,722.7810979107028,None,722.7810979107028,None,722.7810979107028,None,722.7810979107028,None,722.7810979107028,None,722.7810979107028,None,722.7810979107028,None,723.7960696244193,None,723.7960696244193,None,724.779235147616,None,724.779235147616,None,c,,,,,,,,,,,,,,,,,,,,,,,,,,,,,,,,,,,,,,,,,,,,,,,69_70Exp,001,2021_May_25_1038,ComputerHuman,2020.1.3,59.982413641167064,
Computer.xlsx,c,Sychronize.jpg,Number6.jpg,6,Computer,,,,,0,2,2,5,0,4,4,1,,,,,,,,,,,,,,,,,,,,,,,,,,,,,725.8299198181055,None,725.8299198181055,None,726.2790336984651,None,726.2790336984651,None,v,5.225112048070514,726.2790336984651,None,t,5.452225756492908,726.2790336984651,None,5.225112048070514,5.452225756492908,5.721518696064448,False,False,True,731.8275005036228,None,731.8275005036228,None,731.8275005036228,None,731.8275005036228,None,731.8275005036228,None,731.8275005036228,None,731.8275005036228,None,731.8275005036228,None,732.8105640191286,None,732.8105640191286,None,733.793615665815,None,733.793615665815,None,c,,,,,,,,,,,,,,,,,,,,,,,,,,,,,,,,,,,,,,,,,,,,,,,69_70Exp,001,2021_May_25_1038,ComputerHuman,2020.1.3,59.982413641167064,
Computer.xlsx,c,Sychronize.jpg,Number6.jpg,6,Computer,,,,,0,2,2,5,0,5,5,0,,,,,,,,,,,,,,,,,,,,,,,,,,,,,734.8605198799517,None,734.8605198799517,None,735.3101941610541,None,735.3101941610541,None,v,5.917339446951473,735.3101941610541,None,t,6.052199067688207,735.3101941610541,None,5.917339446951473,6.052199067688207,5.667508881136319,False,True,False,741.4584998710468,None,741.4584998710468,None,741.4584998710468,None,741.4584998710468,None,741.4584998710468,None,741.4584998710468,None,741.4584998710468,None,741.4584998710468,None,742.4583000257905,None,742.4583000257905,None,743.4246949071858,None,743.4246949071858,None,c,,,,,,,,,,,,,,,,,,,,,,,,,,,,,,,,,,,,,,,,,,,,,,,69_70Exp,001,2021_May_25_1038,ComputerHuman,2020.1.3,59.982413641167064,
Computer.xlsx,c,Sychronize.jpg,Number9.jpg,9,Computer,,,,,0,2,2,5,0,6,6,6,,,,,,,,,,,,,,,,,,,,,,,,,,,,,744.4916985627822,None,744.4916985627822,None,744.9242878387586,None,744.9242878387586,None,v,8.14247074175637,744.9242878387586,None,t,8.114155588032645,744.9242878387586,None,8.14247074175637,8.114155588032645,8.595346612978252,False,False,False,753.155691323444,None,753.155691323444,None,753.155691323444,None,753.155691323444,None,753.155691323444,None,753.155691323444,None,753.155691323444,None,753.155691323444,None,754.1554218691658,None,754.1554218691658,None,755.138599261182,None,755.138599261182,None,c,,,,,,,,,,,,,,,,,,,,,,,,,,,,,,,,,,,,,,,,,,,,,,,69_70Exp,001,2021_May_25_1038,ComputerHuman,2020.1.3,59.982413641167064,
Computer.xlsx,c,Sychronize.jpg,Number8.jpg,8,Computer,,,,,0,2,2,5,0,7,7,5,,,,,,,,,,,,,,,,,,,,,,,,,,,,,756.1892864979027,None,756.1892864979027,None,756.6386024689709,None,756.6386024689709,None,v,7.575321131759438,756.6386024689709,None,t,7.227153164227275,756.6386024689709,None,7.575321131759438,7.227153164227275,8.151875396303387,False,False,False,764.2871506878141,None,764.2871506878141,None,764.2871506878141,None,764.2871506878141,None,764.2871506878141,None,764.2871506878141,None,764.2871506878141,None,764.2871506878141,None,765.2860863434155,None,765.2860863434155,None,766.2691537082683,None,766.2691537082683,None,c,,,,,,,,,,,,,,,,,,,,,,,,,,,,,,,,,,,,,,,,,,,,,,,69_70Exp,001,2021_May_25_1038,ComputerHuman,2020.1.3,59.982413641167064,
Computer.xlsx,c,Sychronize.jpg,Number10.jpg,10,Computer,,,,,0,2,2,5,0,8,8,9,,,,,,,,,,,,,,,,,,,,,,,,,,,,,767.3363735688449,None,767.3363735688449,None,767.7861617264577,None,767.7861617264577,None,v,9.926776120705199,767.7861617264577,None,t,8.921999402067968,767.7861617264577,None,9.926776120705199,8.921999402067968,9.79818069895312,False,True,False,777.7833610058599,None,777.7833610058599,None,777.7833610058599,None,777.7833610058599,None,777.7833610058599,None,777.7833610058599,None,777.7833610058599,None,777.7833610058599,None,778.7828503258472,None,778.7828503258472,None,779.7659346919816,None,779.7659346919816,None,c,,,,,,,,,,,,,,,,,,,,,,,,,,,,,,,,,,,,,,,,,,,,,,,69_70Exp,001,2021_May_25_1038,ComputerHuman,2020.1.3,59.982413641167064,
Computer.xlsx,c,Sychronize.jpg,Number7.jpg,7,Computer,,,,,0,2,2,5,0,9,9,2,,,,,,,,,,,,,,,,,,,,,,,,,,,,,780.8328956839839,None,780.8328956839839,None,781.265759225922,None,781.265759225922,None,v,6.006468827347817,781.265759225922,None,t,6.094204102633739,781.265759225922,None,6.006468827347817,6.094204102633739,7.130881337213943,False,False,False,787.4325434045932,None,787.4325434045932,None,787.4325434045932,None,787.4325434045932,None,787.4325434045932,None,787.4325434045932,None,787.4325434045932,None,787.4325434045932,None,788.447138844657,None,788.447138844657,None,789.4303441444376,None,789.4303441444376,None,c,,,,,,,,,,,,,,,,,,,,,,,,,,,,,,,,,,,,,,,,,,,,,,,69_70Exp,001,2021_May_25_1038,ComputerHuman,2020.1.3,59.982413641167064,
Computer.xlsx,c,,,,,,,,,0,2,2,5,,,,,,,,,,,,,,,,,,,,,,,,,,,,,,,,,,,,,,,,,,,,,,,,,,,,,,,,,,,,,,,,,,,,,,,,,,,,,,,c,790.4312205123992,None,790.4312205123992,None,q,0,5.408409924642456,790.4312205123992,None,l,0,3.6153674907261575,790.4312205123992,None,h,c,795.9123930362748,None,795.9123930362748,None,797.9115728046213,None,None,None,None,None,None,None,None,,,,,,,,,,,,,,,,,,69_70Exp,001,2021_May_25_1038,ComputerHuman,2020.1.3,59.982413641167064,
Computer.xlsx,c,Sychronize.jpg,Number9.jpg,9,Computer,,,,,0,3,3,9,0,0,0,7,,,,,,,,,,,,,,,,,,,,,,,,,802.9299261695278,None,802.9299261695278,None,805.9933390260896,None,805.9933390260896,None,806.443240418655,None,806.443240418655,None,v,9.194944396185065,806.443240418655,None,t,8.046035621855708,806.443240418655,None,9.194944396185065,8.046035621855708,8.818981020643312,False,False,False,815.7082429271459,None,815.7082429271459,None,815.7082429271459,None,815.7082429271459,None,815.7082429271459,None,815.7082429271459,None,815.7082429271459,None,815.7082429271459,None,816.7234019757414,None,816.7234019757414,None,817.7234395068729,None,817.7234395068729,None,c,,,,,,,,,,,,,,,,,,,,,,,,,,,,,,,,,,,,,,,,,,,,,,,69_70Exp,001,2021_May_25_1038,ComputerHuman,2020.1.3,59.982413641167064,
Computer.xlsx,c,Sychronize.jpg,Number8.jpg,8,Computer,,,,,0,3,3,9,0,1,1,5,,,,,,,,,,,,,,,,,,,,,,,,,,,,,818.7734274455863,None,818.7734274455863,None,819.2234215432545,None,819.2234215432545,None,v,8.953879371735411,819.2234215432545,None,t,7.053168140752632,819.2234215432545,None,8.953879371735411,7.053168140752632,8.471092044089211,False,False,False,828.271059776507,None,828.271059776507,None,828.271059776507,None,828.271059776507,None,828.271059776507,None,828.271059776507,None,828.271059776507,None,828.271059776507,None,829.2539818285168,None,829.2539818285168,None,830.237126180306,None,830.237126180306,None,c,,,,,,,,,,,,,,,,,,,,,,,,,,,,,,,,,,,,,,,,,,,,,,,69_70Exp,001,2021_May_25_1038,ComputerHuman,2020.1.3,59.982413641167064,
Computer.xlsx,c,Sychronize.jpg,Number8.jpg,8,Computer,,,,,0,3,3,9,0,2,2,4,,,,,,,,,,,,,,,,,,,,,,,,,,,,,831.2872716214604,None,831.2872716214604,None,831.7372320373438,None,831.7372320373438,None,v,8.679187094936424,831.7372320373438,None,t,7.414098938478446,831.7372320373438,None,8.679187094936424,7.414098938478446,8.38381201097183,False,True,False,840.4848842565564,None,840.4848842565564,None,840.4848842565564,None,840.4848842565564,None,840.4848842565564,None,840.4848842565564,None,840.4848842565564,None,840.4848842565564,None,841.5009164653245,None,841.5009164653245,None,842.4842292260375,None,842.4842292260375,None,c,,,,,,,,,,,,,,,,,,,,,,,,,,,,,,,,,,,,,,,,,,,,,,,69_70Exp,001,2021_May_25_1038,ComputerHuman,2020.1.3,59.982413641167064,
Computer.xlsx,c,Sychronize.jpg,Number7.jpg,7,Computer,,,,,0,3,3,9,0,3,3,2,,,,,,,,,,,,,,,,,,,,,,,,,,,,,843.5178901601712,None,843.5178901601712,None,843.967336688253,None,843.967336688253,None,v,6.028369686137012,843.967336688253,None,t,6.075189612409304,843.967336688253,None,6.028369686137012,6.075189612409304,6.4944402995508925,False,False,False,850.1001644954213,None,850.1001644954213,None,850.1001644954213,None,850.1001644954213,None,850.1001644954213,None,850.1001644954213,None,850.1001644954213,None,850.1001644954213,None,851.1323075037883,None,851.1323075037883,None,852.1152645206985,None,852.1152645206985,None,c,,,,,,,,,,,,,,,,,,,,,,,,,,,,,,,,,,,,,,,,,,,,,,,69_70Exp,001,2021_May_25_1038,ComputerHuman,2020.1.3,59.982413641167064,
Computer.xlsx,c,Sychronize.jpg,Number9.jpg,9,Computer,,,,,0,3,3,9,0,4,4,6,,,,,,,,,,,,,,,,,,,,,,,,,,,,,853.1650561427234,None,853.1650561427234,None,853.615157701324,None,853.615157701324,None,v,8.039721730717702,853.615157701324,None,t,7.878947024005811,853.615157701324,None,8.039721730717702,7.878947024005811,9.247909822875961,False,False,False,861.7312273770679,None,861.7312273770679,None,861.7312273770679,None,861.7312273770679,None,861.7312273770679,None,861.7312273770679,None,861.7312273770679,None,861.7312273770679,None,862.7292885893812,None,862.7292885893812,None,863.7124332619494,None,863.7124332619494,None,c,,,,,,,,,,,,,,,,,,,,,,,,,,,,,,,,,,,,,,,,,,,,,,,69_70Exp,001,2021_May_25_1038,ComputerHuman,2020.1.3,59.982413641167064,
Computer.xlsx,c,Sychronize.jpg,Number10.jpg,10,Computer,,,,,0,3,3,9,0,5,5,8,,,,,,,,,,,,,,,,,,,,,,,,,,,,,864.7792537527923,None,864.7792537527923,None,865.2124464138842,None,865.2124464138842,None,v,9.161533990373982,865.2124464138842,None,t,8.984924674698277,865.2124464138842,None,9.161533990373982,8.984924674698277,9.862804848953463,False,False,False,874.4436131637397,None,874.4436131637397,None,874.4436131637397,None,874.4436131637397,None,874.4436131637397,None,874.4436131637397,None,874.4436131637397,None,874.4436131637397,None,875.4594625285333,None,875.4594625285333,None,876.4427675905526,None,876.4427675905526,None,c,,,,,,,,,,,,,,,,,,,,,,,,,,,,,,,,,,,,,,,,,,,,,,,69_70Exp,001,2021_May_25_1038,ComputerHuman,2020.1.3,59.982413641167064,
Computer.xlsx,c,Sychronize.jpg,Number6.jpg,6,Computer,,,,,0,3,3,9,0,6,6,1,,,,,,,,,,,,,,,,,,,,,,,,,,,,,877.4923029102345,None,877.4923029102345,None,877.9261358460158,None,877.9261358460158,None,v,6.05906534009614,877.9261358460158,None,t,5.626231309817058,877.9261358460158,None,6.05906534009614,5.626231309817058,5.77691171099334,False,True,True,884.0411283462051,None,884.0411283462051,None,884.0411283462051,None,884.0411283462051,None,884.0411283462051,None,884.0411283462051,None,884.0411283462051,None,884.0411283462051,None,885.0738721734567,None,885.0738721734567,None,886.0571114758011,None,886.0571114758011,None,c,,,,,,,,,,,,,,,,,,,,,,,,,,,,,,,,,,,,,,,,,,,,,,,69_70Exp,001,2021_May_25_1038,ComputerHuman,2020.1.3,59.982413641167064,
Computer.xlsx,c,Sychronize.jpg,Number7.jpg,7,Computer,,,,,0,3,3,9,0,7,7,3,,,,,,,,,,,,,,,,,,,,,,,,,,,,,887.1075096907307,None,887.1075096907307,None,887.5572984899011,None,887.5572984899011,None,v,5.687301518054028,887.5572984899011,None,t,6.022222600028499,887.5572984899011,None,5.687301518054028,6.022222600028499,6.882410827870255,False,False,False,893.6566850964839,None,893.6566850964839,None,893.6566850964839,None,893.6566850964839,None,893.6566850964839,None,893.6566850964839,None,893.6566850964839,None,893.6566850964839,None,894.6716295439935,None,894.6716295439935,None,895.6381463213716,None,895.6381463213716,None,c,,,,,,,,,,,,,,,,,,,,,,,,,,,,,,,,,,,,,,,,,,,,,,,69_70Exp,001,2021_May_25_1038,ComputerHuman,2020.1.3,59.982413641167064,
Computer.xlsx,c,Sychronize.jpg,Number10.jpg,10,Computer,,,,,0,3,3,9,0,8,8,9,,,,,,,,,,,,,,,,,,,,,,,,,,,,,896.6879289615874,None,896.6879289615874,None,897.137862432043,None,897.137862432043,None,v,10.057709407675475,897.137862432043,None,t,8.996996867914731,897.137862432043,None,10.057709407675475,8.996996867914731,10.37179957038512,False,False,False,907.285262583194,None,907.285262583194,None,907.285262583194,None,907.285262583194,None,907.285262583194,None,907.285262583194,None,907.285262583194,None,907.285262583194,None,908.284923840673,None,908.284923840673,None,909.2681483871877,None,909.2681483871877,None,c,,,,,,,,,,,,,,,,,,,,,,,,,,,,,,,,,,,,,,,,,,,,,,,69_70Exp,001,2021_May_25_1038,ComputerHuman,2020.1.3,59.982413641167064,
Computer.xlsx,c,Sychronize.jpg,Number6.jpg,6,Computer,,,,,0,3,3,9,0,9,9,0,,,,,,,,,,,,,,,,,,,,,,,,,,,,,910.3190691509494,None,910.3190691509494,None,910.7513812739542,None,910.7513812739542,None,v,5.575558828925978,910.7513812739542,None,t,5.223261474582159,910.7513812739542,None,5.575558828925978,5.223261474582159,6.410287720703618,False,False,False,916.3998229942015,None,916.3998229942015,None,916.3998229942015,None,916.3998229942015,None,916.3998229942015,None,916.3998229942015,None,916.3998229942015,None,916.3998229942015,None,917.399190097427,None,917.399190097427,None,918.3992921051179,None,918.3992921051179,None,c,,,,,,,,,,,,,,,,,,,,,,,,,,,,,,,,,,,,,,,,,,,,,,,69_70Exp,001,2021_May_25_1038,ComputerHuman,2020.1.3,59.982413641167064,
Computer.xlsx,c,,,,,,,,,0,3,3,9,,,,,,,,,,,,,,,,,,,,,,,,,,,,,,,,,,,,,,,,,,,,,,,,,,,,,,,,,,,,,,,,,,,,,,,,,,,,,,,c,919.399877205836,None,919.399877205836,None,q,0,6.1744180749931274,919.399877205836,None,o,0,2.4094271145424955,919.399877205836,None,h,h,925.64766639764,None,925.64766639764,None,927.647045048906,None,None,None,None,None,None,None,None,,,,,,,,,,,,,,,,,,69_70Exp,001,2021_May_25_1038,ComputerHuman,2020.1.3,59.982413641167064,
Human.xlsx,h,Sychronize.jpg,Number9.jpg,9,Human,,,,,0,4,4,6,0,0,0,7,,,,,,,,,,,,,,,,,,,,,,,,,932.6482399503177,None,932.6482399503177,None,935.7452136579957,None,935.7452136579957,None,936.1789404159604,None,936.1789404159604,None,v,8.873915606920036,936.1789404159604,None,t,7.633014179710472,936.1789404159604,None,8.873915606920036,7.633014179710472,9.001131929082268,False,False,False,945.142872677721,None,945.142872677721,None,945.142872677721,None,945.142872677721,None,945.142872677721,None,945.142872677721,None,945.142872677721,None,945.142872677721,None,946.1275497111064,None,946.1275497111064,None,947.1256667389489,None,947.1256667389489,None,h,,,,,,,,,,,,,,,,,,,,,,,,,,,,,,,,,,,,,,,,,,,,,,,69_70Exp,001,2021_May_25_1038,ComputerHuman,2020.1.3,59.982413641167064,
Human.xlsx,h,Sychronize.jpg,Number6.jpg,6,Human,,,,,0,4,4,6,0,1,1,1,,,,,,,,,,,,,,,,,,,,,,,,,,,,,948.1930951058121,None,948.1930951058121,None,948.6256532662348,None,948.6256532662348,None,v,7.354469027513915,948.6256532662348,None,t,5.1262127046409205,948.6256532662348,None,7.354469027513915,5.1262127046409205,6.234007301617753,False,False,False,956.0570919082879,None,956.0570919082879,None,956.0570919082879,None,956.0570919082879,None,956.0570919082879,None,956.0570919082879,None,956.0570919082879,None,956.0570919082879,None,957.0590403193419,None,957.0590403193419,None,958.0564590115134,None,958.0564590115134,None,h,,,,,,,,,,,,,,,,,,,,,,,,,,,,,,,,,,,,,,,,,,,,,,,69_70Exp,001,2021_May_25_1038,ComputerHuman,2020.1.3,59.982413641167064,
Human.xlsx,h,Sychronize.jpg,Number8.jpg,8,Human,,,,,0,4,4,6,0,2,2,4,,,,,,,,,,,,,,,,,,,,,,,,,,,,,959.1064046074114,None,959.1064046074114,None,959.5563807414612,None,959.5563807414612,None,v,8.194878636510111,959.5563807414612,None,t,7.182097521918649,959.5563807414612,None,8.194878636510111,7.182097521918649,7.539257968305413,False,False,False,967.8214451602803,None,967.8214451602803,None,967.8214451602803,None,967.8214451602803,None,967.8214451602803,None,967.8214451602803,None,967.8214451602803,None,967.8214451602803,None,968.8232498623859,None,968.8232498623859,None,969.8201822537412,None,969.8201822537412,None,h,,,,,,,,,,,,,,,,,,,,,,,,,,,,,,,,,,,,,,,,,,,,,,,69_70Exp,001,2021_May_25_1038,ComputerHuman,2020.1.3,59.982413641167064,
Human.xlsx,h,Sychronize.jpg,Number8.jpg,8,Human,,,,,0,4,4,6,0,3,3,5,,,,,,,,,,,,,,,,,,,,,,,,,,,,,970.8702776533869,None,970.8702776533869,None,971.3203968548269,None,971.3203968548269,None,v,7.578039091400115,971.3203968548269,None,t,7.241096460782273,971.3203968548269,None,7.578039091400115,7.241096460782273,7.939342734199497,False,False,False,978.984664843787,None,978.984664843787,None,978.984664843787,None,978.984664843787,None,978.984664843787,None,978.984664843787,None,978.984664843787,None,978.984664843787,None,979.9531951503361,None,979.9531951503361,None,980.9508156124375,None,980.9508156124375,None,h,,,,,,,,,,,,,,,,,,,,,,,,,,,,,,,,,,,,,,,,,,,,,,,69_70Exp,001,2021_May_25_1038,ComputerHuman,2020.1.3,59.982413641167064,
Human.xlsx,h,Sychronize.jpg,Number6.jpg,6,Human,,,,,0,4,4,6,0,4,4,0,,,,,,,,,,,,,,,,,,,,,,,,,,,,,982.0006826175045,None,982.0006826175045,None,982.4510619706346,None,982.4510619706346,None,v,5.662704191810462,982.4510619706346,None,t,5.354080243484077,982.4510619706346,None,5.662704191810462,5.354080243484077,6.016470958449832,False,False,False,988.1829414912113,None,988.1829414912113,None,988.1829414912113,None,988.1829414912113,None,988.1829414912113,None,988.1829414912113,None,988.1829414912113,None,988.1829414912113,None,989.1844517182842,None,989.1844517182842,None,990.182020855761,None,990.182020855761,None,h,,,,,,,,,,,,,,,,,,,,,,,,,,,,,,,,,,,,,,,,,,,,,,,69_70Exp,001,2021_May_25_1038,ComputerHuman,2020.1.3,59.982413641167064,
Human.xlsx,h,Sychronize.jpg,Number10.jpg,10,Human,,,,,0,4,4,6,0,5,5,9,,,,,,,,,,,,,,,,,,,,,,,,,,,,,991.2320370230177,None,991.2320370230177,None,991.6820343284751,None,991.6820343284751,None,v,9.62678433264523,991.6820343284751,None,t,8.58199878617279,991.6820343284751,None,9.62678433264523,8.58199878617279,9.649954538520975,False,False,False,1001.3811049036829,None,1001.3811049036829,None,1001.3811049036829,None,1001.3811049036829,None,1001.3811049036829,None,1001.3811049036829,None,1001.3811049036829,None,1001.3811049036829,None,1002.3812158931833,None,1002.3812158931833,None,1003.3788116553089,None,1003.3788116553089,None,h,,,,,,,,,,,,,,,,,,,,,,,,,,,,,,,,,,,,,,,,,,,,,,,69_70Exp,001,2021_May_25_1038,ComputerHuman,2020.1.3,59.982413641167064,
Human.xlsx,h,Sychronize.jpg,Number9.jpg,9,Human,,,,,0,4,4,6,0,6,6,6,,,,,,,,,,,,,,,,,,,,,,,,,,,,,1004.4287707239209,None,1004.4287707239209,None,1004.8789309850606,None,1004.8789309850606,None,v,9.512895311880584,1004.8789309850606,None,t,7.700040610608994,1004.8789309850606,None,9.512895311880584,7.700040610608994,8.901886183998402,False,False,False,1014.4429340748031,None,1014.4429340748031,None,1014.4429340748031,None,1014.4429340748031,None,1014.4429340748031,None,1014.4429340748031,None,1014.4429340748031,None,1014.4429340748031,None,1015.4444953057216,None,1015.4444953057216,None,1016.4421866599603,None,1016.4421866599603,None,h,,,,,,,,,,,,,,,,,,,,,,,,,,,,,,,,,,,,,,,,,,,,,,,69_70Exp,001,2021_May_25_1038,ComputerHuman,2020.1.3,59.982413641167064,
Human.xlsx,h,Sychronize.jpg,Number10.jpg,10,Human,,,,,0,4,4,6,0,7,7,8,,,,,,,,,,,,,,,,,,,,,,,,,,,,,1017.5093048336248,None,1017.5093048336248,None,1017.9591484859877,None,1017.9591484859877,None,v,10.255725903409711,1017.9591484859877,None,t,8.439012552719987,1017.9591484859877,None,10.255725903409711,8.439012552719987,9.855021426932936,False,False,False,1028.2912034084682,None,1028.2912034084682,None,1028.2912034084682,None,1028.2912034084682,None,1028.2912034084682,None,1028.2912034084682,None,1028.2912034084682,None,1028.2912034084682,None,1029.274517452297,None,1029.274517452297,None,1030.272326211614,None,1030.272326211614,None,h,,,,,,,,,,,,,,,,,,,,,,,,,,,,,,,,,,,,,,,,,,,,,,,69_70Exp,001,2021_May_25_1038,ComputerHuman,2020.1.3,59.982413641167064,
Human.xlsx,h,Sychronize.jpg,Number7.jpg,7,Human,,,,,0,4,4,6,0,8,8,2,,,,,,,,,,,,,,,,,,,,,,,,,,,,,1031.3221165505233,None,1031.3221165505233,None,1031.7722370350791,None,1031.7722370350791,None,v,6.949880541936636,1031.7722370350791,None,t,5.98514954070879,1031.7722370350791,None,6.949880541936636,5.98514954070879,7.2429976001551335,False,False,False,1038.8202691848237,None,1038.8202691848237,None,1038.8202691848237,None,1038.8202691848237,None,1038.8202691848237,None,1038.8202691848237,None,1038.8202691848237,None,1038.8202691848237,None,1039.8057914706174,None,1039.8057914706174,None,1040.803170065426,None,1040.803170065426,None,h,,,,,,,,,,,,,,,,,,,,,,,,,,,,,,,,,,,,,,,,,,,,,,,69_70Exp,001,2021_May_25_1038,ComputerHuman,2020.1.3,59.982413641167064,
Human.xlsx,h,Sychronize.jpg,Number7.jpg,7,Human,,,,,0,4,4,6,0,9,9,3,,,,,,,,,,,,,,,,,,,,,,,,,,,,,1041.836103793788,None,1041.836103793788,None,1042.3030703031873,None,1042.3030703031873,None,v,7.918148451343541,1042.3030703031873,None,t,5.929225909183515,1042.3030703031873,None,7.918148451343541,5.929225909183515,6.713015020444896,False,False,False,1050.3175566784241,None,1050.3175566784241,None,1050.3175566784241,None,1050.3175566784241,None,1050.3175566784241,None,1050.3175566784241,None,1050.3175566784241,None,1050.3175566784241,None,1051.3032999808815,None,1051.3032999808815,None,1052.3004193863371,None,1052.3004193863371,None,h,,,,,,,,,,,,,,,,,,,,,,,,,,,,,,,,,,,,,,,,,,,,,,,69_70Exp,001,2021_May_25_1038,ComputerHuman,2020.1.3,59.982413641167064,
Human.xlsx,h,,,,,,,,,0,4,4,6,,,,,,,,,,,,,,,,,,,,,,,,,,,,,,,,,,,,,,,,,,,,,,,,,,,,,,,,,,,,,,,,,,,,,,,,,,,,,,,h,1053.3005108083244,None,1053.3005108083244,None,q,0,4.312219238265698,1053.3005108083244,None,l,0,17.786569436442733,1053.3005108083244,None,h,c,1071.1797167009045,None,1071.1797167009045,None,None,None,1073.1787126629397,None,1073.1787126629397,None,"['space', 'space']",1074.1617566109323,None,"[2.773713259588476, 4.82953263797026]",,,,,,,,,,,,,,,,,69_70Exp,001,2021_May_25_1038,ComputerHuman,2020.1.3,59.982413641167064,
Human.xlsx,h,Sychronize.jpg,Number7.jpg,7,Human,,,,,0,5,5,4,0,0,0,3,,,,,,,,,,,,,,,,,,,,,,,,,1079.0466739718715,None,1079.0466739718715,None,1082.0934637449268,None,1082.0934637449268,None,1082.5435444528987,None,1082.5435444528987,None,v,5.7950091293676,1082.5435444528987,None,t,6.4100795788299365,1082.5435444528987,None,5.7950091293676,6.4100795788299365,7.43699602705916,False,False,False,1089.0415790405632,None,1089.0415790405632,None,1089.0415790405632,None,1089.0415790405632,None,1089.0415790405632,None,1089.0415790405632,None,1089.0415790405632,None,1089.0415790405632,None,1090.0434937698321,None,1090.0434937698321,None,1091.0410449436904,None,1091.0410449436904,None,h,,,,,,,,,,,,,,,,,,,,,,,,,,,,,,,,,,,,,,,,,,,,,,,69_70Exp,001,2021_May_25_1038,ComputerHuman,2020.1.3,59.982413641167064,
Human.xlsx,h,Sychronize.jpg,Number8.jpg,8,Human,,,,,0,5,5,4,0,1,1,4,,,,,,,,,,,,,,,,,,,,,,,,,,,,,1092.0908493968714,None,1092.0908493968714,None,1092.540829380268,None,1092.540829380268,None,v,7.37685843257168,1092.540829380268,None,t,7.048104004218885,1092.540829380268,None,7.37685843257168,7.048104004218885,8.256129859983963,False,False,False,1099.9890200589464,None,1099.9890200589464,None,1099.9890200589464,None,1099.9890200589464,None,1099.9890200589464,None,1099.9890200589464,None,1099.9890200589464,None,1099.9890200589464,None,1100.9902980420939,None,1100.9902980420939,None,1101.988445543932,None,1101.988445543932,None,h,,,,,,,,,,,,,,,,,,,,,,,,,,,,,,,,,,,,,,,,,,,,,,,69_70Exp,001,2021_May_25_1038,ComputerHuman,2020.1.3,59.982413641167064,
Human.xlsx,h,Sychronize.jpg,Number6.jpg,6,Human,,,,,0,5,5,4,0,2,2,1,,,,,,,,,,,,,,,,,,,,,,,,,,,,,1103.0386163266196,None,1103.0386163266196,None,1103.488477942601,None,1103.488477942601,None,v,5.4205834839926865,1103.488477942601,None,t,5.556269751960826,1103.488477942601,None,5.4205834839926865,5.556269751960826,6.0917380758528745,True,False,False,1109.1213448847955,None,1109.1213448847955,None,1109.1213448847955,None,1109.1213448847955,None,1109.1213448847955,None,1109.1213448847955,None,1109.1213448847955,None,1109.1213448847955,None,1110.1218735284267,None,1110.1218735284267,None,1111.102902984912,None,1111.102902984912,None,h,,,,,,,,,,,,,,,,,,,,,,,,,,,,,,,,,,,,,,,,,,,,,,,69_70Exp,001,2021_May_25_1038,ComputerHuman,2020.1.3,59.982413641167064,
Human.xlsx,h,Sychronize.jpg,Number10.jpg,10,Human,,,,,0,5,5,4,0,3,3,9,,,,,,,,,,,,,,,,,,,,,,,,,,,,,1112.1694078293149,None,1112.1694078293149,None,1112.6031936105974,None,1112.6031936105974,None,v,10.284811888836202,1112.6031936105974,None,t,9.091990407427602,1112.6031936105974,None,10.284811888836202,9.091990407427602,10.653192917884892,False,False,False,1122.9669600938214,None,1122.9669600938214,None,1122.9669600938214,None,1122.9669600938214,None,1122.9669600938214,None,1122.9669600938214,None,1122.9669600938214,None,1122.9669600938214,None,1123.9690101917872,None,1123.9690101917872,None,1124.966292873704,None,1124.966292873704,None,h,,,,,,,,,,,,,,,,,,,,,,,,,,,,,,,,,,,,,,,,,,,,,,,69_70Exp,001,2021_May_25_1038,ComputerHuman,2020.1.3,59.982413641167064,
Human.xlsx,h,Sychronize.jpg,Number7.jpg,7,Human,,,,,0,5,5,4,0,4,4,2,,,,,,,,,,,,,,,,,,,,,,,,,,,,,1126.0163924434755,None,1126.0163924434755,None,1126.4663089126493,None,1126.4663089126493,None,v,7.168931793423553,1126.4663089126493,None,t,6.280237581686379,1126.4663089126493,None,7.168931793423553,6.280237581686379,6.638110555930125,False,False,False,1133.697691867485,None,1133.697691867485,None,1133.697691867485,None,1133.697691867485,None,1133.697691867485,None,1133.697691867485,None,1133.697691867485,None,1133.697691867485,None,1134.716121898549,None,1134.716121898549,None,1135.7136631282615,None,1135.7136631282615,None,h,,,,,,,,,,,,,,,,,,,,,,,,,,,,,,,,,,,,,,,,,,,,,,,69_70Exp,001,2021_May_25_1038,ComputerHuman,2020.1.3,59.982413641167064,
Human.xlsx,h,Sychronize.jpg,Number9.jpg,9,Human,,,,,0,5,5,4,0,5,5,6,,,,,,,,,,,,,,,,,,,,,,,,,,,,,1136.7634752801364,None,1136.7634752801364,None,1137.2136535048944,None,1137.2136535048944,None,v,9.028743072779434,1137.2136535048944,None,t,7.96005115781918,1137.2136535048944,None,9.028743072779434,7.96005115781918,8.465101971717548,False,False,False,1146.3115735103347,None,1146.3115735103347,None,1146.3115735103347,None,1146.3115735103347,None,1146.3115735103347,None,1146.3115735103347,None,1146.3115735103347,None,1146.3115735103347,None,1147.2961597632907,None,1147.2961597632907,None,1148.2938851200934,None,1148.2938851200934,None,h,,,,,,,,,,,,,,,,,,,,,,,,,,,,,,,,,,,,,,,,,,,,,,,69_70Exp,001,2021_May_25_1038,ComputerHuman,2020.1.3,59.982413641167064,
Human.xlsx,h,Sychronize.jpg,Number9.jpg,9,Human,,,,,0,5,5,4,0,6,6,7,,,,,,,,,,,,,,,,,,,,,,,,,,,,,1149.343791580965,None,1149.343791580965,None,1149.7941224964811,None,1149.7941224964811,None,v,7.819438046687537,1149.7941224964811,None,t,8.031044340626067,1149.7941224964811,None,7.819438046687537,8.031044340626067,9.485290752883794,True,False,False,1157.8919042462144,None,1157.8919042462144,None,1157.8919042462144,None,1157.8919042462144,None,1157.8919042462144,None,1157.8919042462144,None,1157.8919042462144,None,1157.8919042462144,None,1158.8932829539376,None,1158.8932829539376,None,1159.87444457133,None,1159.87444457133,None,h,,,,,,,,,,,,,,,,,,,,,,,,,,,,,,,,,,,,,,,,,,,,,,,69_70Exp,001,2021_May_25_1038,ComputerHuman,2020.1.3,59.982413641167064,
Human.xlsx,h,Sychronize.jpg,Number6.jpg,6,Human,,,,,0,5,5,4,0,7,7,0,,,,,,,,,,,,,,,,,,,,,,,,,,,,,1160.941403959438,None,1160.941403959438,None,1161.3745029530905,None,1161.3745029530905,None,v,6.218283306794092,1161.3745029530905,None,t,5.521455617672473,1161.3745029530905,None,6.218283306794092,5.521455617672473,5.601295653542592,False,False,False,1167.6573542412743,None,1167.6573542412743,None,1167.6573542412743,None,1167.6573542412743,None,1167.6573542412743,None,1167.6573542412743,None,1167.6573542412743,None,1167.6573542412743,None,1168.674816161611,None,1168.674816161611,None,1169.6721062214424,None,1169.6721062214424,None,h,,,,,,,,,,,,,,,,,,,,,,,,,,,,,,,,,,,,,,,,,,,,,,,69_70Exp,001,2021_May_25_1038,ComputerHuman,2020.1.3,59.982413641167064,
Human.xlsx,h,Sychronize.jpg,Number10.jpg,10,Human,,,,,0,5,5,4,0,8,8,8,,,,,,,,,,,,,,,,,,,,,,,,,,,,,1170.7220322498279,None,1170.7220322498279,None,1171.1720523305871,None,1171.1720523305871,None,v,8.531854628133715,1171.1720523305871,None,t,9.366917173604179,1171.1720523305871,None,8.531854628133715,9.366917173604179,9.556562392357247,False,False,False,1180.6199565537054,None,1180.6199565537054,None,1180.6199565537054,None,1180.6199565537054,None,1180.6199565537054,None,1180.6199565537054,None,1180.6199565537054,None,1180.6199565537054,None,1181.6044183444474,None,1181.6044183444474,None,1182.602228707659,None,1182.602228707659,None,h,,,,,,,,,,,,,,,,,,,,,,,,,,,,,,,,,,,,,,,,,,,,,,,69_70Exp,001,2021_May_25_1038,ComputerHuman,2020.1.3,59.982413641167064,
Human.xlsx,h,Sychronize.jpg,Number8.jpg,8,Human,,,,,0,5,5,4,0,9,9,5,,,,,,,,,,,,,,,,,,,,,,,,,,,,,1183.6691486399613,None,1183.6691486399613,None,1184.102293184218,None,1184.102293184218,None,v,7.308826359813793,1184.102293184218,None,t,7.072170441379058,1184.102293184218,None,7.308826359813793,7.072170441379058,7.4967426229842,True,False,False,1191.4840569677667,None,1191.4840569677667,None,1191.4840569677667,None,1191.4840569677667,None,1191.4840569677667,None,1191.4840569677667,None,1191.4840569677667,None,1191.4840569677667,None,1192.486135615055,None,1192.486135615055,None,1193.4663772385557,None,1193.4663772385557,None,h,,,,,,,,,,,,,,,,,,,,,,,,,,,,,,,,,,,,,,,,,,,,,,,69_70Exp,001,2021_May_25_1038,ComputerHuman,2020.1.3,59.982413641167064,
Human.xlsx,h,,,,,,,,,0,5,5,4,,,,,,,,,,,,,,,,,,,,,,,,,,,,,,,,,,,,,,,,,,,,,,,,,,,,,,,,,,,,,,,,,,,,,,,,,,,,,,,h,1194.4669729249777,None,1194.4669729249777,None,q,1,6.731441015816927,1194.4669729249777,None,o,0,1.539684841144208,1194.4669729249777,None,h,h,1201.28163938549,None,1201.28163938549,None,1203.2806831435819,None,None,None,None,None,None,None,None,,,,,,,,,,,,,,,,,,69_70Exp,001,2021_May_25_1038,ComputerHuman,2020.1.3,59.982413641167064,
Computer.xlsx,c,Sychronize.jpg,Number10.jpg,10,Computer,,,,,0,6,6,7,0,0,0,8,,,,,,,,,,,,,,,,,,,,,,,,,1208.2823463821915,None,1208.2823463821915,None,1211.346124926702,None,1211.346124926702,None,1211.7788421934606,None,1211.7788421934606,None,v,8.614262728186077,1211.7788421934606,None,t,9.004922031479964,1211.7788421934606,None,8.614262728186077,9.004922031479964,9.43201928380157,False,False,False,1220.8607662381487,None,1220.8607662381487,None,1220.8607662381487,None,1220.8607662381487,None,1220.8607662381487,None,1220.8607662381487,None,1220.8607662381487,None,1220.8607662381487,None,1221.8928681868165,None,1221.8928681868165,None,1222.8759660256646,None,1222.8759660256646,None,c,,,,,,,,,,,,,,,,,,,,,,,,,,,,,,,,,,,,,,,,,,,,,,,69_70Exp,001,2021_May_25_1038,ComputerHuman,2020.1.3,59.982413641167064,
Computer.xlsx,c,Sychronize.jpg,Number9.jpg,9,Computer,,,,,0,6,6,7,0,1,1,7,,,,,,,,,,,,,,,,,,,,,,,,,,,,,1223.926200964133,None,1223.926200964133,None,1224.3758515075965,None,1224.3758515075965,None,v,7.504420974834375,1224.3758515075965,None,t,9.551897535519856,1224.3758515075965,None,7.504420974834375,9.551897535519856,9.216480920756263,False,False,False,1233.9913636696078,None,1233.9913636696078,None,1233.9913636696078,None,1233.9913636696078,None,1233.9913636696078,None,1233.9913636696078,None,1233.9913636696078,None,1233.9913636696078,None,1235.0230251888424,None,1235.0230251888424,None,1236.0062025808588,None,1236.0062025808588,None,c,,,,,,,,,,,,,,,,,,,,,,,,,,,,,,,,,,,,,,,,,,,,,,,69_70Exp,001,2021_May_25_1038,ComputerHuman,2020.1.3,59.982413641167064,
Computer.xlsx,c,Sychronize.jpg,Number8.jpg,8,Computer,,,,,0,6,6,7,0,2,2,5,,,,,,,,,,,,,,,,,,,,,,,,,,,,,1237.056240240302,None,1237.056240240302,None,1237.5061579925914,None,1237.5061579925914,None,v,7.377132698533387,1237.5061579925914,None,t,7.284091740199983,1237.5061579925914,None,7.377132698533387,7.284091740199983,8.01098318671464,False,False,False,1244.9554989844141,None,1244.9554989844141,None,1244.9554989844141,None,1244.9554989844141,None,1244.9554989844141,None,1244.9554989844141,None,1244.9554989844141,None,1244.9554989844141,None,1245.953620503161,None,1245.953620503161,None,1246.9367998198504,None,1246.9367998198504,None,c,,,,,,,,,,,,,,,,,,,,,,,,,,,,,,,,,,,,,,,,,,,,,,,69_70Exp,001,2021_May_25_1038,ComputerHuman,2020.1.3,59.982413641167064,
Computer.xlsx,c,Sychronize.jpg,Number10.jpg,10,Computer,,,,,0,6,6,7,0,3,3,9,,,,,,,,,,,,,,,,,,,,,,,,,,,,,1247.9865654587843,None,1247.9865654587843,None,1248.453284006092,None,1248.453284006092,None,v,10.312965690771762,1248.453284006092,None,t,9.323975143484404,1248.453284006092,None,10.312965690771762,9.323975143484404,9.710165421833704,False,False,False,1258.8507062909875,None,1258.8507062909875,None,1258.8507062909875,None,1258.8507062909875,None,1258.8507062909875,None,1258.8507062909875,None,1258.8507062909875,None,1258.8507062909875,None,1259.8501600045165,None,1259.8501600045165,None,1260.8169077427046,None,1260.8169077427046,None,c,,,,,,,,,,,,,,,,,,,,,,,,,,,,,,,,,,,,,,,,,,,,,,,69_70Exp,001,2021_May_25_1038,ComputerHuman,2020.1.3,59.982413641167064,
Computer.xlsx,c,Sychronize.jpg,Number8.jpg,8,Computer,,,,,0,6,6,7,0,4,4,4,,,,,,,,,,,,,,,,,,,,,,,,,,,,,1261.883522614271,None,1261.883522614271,None,1262.3169792763997,None,1262.3169792763997,None,v,7.936456907203592,1262.3169792763997,None,t,7.6800185538518235,1262.3169792763997,None,7.936456907203592,7.6800185538518235,7.915526582796497,False,True,True,1270.3478564912175,None,1270.3478564912175,None,1270.3478564912175,None,1270.3478564912175,None,1270.3478564912175,None,1270.3478564912175,None,1270.3478564912175,None,1270.3478564912175,None,1271.3476133408094,None,1271.3476133408094,None,1272.3307400497592,None,1272.3307400497592,None,c,,,,,,,,,,,,,,,,,,,,,,,,,,,,,,,,,,,,,,,,,,,,,,,69_70Exp,001,2021_May_25_1038,ComputerHuman,2020.1.3,59.982413641167064,
Computer.xlsx,c,Sychronize.jpg,Number9.jpg,9,Computer,,,,,0,6,6,7,0,5,5,6,,,,,,,,,,,,,,,,,,,,,,,,,,,,,1273.3806939859087,None,1273.3806939859087,None,1273.8306181537764,None,1273.8306181537764,None,v,8.513975695223962,1273.8306181537764,None,t,8.305029620723872,1273.8306181537764,None,8.513975695223962,8.305029620723872,9.32206685081024,False,False,False,1282.4118846017145,None,1282.4118846017145,None,1282.4118846017145,None,1282.4118846017145,None,1282.4118846017145,None,1282.4118846017145,None,1282.4118846017145,None,1282.4118846017145,None,1283.4113707139127,None,1283.4113707139127,None,1284.4111740764456,None,1284.4111740764456,None,c,,,,,,,,,,,,,,,,,,,,,,,,,,,,,,,,,,,,,,,,,,,,,,,69_70Exp,001,2021_May_25_1038,ComputerHuman,2020.1.3,59.982413641167064,
Computer.xlsx,c,Sychronize.jpg,Number7.jpg,7,Computer,,,,,0,6,6,7,0,6,6,2,,,,,,,,,,,,,,,,,,,,,,,,,,,,,1285.46211440772,None,1285.46211440772,None,1285.9110457648844,None,1285.9110457648844,None,v,6.108876850413253,1285.9110457648844,None,t,6.492184222040578,1285.9110457648844,None,6.108876850413253,6.492184222040578,6.893147495601639,False,False,False,1292.4925556840099,None,1292.4925556840099,None,1292.4925556840099,None,1292.4925556840099,None,1292.4925556840099,None,1292.4925556840099,None,1292.4925556840099,None,1292.4925556840099,None,1293.4921800519146,None,1293.4921800519146,None,1294.4587186422582,None,1294.4587186422582,None,c,,,,,,,,,,,,,,,,,,,,,,,,,,,,,,,,,,,,,,,,,,,,,,,69_70Exp,001,2021_May_25_1038,ComputerHuman,2020.1.3,59.982413641167064,
Computer.xlsx,c,Sychronize.jpg,Number6.jpg,6,Computer,,,,,0,6,6,7,0,7,7,1,,,,,,,,,,,,,,,,,,,,,,,,,,,,,1295.5256437070234,None,1295.5256437070234,None,1295.958709981228,None,1295.958709981228,None,v,5.464507739111923,1295.958709981228,None,t,5.704218755814054,1295.958709981228,None,5.464507739111923,5.704218755814054,6.2199738033740735,False,False,False,1301.7570125475877,None,1301.7570125475877,None,1301.7570125475877,None,1301.7570125475877,None,1301.7570125475877,None,1301.7570125475877,None,1301.7570125475877,None,1301.7570125475877,None,1302.7568014750696,None,1302.7568014750696,None,1303.7398839165307,None,1303.7398839165307,None,c,,,,,,,,,,,,,,,,,,,,,,,,,,,,,,,,,,,,,,,,,,,,,,,69_70Exp,001,2021_May_25_1038,ComputerHuman,2020.1.3,59.982413641167064,
Computer.xlsx,c,Sychronize.jpg,Number6.jpg,6,Computer,,,,,0,6,6,7,0,8,8,0,,,,,,,,,,,,,,,,,,,,,,,,,,,,,1304.7730742680146,None,1304.7730742680146,None,1305.2399249762302,None,1305.2399249762302,None,v,5.510633820617841,1305.2399249762302,None,t,5.398478930600049,1305.2399249762302,None,5.510633820617841,5.398478930600049,5.934938565594265,False,False,False,1310.8217171807896,None,1310.8217171807896,None,1310.8217171807896,None,1310.8217171807896,None,1310.8217171807896,None,1310.8217171807896,None,1310.8217171807896,None,1310.8217171807896,None,1311.8211885371584,None,1311.8211885371584,None,1312.8043854966877,None,1312.8043854966877,None,c,,,,,,,,,,,,,,,,,,,,,,,,,,,,,,,,,,,,,,,,,,,,,,,69_70Exp,001,2021_May_25_1038,ComputerHuman,2020.1.3,59.982413641167064,
Computer.xlsx,c,Sychronize.jpg,Number7.jpg,7,Computer,,,,,0,6,6,7,0,9,9,3,,,,,,,,,,,,,,,,,,,,,,,,,,,,,1313.871773445409,None,1313.871773445409,None,1314.3044512563624,None,1314.3044512563624,None,v,6.441375089336816,1314.3044512563624,None,t,6.232160522895356,1314.3044512563624,None,6.441375089336816,6.232160522895356,7.313632471148766,False,False,False,1320.8357948837047,None,1320.8357948837047,None,1320.8357948837047,None,1320.8357948837047,None,1320.8357948837047,None,1320.8357948837047,None,1320.8357948837047,None,1320.8357948837047,None,1321.8355020125668,None,1321.8355020125668,None,1322.8186370617677,None,1322.8186370617677,None,c,,,,,,,,,,,,,,,,,,,,,,,,,,,,,,,,,,,,,,,,,,,,,,,69_70Exp,001,2021_May_25_1038,ComputerHuman,2020.1.3,59.982413641167064,
Computer.xlsx,c,,,,,,,,,0,6,6,7,,,,,,,,,,,,,,,,,,,,,,,,,,,,,,,,,,,,,,,,,,,,,,,,,,,,,,,,,,,,,,,,,,,,,,,,,,,,,,,c,1323.8192131806768,None,1323.8192131806768,None,a,1,2.6223274305734776,1323.8192131806768,None,l,0,2.0133549880479222,1323.8192131806768,None,c,c,1326.5346123643585,None,1326.5346123643585,None,1328.517209146561,None,None,None,None,None,None,None,None,,,,,,,,,,,,,,,,,,69_70Exp,001,2021_May_25_1038,ComputerHuman,2020.1.3,59.982413641167064,
Human.xlsx,h,Sychronize.jpg,Number6.jpg,6,Human,,,,,0,7,7,8,0,0,0,1,,,,,,,,,,,,,,,,,,,,,,,,,1333.5182731701807,None,1333.5182731701807,None,1336.6153113544183,None,1336.6153113544183,None,1337.0488154918244,None,1337.0488154918244,None,v,5.339818734257733,1337.0488154918244,None,t,5.2102773069455,1337.0488154918244,None,5.339818734257733,5.2102773069455,5.929997109357019,True,False,False,1342.464196904355,None,1342.464196904355,None,1342.464196904355,None,1342.464196904355,None,1342.464196904355,None,1342.464196904355,None,1342.464196904355,None,1342.464196904355,None,1343.4819420724625,None,1343.4819420724625,None,1344.4633830882794,None,1344.4633830882794,None,h,,,,,,,,,,,,,,,,,,,,,,,,,,,,,,,,,,,,,,,,,,,,,,,69_70Exp,001,2021_May_25_1038,ComputerHuman,2020.1.3,59.982413641167064,
Human.xlsx,h,Sychronize.jpg,Number10.jpg,10,Human,,,,,0,7,7,8,0,1,1,8,,,,,,,,,,,,,,,,,,,,,,,,,,,,,1345.5310539639931,None,1345.5310539639931,None,1345.9631896586016,None,1345.9631896586016,None,v,10.98004241980243,1345.9631896586016,None,t,8.674997080911908,1345.9631896586016,None,10.98004241980243,8.674997080911908,9.430356608979817,False,False,False,1357.010593402476,None,1357.010593402476,None,1357.010593402476,None,1357.010593402476,None,1357.010593402476,None,1357.010593402476,None,1357.010593402476,None,1357.010593402476,None,1358.0118614414778,None,1358.0118614414778,None,1359.0099431836406,None,1359.0099431836406,None,h,,,,,,,,,,,,,,,,,,,,,,,,,,,,,,,,,,,,,,,,,,,,,,,69_70Exp,001,2021_May_25_1038,ComputerHuman,2020.1.3,59.982413641167064,
Human.xlsx,h,Sychronize.jpg,Number9.jpg,9,Human,,,,,0,7,7,8,0,2,2,7,,,,,,,,,,,,,,,,,,,,,,,,,,,,,1360.0601559883648,None,1360.0601559883648,None,1360.4931427094011,None,1360.4931427094011,None,v,8.673204247626018,1360.4931427094011,None,t,8.076068225823292,1360.4931427094011,None,8.673204247626018,8.076068225823292,9.337158845114425,False,False,False,1369.2425893657946,None,1369.2425893657946,None,1369.2425893657946,None,1369.2425893657946,None,1369.2425893657946,None,1369.2425893657946,None,1369.2425893657946,None,1369.2425893657946,None,1370.2429229758532,None,1370.2429229758532,None,1371.240294513526,None,1371.240294513526,None,h,,,,,,,,,,,,,,,,,,,,,,,,,,,,,,,,,,,,,,,,,,,,,,,69_70Exp,001,2021_May_25_1038,ComputerHuman,2020.1.3,59.982413641167064,
Human.xlsx,h,Sychronize.jpg,Number7.jpg,7,Human,,,,,0,7,7,8,0,3,3,3,,,,,,,,,,,,,,,,,,,,,,,,,,,,,1372.2907273725768,None,1372.2907273725768,None,1372.7405399093864,None,1372.7405399093864,None,v,7.220999020982617,1372.7405399093864,None,t,5.956192508401273,1372.7405399093864,None,7.220999020982617,5.956192508401273,7.389373401269277,False,False,False,1380.0398795539377,None,1380.0398795539377,None,1380.0398795539377,None,1380.0398795539377,None,1380.0398795539377,None,1380.0398795539377,None,1380.0398795539377,None,1380.0398795539377,None,1381.0229023305228,None,1381.0229023305228,None,1382.0208827065526,None,1382.0208827065526,None,h,,,,,,,,,,,,,,,,,,,,,,,,,,,,,,,,,,,,,,,,,,,,,,,69_70Exp,001,2021_May_25_1038,ComputerHuman,2020.1.3,59.982413641167064,
Human.xlsx,h,Sychronize.jpg,Number9.jpg,9,Human,,,,,0,7,7,8,0,4,4,6,,,,,,,,,,,,,,,,,,,,,,,,,,,,,1383.0879293465218,None,1383.0879293465218,None,1383.5212480737227,None,1383.5212480737227,None,v,9.77931534234176,1383.5212480737227,None,t,8.17905365091292,1383.5212480737227,None,9.77931534234176,8.17905365091292,8.411771107858293,False,False,False,1393.3685313330416,None,1393.3685313330416,None,1393.3685313330416,None,1393.3685313330416,None,1393.3685313330416,None,1393.3685313330416,None,1393.3685313330416,None,1393.3685313330416,None,1394.3534056454519,None,1394.3534056454519,None,1395.3511236243398,None,1395.3511236243398,None,h,,,,,,,,,,,,,,,,,,,,,,,,,,,,,,,,,,,,,,,,,,,,,,,69_70Exp,001,2021_May_25_1038,ComputerHuman,2020.1.3,59.982413641167064,
Human.xlsx,h,Sychronize.jpg,Number8.jpg,8,Human,,,,,0,7,7,8,0,5,5,4,,,,,,,,,,,,,,,,,,,,,,,,,,,,,1396.4178106711593,None,1396.4178106711593,None,1396.8512843345698,None,1396.8512843345698,None,v,7.9964486567705535,1396.8512843345698,None,t,7.6280825248636575,1396.8512843345698,None,7.9964486567705535,7.6280825248636575,8.529787769520869,False,False,False,1404.9157333069866,None,1404.9157333069866,None,1404.9157333069866,None,1404.9157333069866,None,1404.9157333069866,None,1404.9157333069866,None,1404.9157333069866,None,1404.9157333069866,None,1405.917683001156,None,1405.917683001156,None,1406.9150564635024,None,1406.9150564635024,None,h,,,,,,,,,,,,,,,,,,,,,,,,,,,,,,,,,,,,,,,,,,,,,,,69_70Exp,001,2021_May_25_1038,ComputerHuman,2020.1.3,59.982413641167064,
Human.xlsx,h,Sychronize.jpg,Number8.jpg,8,Human,,,,,0,7,7,8,0,6,6,5,,,,,,,,,,,,,,,,,,,,,,,,,,,,,1407.9648301219086,None,1407.9648301219086,None,1408.4149435493287,None,1408.4149435493287,None,v,9.391877942344308,1408.4149435493287,None,t,7.163129544635012,1408.4149435493287,None,9.391877942344308,7.163129544635012,8.557029064516524,False,False,False,1417.8795497675637,None,1417.8795497675637,None,1417.8795497675637,None,1417.8795497675637,None,1417.8795497675637,None,1417.8795497675637,None,1417.8795497675637,None,1417.8795497675637,None,1418.881611092791,None,1418.881611092791,None,1419.8786233580931,None,1419.8786233580931,None,h,,,,,,,,,,,,,,,,,,,,,,,,,,,,,,,,,,,,,,,,,,,,,,,69_70Exp,001,2021_May_25_1038,ComputerHuman,2020.1.3,59.982413641167064,
Human.xlsx,h,Sychronize.jpg,Number6.jpg,6,Human,,,,,0,7,7,8,0,7,7,0,,,,,,,,,,,,,,,,,,,,,,,,,,,,,1420.9291957559667,None,1420.9291957559667,None,1421.3786605684459,None,1421.3786605684459,None,v,6.071476275834357,1421.3786605684459,None,t,5.319328019524164,1421.3786605684459,None,6.071476275834357,5.319328019524164,5.562032368474049,False,False,False,1427.5284784301848,None,1427.5284784301848,None,1427.5284784301848,None,1427.5284784301848,None,1427.5284784301848,None,1427.5284784301848,None,1427.5284784301848,None,1427.5284784301848,None,1428.51191340766,None,1428.51191340766,None,1429.5094398815427,None,1429.5094398815427,None,h,,,,,,,,,,,,,,,,,,,,,,,,,,,,,,,,,,,,,,,,,,,,,,,69_70Exp,001,2021_May_25_1038,ComputerHuman,2020.1.3,59.982413641167064,
Human.xlsx,h,Sychronize.jpg,Number10.jpg,10,Human,,,,,0,7,7,8,0,8,8,9,,,,,,,,,,,,,,,,,,,,,,,,,,,,,1430.5777680332276,None,1430.5777680332276,None,1431.0095765333554,None,1431.0095765333554,None,v,11.21948975624673,1431.0095765333554,None,t,8.814964464113473,1431.0095765333554,None,11.21948975624673,8.814964464113473,9.998427308117597,False,False,False,1442.308480560157,None,1442.308480560157,None,1442.308480560157,None,1442.308480560157,None,1442.308480560157,None,1442.308480560157,None,1442.308480560157,None,1442.308480560157,None,1443.2914786367664,None,1443.2914786367664,None,1444.2893191531948,None,1444.2893191531948,None,h,,,,,,,,,,,,,,,,,,,,,,,,,,,,,,,,,,,,,,,,,,,,,,,69_70Exp,001,2021_May_25_1038,ComputerHuman,2020.1.3,59.982413641167064,
Human.xlsx,h,Sychronize.jpg,Number7.jpg,7,Human,,,,,0,7,7,8,0,9,9,2,,,,,,,,,,,,,,,,,,,,,,,,,,,,,1445.356643908473,None,1445.356643908473,None,1445.7893396830445,None,1445.7893396830445,None,v,7.094939969435927,1445.7893396830445,None,t,6.0662094070335115,1445.7893396830445,None,7.094939969435927,6.0662094070335115,7.026479855568666,False,False,False,1452.9706111992896,None,1452.9706111992896,None,1452.9706111992896,None,1452.9706111992896,None,1452.9706111992896,None,1452.9706111992896,None,1452.9706111992896,None,1452.9706111992896,None,1453.9560661215137,None,1453.9560661215137,None,1454.953515287681,None,1454.953515287681,None,h,,,,,,,,,,,,,,,,,,,,,,,,,,,,,,,,,,,,,,,,,,,,,,,69_70Exp,001,2021_May_25_1038,ComputerHuman,2020.1.3,59.982413641167064,
Human.xlsx,h,,,,,,,,,0,7,7,8,,,,,,,,,,,,,,,,,,,,,,,,,,,,,,,,,,,,,,,,,,,,,,,,,,,,,,,,,,,,,,,,,,,,,,,,,,,,,,,h,1455.9547470786665,None,1455.9547470786665,None,a,0,4.589211179016729,1455.9547470786665,None,l,0,3.288635894132767,1455.9547470786665,None,c,c,1460.6189653468969,None,1460.6189653468969,None,1462.6183112787144,None,None,None,None,None,None,None,None,,,,,,,,,,,,,,,,,,69_70Exp,001,2021_May_25_1038,ComputerHuman,2020.1.3,59.982413641167064,
Human.xlsx,h,Sychronize.jpg,Number8.jpg,8,Human,,,,,0,8,8,2,0,0,0,4,,,,,,,,,,,,,,,,,,,,,,,,,1467.636845883701,None,1467.636845883701,None,1470.6994981734847,None,1470.6994981734847,None,1471.1497764812607,None,1471.1497764812607,None,v,8.26868537107066,1471.1497764812607,None,t,6.968099821262058,1471.1497764812607,None,8.26868537107066,6.968099821262058,8.17121231205165,False,False,False,1479.5142525274168,None,1479.5142525274168,None,1479.5142525274168,None,1479.5142525274168,None,1479.5142525274168,None,1479.5142525274168,None,1479.5142525274168,None,1479.5142525274168,None,1480.4990043022867,None,1480.4990043022867,None,1481.480391427248,None,1481.480391427248,None,h,,,,,,,,,,,,,,,,,,,,,,,,,,,,,,,,,,,,,,,,,,,,,,,69_70Exp,001,2021_May_25_1038,ComputerHuman,2020.1.3,59.982413641167064,
Human.xlsx,h,Sychronize.jpg,Number10.jpg,10,Human,,,,,0,8,8,2,0,1,1,8,,,,,,,,,,,,,,,,,,,,,,,,,,,,,1482.546784961372,None,1482.546784961372,None,1482.9971357651793,None,1482.9971357651793,None,v,5.572785695313996,1482.9971357651793,None,t,8.556014732733274,1482.9971357651793,None,5.572785695313996,8.556014732733274,9.98798075117733,False,False,False,1491.644668398017,None,1491.644668398017,None,1491.644668398017,None,1491.644668398017,None,1491.644668398017,None,1491.644668398017,None,1491.644668398017,None,1491.644668398017,None,1492.630466232888,None,1492.630466232888,None,1493.6108785107645,None,1493.6108785107645,None,h,,,,,,,,,,,,,,,,,,,,,,,,,,,,,,,,,,,,,,,,,,,,,,,69_70Exp,001,2021_May_25_1038,ComputerHuman,2020.1.3,59.982413641167064,
Human.xlsx,h,Sychronize.jpg,Number7.jpg,7,Human,,,,,0,8,8,2,0,2,2,3,,,,,,,,,,,,,,,,,,,,,,,,,,,,,1494.6778446352296,None,1494.6778446352296,None,1495.110651078523,None,1495.110651078523,None,v,7.166085843000474,1495.110651078523,None,t,6.309188198415995,1495.110651078523,None,7.166085843000474,6.309188198415995,6.869073192990381,False,False,False,1502.359324336982,None,1502.359324336982,None,1502.359324336982,None,1502.359324336982,None,1502.359324336982,None,1502.359324336982,None,1502.359324336982,None,1502.359324336982,None,1503.3604242878387,None,1503.3604242878387,None,1504.3583186951228,None,1504.3583186951228,None,h,,,,,,,,,,,,,,,,,,,,,,,,,,,,,,,,,,,,,,,,,,,,,,,69_70Exp,001,2021_May_25_1038,ComputerHuman,2020.1.3,59.982413641167064,
Human.xlsx,h,Sychronize.jpg,Number9.jpg,9,Human,,,,,0,8,8,2,0,3,3,7,,,,,,,,,,,,,,,,,,,,,,,,,,,,,1505.4079063017657,None,1505.4079063017657,None,1505.85818204331,None,1505.85818204331,None,v,7.093786127723888,1505.85818204331,None,t,7.861062317075721,1505.85818204331,None,7.093786127723888,7.861062317075721,8.90051449043249,False,False,False,1513.8059685405715,None,1513.8059685405715,None,1513.8059685405715,None,1513.8059685405715,None,1513.8059685405715,None,1513.8059685405715,None,1513.8059685405715,None,1513.8059685405715,None,1514.774632291144,None,1514.774632291144,None,1515.7721638974895,None,1515.7721638974895,None,h,,,,,,,,,,,,,,,,,,,,,,,,,,,,,,,,,,,,,,,,,,,,,,,69_70Exp,001,2021_May_25_1038,ComputerHuman,2020.1.3,59.982413641167064,
Human.xlsx,h,Sychronize.jpg,Number10.jpg,10,Human,,,,,0,8,8,2,0,4,4,9,,,,,,,,,,,,,,,,,,,,,,,,,,,,,1516.839165628412,None,1516.839165628412,None,1517.2719752794947,None,1517.2719752794947,None,v,10.066925064765655,1517.2719752794947,None,t,7.702071461841115,1517.2719752794947,None,10.066925064765655,7.702071461841115,10.289754342995126,False,False,False,1527.4360010803834,None,1527.4360010803834,None,1527.4360010803834,None,1527.4360010803834,None,1527.4360010803834,None,1527.4360010803834,None,1527.4360010803834,None,1527.4360010803834,None,1528.4046038829642,None,1528.4046038829642,None,1529.40227566969,None,1529.40227566969,None,h,,,,,,,,,,,,,,,,,,,,,,,,,,,,,,,,,,,,,,,,,,,,,,,69_70Exp,001,2021_May_25_1038,ComputerHuman,2020.1.3,59.982413641167064,
Human.xlsx,h,Sychronize.jpg,Number7.jpg,7,Human,,,,,0,8,8,2,0,5,5,2,,,,,,,,,,,,,,,,,,,,,,,,,,,,,1530.452211963,None,1530.452211963,None,1530.9022028528793,None,1530.9022028528793,None,v,6.467937827916103,1530.9022028528793,None,t,6.091189743287032,1530.9022028528793,None,6.467937827916103,6.091189743287032,7.490526421354551,False,False,False,1537.4503876933813,None,1537.4503876933813,None,1537.4503876933813,None,1537.4503876933813,None,1537.4503876933813,None,1537.4503876933813,None,1537.4503876933813,None,1537.4503876933813,None,1538.4522212655884,None,1538.4522212655884,None,1539.4494779644142,None,1539.4494779644142,None,h,,,,,,,,,,,,,,,,,,,,,,,,,,,,,,,,,,,,,,,,,,,,,,,69_70Exp,001,2021_May_25_1038,ComputerHuman,2020.1.3,59.982413641167064,
Human.xlsx,h,Sychronize.jpg,Number9.jpg,9,Human,,,,,0,8,8,2,0,6,6,6,,,,,,,,,,,,,,,,,,,,,,,,,,,,,1540.4995801004166,None,1540.4995801004166,None,1540.949610446101,None,1540.949610446101,None,v,7.039831116323057,1540.949610446101,None,t,7.623107564864313,1540.949610446101,None,7.039831116323057,7.623107564864313,9.085359441305798,False,False,False,1548.632147755895,None,1548.632147755895,None,1548.632147755895,None,1548.632147755895,None,1548.632147755895,None,1548.632147755895,None,1548.632147755895,None,1548.632147755895,None,1549.633065183556,None,1549.633065183556,None,1550.6304226069574,None,1550.6304226069574,None,h,,,,,,,,,,,,,,,,,,,,,,,,,,,,,,,,,,,,,,,,,,,,,,,69_70Exp,001,2021_May_25_1038,ComputerHuman,2020.1.3,59.982413641167064,
Human.xlsx,h,Sychronize.jpg,Number6.jpg,6,Human,,,,,0,8,8,2,0,7,7,1,,,,,,,,,,,,,,,,,,,,,,,,,,,,,1551.697368522351,None,1551.697368522351,None,1552.1472192318502,None,1552.1472192318502,None,v,5.533535509583089,1552.1472192318502,None,t,5.349241935297414,1552.1472192318502,None,5.533535509583089,5.349241935297414,5.820390480525014,True,False,False,1557.7622069203558,None,1557.7622069203558,None,1557.7622069203558,None,1557.7622069203558,None,1557.7622069203558,None,1557.7622069203558,None,1557.7622069203558,None,1557.7622069203558,None,1558.7644729025228,None,1558.7644729025228,None,1559.7449198245213,None,1559.7449198245213,None,h,,,,,,,,,,,,,,,,,,,,,,,,,,,,,,,,,,,,,,,,,,,,,,,69_70Exp,001,2021_May_25_1038,ComputerHuman,2020.1.3,59.982413641167064,
Human.xlsx,h,Sychronize.jpg,Number8.jpg,8,Human,,,,,0,8,8,2,0,8,8,5,,,,,,,,,,,,,,,,,,,,,,,,,,,,,1560.8119125736348,None,1560.8119125736348,None,1561.2448300064284,None,1561.2448300064284,None,v,7.379161945870237,1561.2448300064284,None,t,7.082096623737925,1561.2448300064284,None,7.379161945870237,7.082096623737925,7.69070174776664,True,False,False,1568.7093550676009,None,1568.7093550676009,None,1568.7093550676009,None,1568.7093550676009,None,1568.7093550676009,None,1568.7093550676009,None,1568.7093550676009,None,1568.7093550676009,None,1569.6943086124002,None,1569.6943086124002,None,1570.6923066312697,None,1570.6923066312697,None,h,,,,,,,,,,,,,,,,,,,,,,,,,,,,,,,,,,,,,,,,,,,,,,,69_70Exp,001,2021_May_25_1038,ComputerHuman,2020.1.3,59.982413641167064,
Human.xlsx,h,Sychronize.jpg,Number6.jpg,6,Human,,,,,0,8,8,2,0,9,9,0,,,,,,,,,,,,,,,,,,,,,,,,,,,,,1571.7425351541597,None,1571.7425351541597,None,1572.1921844145077,None,1572.1921844145077,None,v,5.787081720350216,1572.1921844145077,None,t,5.634195929187172,1572.1921844145077,None,5.787081720350216,5.634195929187172,6.243983263503693,True,False,False,1578.0586524976488,None,1578.0586524976488,None,1578.0586524976488,None,1578.0586524976488,None,1578.0586524976488,None,1578.0586524976488,None,1578.0586524976488,None,1578.0586524976488,None,1579.0419370298182,None,1579.0419370298182,None,1580.040075229068,None,1580.040075229068,None,h,,,,,,,,,,,,,,,,,,,,,,,,,,,,,,,,,,,,,,,,,,,,,,,69_70Exp,001,2021_May_25_1038,ComputerHuman,2020.1.3,59.982413641167064,
Human.xlsx,h,,,,,,,,,0,8,8,2,,,,,,,,,,,,,,,,,,,,,,,,,,,,,,,,,,,,,,,,,,,,,,,,,,,,,,,,,,,,,,,,,,,,,,,,,,,,,,,h,1581.0402481288966,None,1581.0402481288966,None,q,1,3.290623760991366,1581.0402481288966,None,o,0,2.2255280983072225,1581.0402481288966,None,h,h,1584.4220597085018,None,1584.4220597085018,None,1586.421801481485,None,None,None,None,None,None,None,None,,,,,,,,,,,,,,,,,,69_70Exp,001,2021_May_25_1038,ComputerHuman,2020.1.3,59.982413641167064,
Computer.xlsx,c,Sychronize.jpg,Number6.jpg,6,Computer,,,,,0,9,9,1,0,0,0,1,,,,,,,,,,,,,,,,,,,,,,,,,1591.4242583270993,None,1591.4242583270993,None,1594.486556797754,None,1594.486556797754,None,1594.9202578934064,None,1594.9202578934064,None,v,6.269483789758851,1594.9202578934064,None,t,5.416212871445623,1594.9202578934064,None,6.269483789758851,5.416212871445623,5.595068333519942,False,False,True,1601.3014494073932,None,1601.3014494073932,None,1601.3014494073932,None,1601.3014494073932,None,1601.3014494073932,None,1601.3014494073932,None,1601.3014494073932,None,1601.3014494073932,None,1602.30122518294,None,1602.30122518294,None,1603.2843996879465,None,1603.2843996879465,None,c,,,,,,,,,,,,,,,,,,,,,,,,,,,,,,,,,,,,,,,,,,,,,,,69_70Exp,001,2021_May_25_1038,ComputerHuman,2020.1.3,59.982413641167064,
Computer.xlsx,c,Sychronize.jpg,Number8.jpg,8,Computer,,,,,0,9,9,1,0,1,1,5,,,,,,,,,,,,,,,,,,,,,,,,,,,,,1604.334053375043,None,1604.334053375043,None,1604.7846688214454,None,1604.7846688214454,None,v,7.68016290435753,1604.7846688214454,None,t,7.063160082786908,1604.7846688214454,None,7.68016290435753,7.063160082786908,7.555640642106118,False,True,False,1612.5330687762798,None,1612.5330687762798,None,1612.5330687762798,None,1612.5330687762798,None,1612.5330687762798,None,1612.5330687762798,None,1612.5330687762798,None,1612.5330687762798,None,1613.5319309735128,None,1613.5319309735128,None,1614.515051587663,None,1614.515051587663,None,c,,,,,,,,,,,,,,,,,,,,,,,,,,,,,,,,,,,,,,,,,,,,,,,69_70Exp,001,2021_May_25_1038,ComputerHuman,2020.1.3,59.982413641167064,
Computer.xlsx,c,Sychronize.jpg,Number8.jpg,8,Computer,,,,,0,9,9,1,0,2,2,4,,,,,,,,,,,,,,,,,,,,,,,,,,,,,1615.581839359058,None,1615.581839359058,None,1616.0148860657496,None,1616.0148860657496,None,v,7.009157916887489,1616.0148860657496,None,t,7.044169009421694,1616.0148860657496,None,7.009157916887489,7.044169009421694,8.33346053004844,False,False,False,1623.1464015664274,None,1623.1464015664274,None,1623.1464015664274,None,1623.1464015664274,None,1623.1464015664274,None,1623.1464015664274,None,1623.1464015664274,None,1623.1464015664274,None,1624.1459399655869,None,1624.1459399655869,None,1625.1292171198415,None,1625.1292171198415,None,c,,,,,,,,,,,,,,,,,,,,,,,,,,,,,,,,,,,,,,,,,,,,,,,69_70Exp,001,2021_May_25_1038,ComputerHuman,2020.1.3,59.982413641167064,
Computer.xlsx,c,Sychronize.jpg,Number9.jpg,9,Computer,,,,,0,9,9,1,0,3,3,7,,,,,,,,,,,,,,,,,,,,,,,,,,,,,1626.17937892072,None,1626.17937892072,None,1626.6125908285462,None,1626.6125908285462,None,v,8.838749898954575,1626.6125908285462,None,t,7.50610217706253,1626.6125908285462,None,8.838749898954575,7.50610217706253,9.550548417792974,False,False,False,1635.5433728361859,None,1635.5433728361859,None,1635.5433728361859,None,1635.5433728361859,None,1635.5433728361859,None,1635.5433728361859,None,1635.5433728361859,None,1635.5433728361859,None,1636.543056548188,None,1636.543056548188,None,1637.5262528661597,None,1637.5262528661597,None,c,,,,,,,,,,,,,,,,,,,,,,,,,,,,,,,,,,,,,,,,,,,,,,,69_70Exp,001,2021_May_25_1038,ComputerHuman,2020.1.3,59.982413641167064,
Computer.xlsx,c,Sychronize.jpg,Number9.jpg,9,Computer,,,,,0,9,9,1,0,4,4,6,,,,,,,,,,,,,,,,,,,,,,,,,,,,,1638.559478182544,None,1638.559478182544,None,1639.0260841364566,None,1639.0260841364566,None,v,9.108155418661681,1639.0260841364566,None,t,7.91107655965925,1639.0260841364566,None,9.108155418661681,7.91107655965925,9.674840161078931,False,False,False,1648.2074489993624,None,1648.2074489993624,None,1648.2074489993624,None,1648.2074489993624,None,1648.2074489993624,None,1648.2074489993624,None,1648.2074489993624,None,1648.2074489993624,None,1649.206568140496,None,1649.206568140496,None,1650.189916507667,None,1650.189916507667,None,c,,,,,,,,,,,,,,,,,,,,,,,,,,,,,,,,,,,,,,,,,,,,,,,69_70Exp,001,2021_May_25_1038,ComputerHuman,2020.1.3,59.982413641167064,
Computer.xlsx,c,Sychronize.jpg,Number7.jpg,7,Computer,,,,,0,9,9,1,0,5,5,3,,,,,,,,,,,,,,,,,,,,,,,,,,,,,1651.2563642534255,None,1651.2563642534255,None,1651.7063124797105,None,1651.7063124797105,None,v,7.019111686232009,1651.7063124797105,None,t,6.334154099618445,1651.7063124797105,None,7.019111686232009,6.334154099618445,6.889487223664815,False,True,False,1658.8210172412246,None,1658.8210172412246,None,1658.8210172412246,None,1658.8210172412246,None,1658.8210172412246,None,1658.8210172412246,None,1658.8210172412246,None,1658.8210172412246,None,1659.820893099789,None,1659.820893099789,None,1660.787243392917,None,1660.787243392917,None,c,,,,,,,,,,,,,,,,,,,,,,,,,,,,,,,,,,,,,,,,,,,,,,,69_70Exp,001,2021_May_25_1038,ComputerHuman,2020.1.3,59.982413641167064,
Computer.xlsx,c,Sychronize.jpg,Number7.jpg,7,Computer,,,,,0,9,9,1,0,6,6,2,,,,,,,,,,,,,,,,,,,,,,,,,,,,,1661.8368447930525,None,1661.8368447930525,None,1662.2872007293226,None,1662.2872007293226,None,v,6.737531965617563,1662.2872007293226,None,t,5.9891971289007415,1662.2872007293226,None,6.737531965617563,5.9891971289007415,6.4778491750108,False,True,False,1669.1186166602297,None,1669.1186166602297,None,1669.1186166602297,None,1669.1186166602297,None,1669.1186166602297,None,1669.1186166602297,None,1669.1186166602297,None,1669.1186166602297,None,1670.1183873033142,None,1670.1183873033142,None,1671.101463970755,None,1671.101463970755,None,c,,,,,,,,,,,,,,,,,,,,,,,,,,,,,,,,,,,,,,,,,,,,,,,69_70Exp,001,2021_May_25_1038,ComputerHuman,2020.1.3,59.982413641167064,
Computer.xlsx,c,Sychronize.jpg,Number10.jpg,10,Computer,,,,,0,9,9,1,0,7,7,8,,,,,,,,,,,,,,,,,,,,,,,,,,,,,1672.1511721902657,None,1672.1511721902657,None,1672.6017064796056,None,1672.6017064796056,None,v,10.082038241977443,1672.6017064796056,None,t,8.612997896973411,1672.6017064796056,None,10.082038241977443,8.612997896973411,10.220666662034166,False,True,False,1682.7492140916888,None,1682.7492140916888,None,1682.7492140916888,None,1682.7492140916888,None,1682.7492140916888,None,1682.7492140916888,None,1682.7492140916888,None,1682.7492140916888,None,1683.765055116231,None,1683.765055116231,None,1684.7648533463012,None,1684.7648533463012,None,c,,,,,,,,,,,,,,,,,,,,,,,,,,,,,,,,,,,,,,,,,,,,,,,69_70Exp,001,2021_May_25_1038,ComputerHuman,2020.1.3,59.982413641167064,
Computer.xlsx,c,Sychronize.jpg,Number6.jpg,6,Computer,,,,,0,9,9,1,0,8,8,0,,,,,,,,,,,,,,,,,,,,,,,,,,,,,1685.8152105015315,None,1685.8152105015315,None,1686.2649332202482,None,1686.2649332202482,None,v,6.242078365002726,1686.2649332202482,None,t,5.3452354068053864,1686.2649332202482,None,6.242078365002726,5.3452354068053864,6.2164459013264874,False,True,False,1692.5962740888917,None,1692.5962740888917,None,1692.5962740888917,None,1692.5962740888917,None,1692.5962740888917,None,1692.5962740888917,None,1692.5962740888917,None,1692.5962740888917,None,1693.5960161826542,None,1693.5960161826542,None,1694.5624575769903,None,1694.5624575769903,None,c,,,,,,,,,,,,,,,,,,,,,,,,,,,,,,,,,,,,,,,,,,,,,,,69_70Exp,001,2021_May_25_1038,ComputerHuman,2020.1.3,59.982413641167064,
Computer.xlsx,c,Sychronize.jpg,Number10.jpg,10,Computer,,,,,0,9,9,1,0,9,9,9,,,,,,,,,,,,,,,,,,,,,,,,,,,,,1695.612634133698,None,1695.612634133698,None,1696.062648440437,None,1696.062648440437,None,v,9.287494562797747,1696.062648440437,None,t,8.634971893352485,1696.062648440437,None,9.287494562797747,8.634971893352485,10.451660843343115,False,False,False,1705.4431464304366,None,1705.4431464304366,None,1705.4431464304366,None,1705.4431464304366,None,1705.4431464304366,None,1705.4431464304366,None,1705.4431464304366,None,1705.4431464304366,None,1706.4429103371644,None,1706.4429103371644,None,1707.4260877291804,None,1707.4260877291804,None,c,,,,,,,,,,,,,,,,,,,,,,,,,,,,,,,,,,,,,,,,,,,,,,,69_70Exp,001,2021_May_25_1038,ComputerHuman,2020.1.3,59.982413641167064,
Computer.xlsx,c,,,,,,,,,0,9,9,1,,,,,,,,,,,,,,,,,,,,,,,,,,,,,,,,,,,,,,,,,,,,,,,,,,,,,,,,,,,,,,,,,,,,,,,,,,,,,,,c,1708.426131996669,None,1708.426131996669,None,q,0,2.9835276825779147,1708.426131996669,None,l,0,1.4344895701951828,1708.426131996669,None,h,c,1711.5085279071227,None,1711.5085279071227,None,None,None,1713.4912270177956,None,1713.4912270177956,None,"['space', 'space']",1714.4743947864445,None,"[202.71247849177462, 207.86010318815715]",,,,,,,,,,,,,,,,,69_70Exp,001,2021_May_25_1038,ComputerHuman,2020.1.3,59.982413641167064,
Computer.xlsx,c,Sychronize.jpg,Number9.jpg,9,Computer,,,,,1,0,10,1,0,0,0,7,,,,,,,,,,,,,,,,,,,,,,,,,1922.3942497815497,None,1922.3942497815497,None,1925.473310232975,None,1925.473310232975,None,1925.9069776468427,None,1925.9069776468427,None,v,8.250653747403248,1925.9069776468427,None,t,7.925951718925717,1925.9069776468427,None,8.250653747403248,7.925951718925717,9.408393594972281,False,False,False,1934.2391175757325,None,1934.2391175757325,None,1934.2391175757325,None,1934.2391175757325,None,1934.2391175757325,None,1934.2391175757325,None,1934.2391175757325,None,1934.2391175757325,None,1935.271259621763,None,1935.271259621763,None,1936.254284002243,None,1936.254284002243,None,c,,,,,,,,,,,,,,,,,,,,,,,,,,,,,,,,,,,,,,,,,,,,,,,69_70Exp,001,2021_May_25_1038,ComputerHuman,2020.1.3,59.982413641167064,
Computer.xlsx,c,Sychronize.jpg,Number8.jpg,8,Computer,,,,,1,0,10,1,0,1,1,5,,,,,,,,,,,,,,,,,,,,,,,,,,,,,1937.3038700049915,None,1937.3038700049915,None,1937.7544395800105,None,1937.7544395800105,None,v,7.410398112280291,1937.7544395800105,None,t,6.874123792428236,1937.7544395800105,None,7.410398112280291,6.874123792428236,8.118379858564541,False,False,False,1945.235842423138,None,1945.235842423138,None,1945.235842423138,None,1945.235842423138,None,1945.235842423138,None,1945.235842423138,None,1945.235842423138,None,1945.235842423138,None,1946.2351043108833,None,1946.2351043108833,None,1947.2184045612194,None,1947.2184045612194,None,c,,,,,,,,,,,,,,,,,,,,,,,,,,,,,,,,,,,,,,,,,,,,,,,69_70Exp,001,2021_May_25_1038,ComputerHuman,2020.1.3,59.982413641167064,
Computer.xlsx,c,Sychronize.jpg,Number7.jpg,7,Computer,,,,,1,0,10,1,0,2,2,3,,,,,,,,,,,,,,,,,,,,,,,,,,,,,1948.2693795366154,None,1948.2693795366154,None,1948.718576177932,None,1948.718576177932,None,v,7.097574526562312,1948.718576177932,None,t,5.86120987537106,1948.718576177932,None,7.097574526562312,5.86120987537106,6.498893409619927,False,False,False,1955.8831870795389,None,1955.8831870795389,None,1955.8831870795389,None,1955.8831870795389,None,1955.8831870795389,None,1955.8831870795389,None,1955.8831870795389,None,1955.8831870795389,None,1956.8993338063751,None,1956.8993338063751,None,1957.8825679762572,None,1957.8825679762572,None,c,,,,,,,,,,,,,,,,,,,,,,,,,,,,,,,,,,,,,,,,,,,,,,,69_70Exp,001,2021_May_25_1038,ComputerHuman,2020.1.3,59.982413641167064,
Computer.xlsx,c,Sychronize.jpg,Number8.jpg,8,Computer,,,,,1,0,10,1,0,3,3,4,,,,,,,,,,,,,,,,,,,,,,,,,,,,,1958.916475589367,None,1958.916475589367,None,1959.3823273920802,None,1959.3823273920802,None,v,7.932902676964204,1959.3823273920802,None,t,6.84408605599765,1959.3823273920802,None,7.932902676964204,6.84408605599765,7.588929835192267,False,False,False,1967.3805945444492,None,1967.3805945444492,None,1967.3805945444492,None,1967.3805945444492,None,1967.3805945444492,None,1967.3805945444492,None,1967.3805945444492,None,1967.3805945444492,None,1968.4131734913449,None,1968.4131734913449,None,1969.396367243085,None,1969.396367243085,None,c,,,,,,,,,,,,,,,,,,,,,,,,,,,,,,,,,,,,,,,,,,,,,,,69_70Exp,001,2021_May_25_1038,ComputerHuman,2020.1.3,59.982413641167064,
Computer.xlsx,c,Sychronize.jpg,Number10.jpg,10,Computer,,,,,1,0,10,1,0,4,4,8,,,,,,,,,,,,,,,,,,,,,,,,,,,,,1970.4467115671587,None,1970.4467115671587,None,1970.8964339650965,None,1970.8964339650965,None,v,10.625784785584983,1970.8964339650965,None,t,8.744998736131038,1970.8964339650965,None,10.625784785584983,8.744998736131038,9.680108291459103,False,False,False,1981.5938095445836,None,1981.5938095445836,None,1981.5938095445836,None,1981.5938095445836,None,1981.5938095445836,None,1981.5938095445836,None,1981.5938095445836,None,1981.5938095445836,None,1982.592976802553,None,1982.592976802553,None,1983.5762068023091,None,1983.5762068023091,None,c,,,,,,,,,,,,,,,,,,,,,,,,,,,,,,,,,,,,,,,,,,,,,,,69_70Exp,001,2021_May_25_1038,ComputerHuman,2020.1.3,59.982413641167064,
Computer.xlsx,c,Sychronize.jpg,Number6.jpg,6,Computer,,,,,1,0,10,1,0,5,5,1,,,,,,,,,,,,,,,,,,,,,,,,,,,,,1984.6593074640118,None,1984.6593074640118,None,1985.0928221871218,None,1985.0928221871218,None,v,5.976750265925602,1985.0928221871218,None,t,5.232239113726337,1985.0928221871218,None,5.976750265925602,5.232239113726337,6.107316810647162,False,True,False,1991.1416373581674,None,1991.1416373581674,None,1991.1416373581674,None,1991.1416373581674,None,1991.1416373581674,None,1991.1416373581674,None,1991.1416373581674,None,1991.1416373581674,None,1992.1573475049177,None,1992.1573475049177,None,1993.1238110329978,None,1993.1238110329978,None,c,,,,,,,,,,,,,,,,,,,,,,,,,,,,,,,,,,,,,,,,,,,,,,,69_70Exp,001,2021_May_25_1038,ComputerHuman,2020.1.3,59.982413641167064,
Computer.xlsx,c,Sychronize.jpg,Number7.jpg,7,Computer,,,,,1,0,10,1,0,6,6,2,,,,,,,,,,,,,,,,,,,,,,,,,,,,,1994.1744001113743,None,1994.1744001113743,None,1994.624208157279,None,1994.624208157279,None,v,5.708664109844904,1994.624208157279,None,t,6.052149988516248,1994.624208157279,None,5.708664109844904,6.052149988516248,6.705448573877177,False,False,False,2000.73890201231,None,2000.73890201231,None,2000.73890201231,None,2000.73890201231,None,2000.73890201231,None,2000.73890201231,None,2000.73890201231,None,2000.73890201231,None,2001.7713860086506,None,2001.7713860086506,None,2002.7550089625624,None,2002.7550089625624,None,c,,,,,,,,,,,,,,,,,,,,,,,,,,,,,,,,,,,,,,,,,,,,,,,69_70Exp,001,2021_May_25_1038,ComputerHuman,2020.1.3,59.982413641167064,
Computer.xlsx,c,Sychronize.jpg,Number9.jpg,9,Computer,,,,,1,0,10,1,0,7,7,6,,,,,,,,,,,,,,,,,,,,,,,,,,,,,2003.8054687670415,None,2003.8054687670415,None,2004.2549470522345,None,2004.2549470522345,None,v,9.41695900317336,2004.2549470522345,None,t,7.943990720508282,2004.2549470522345,None,9.41695900317336,7.943990720508282,9.107185949714706,False,False,False,2013.7528911802483,None,2013.7528911802483,None,2013.7528911802483,None,2013.7528911802483,None,2013.7528911802483,None,2013.7528911802483,None,2013.7528911802483,None,2013.7528911802483,None,2014.751878160474,None,2014.751878160474,None,2015.735154673171,None,2015.735154673171,None,c,,,,,,,,,,,,,,,,,,,,,,,,,,,,,,,,,,,,,,,,,,,,,,,69_70Exp,001,2021_May_25_1038,ComputerHuman,2020.1.3,59.982413641167064,
Computer.xlsx,c,Sychronize.jpg,Number10.jpg,10,Computer,,,,,1,0,10,1,0,8,8,9,,,,,,,,,,,,,,,,,,,,,,,,,,,,,2016.8024082155325,None,2016.8024082155325,None,2017.2349862642473,None,2017.2349862642473,None,v,9.503952637636758,2017.2349862642473,None,t,8.007079590377998,2017.2349862642473,None,9.503952637636758,8.007079590377998,10.570963339958686,False,False,False,2026.8323596624377,None,2026.8323596624377,None,2026.8323596624377,None,2026.8323596624377,None,2026.8323596624377,None,2026.8323596624377,None,2026.8323596624377,None,2026.8323596624377,None,2027.8155777933748,None,2027.8155777933748,None,2028.7985720206375,None,2028.7985720206375,None,c,,,,,,,,,,,,,,,,,,,,,,,,,,,,,,,,,,,,,,,,,,,,,,,69_70Exp,001,2021_May_25_1038,ComputerHuman,2020.1.3,59.982413641167064,
Computer.xlsx,c,Sychronize.jpg,Number6.jpg,6,Computer,,,,,1,0,10,1,0,9,9,0,,,,,,,,,,,,,,,,,,,,,,,,,,,,,2029.8490812250675,None,2029.8490812250675,None,2030.2988081139097,None,2030.2988081139097,None,v,7.25136234799902,2030.2988081139097,None,t,5.211247342346724,2030.2988081139097,None,7.25136234799902,5.211247342346724,5.861441311966261,False,False,False,2037.630453080953,None,2037.630453080953,None,2037.630453080953,None,2037.630453080953,None,2037.630453080953,None,2037.630453080953,None,2037.630453080953,None,2037.630453080953,None,2038.6463916222815,None,2038.6463916222815,None,2039.6294833663305,None,2039.6294833663305,None,c,,,,,,,,,,,,,,,,,,,,,,,,,,,,,,,,,,,,,,,,,,,,,,,69_70Exp,001,2021_May_25_1038,ComputerHuman,2020.1.3,59.982413641167064,
Computer.xlsx,c,,,,,,,,,1,0,10,1,,,,,,,,,,,,,,,,,,,,,,,,,,,,,,,,,,,,,,,,,,,,,,,,,,,,,,,,,,,,,,,,,,,,,,,,,,,,,,,c,2040.6304992731148,None,2040.6304992731148,None,q,0,5.127152586825559,2040.6304992731148,None,l,0,2.1425134053502006,2040.6304992731148,None,h,c,2045.8285138441756,None,2045.8285138441756,None,2047.8274466127673,None,None,None,None,None,None,None,None,,,,,,,,,,,,,,,,,,69_70Exp,001,2021_May_25_1038,ComputerHuman,2020.1.3,59.982413641167064,
Human.xlsx,h,Sychronize.jpg,Number9.jpg,9,Human,,,,,1,1,11,0,0,0,0,6,,,,,,,,,,,,,,,,,,,,,,,,,2052.8452902599975,None,2052.8452902599975,None,2055.9254503415013,None,2055.9254503415013,None,2056.359255048739,None,2056.359255048739,None,v,8.720960527514308,2056.359255048739,None,t,7.684014817419211,2056.359255048739,None,8.720960527514308,7.684014817419211,9.667863968504449,False,False,False,2065.1584679856237,None,2065.1584679856237,None,2065.1584679856237,None,2065.1584679856237,None,2065.1584679856237,None,2065.1584679856237,None,2065.1584679856237,None,2065.1584679856237,None,2066.1588731293778,None,2066.1588731293778,None,2067.156089089283,None,2067.156089089283,None,h,,,,,,,,,,,,,,,,,,,,,,,,,,,,,,,,,,,,,,,,,,,,,,,69_70Exp,001,2021_May_25_1038,ComputerHuman,2020.1.3,59.982413641167064,
Human.xlsx,h,Sychronize.jpg,Number6.jpg,6,Human,,,,,1,1,11,0,0,1,1,0,,,,,,,,,,,,,,,,,,,,,,,,,,,,,2068.2399378073865,None,2068.2399378073865,None,2068.672690680603,None,2068.672690680603,None,v,6.338909005290134,2068.672690680603,None,t,5.258230545080551,2068.672690680603,None,6.338909005290134,5.258230545080551,5.861066563866407,False,False,False,2075.104260200448,None,2075.104260200448,None,2075.104260200448,None,2075.104260200448,None,2075.104260200448,None,2075.104260200448,None,2075.104260200448,None,2075.104260200448,None,2076.088883663757,None,2076.088883663757,None,2077.07039011847,None,2077.07039011847,None,h,,,,,,,,,,,,,,,,,,,,,,,,,,,,,,,,,,,,,,,,,,,,,,,69_70Exp,001,2021_May_25_1038,ComputerHuman,2020.1.3,59.982413641167064,
Human.xlsx,h,Sychronize.jpg,Number10.jpg,10,Human,,,,,1,1,11,0,0,2,2,9,,,,,,,,,,,,,,,,,,,,,,,,,,,,,2078.137914077446,None,2078.137914077446,None,2078.5704404807575,None,2078.5704404807575,None,v,11.23597490482507,2078.5704404807575,None,t,8.782975429619455,2078.5704404807575,None,11.23597490482507,8.782975429619455,9.876801777942614,False,False,False,2089.8845895249005,None,2089.8845895249005,None,2089.8845895249005,None,2089.8845895249005,None,2089.8845895249005,None,2089.8845895249005,None,2089.8845895249005,None,2089.8845895249005,None,2090.886391660775,None,2090.886391660775,None,2091.883568806433,None,2091.883568806433,None,h,,,,,,,,,,,,,,,,,,,,,,,,,,,,,,,,,,,,,,,,,,,,,,,69_70Exp,001,2021_May_25_1038,ComputerHuman,2020.1.3,59.982413641167064,
Human.xlsx,h,Sychronize.jpg,Number8.jpg,8,Human,,,,,1,1,11,0,0,3,3,4,,,,,,,,,,,,,,,,,,,,,,,,,,,,,2092.933643034671,None,2092.933643034671,None,2093.3833670365034,None,2093.3833670365034,None,v,7.510270378121277,2093.3833670365034,None,t,6.889139132074888,2093.3833670365034,None,7.510270378121277,6.889139132074888,8.506248381235482,False,False,False,2100.965329253881,None,2100.965329253881,None,2100.965329253881,None,2100.965329253881,None,2100.965329253881,None,2100.965329253881,None,2100.965329253881,None,2100.965329253881,None,2101.9666912811012,None,2101.9666912811012,None,2102.964219679657,None,2102.964219679657,None,h,,,,,,,,,,,,,,,,,,,,,,,,,,,,,,,,,,,,,,,,,,,,,,,69_70Exp,001,2021_May_25_1038,ComputerHuman,2020.1.3,59.982413641167064,
Human.xlsx,h,Sychronize.jpg,Number9.jpg,9,Human,,,,,1,1,11,0,0,4,4,7,,,,,,,,,,,,,,,,,,,,,,,,,,,,,2104.0136581241104,None,2104.0136581241104,None,2104.4639094864588,None,2104.4639094864588,None,v,9.83275454126715,2104.4639094864588,None,t,7.916044141743441,2104.4639094864588,None,9.83275454126715,7.916044141743441,8.50946227531464,False,False,False,2114.3947992758094,None,2114.3947992758094,None,2114.3947992758094,None,2114.3947992758094,None,2114.3947992758094,None,2114.3947992758094,None,2114.3947992758094,None,2114.3947992758094,None,2115.363085469614,None,2115.363085469614,None,2116.3609086639813,None,2116.3609086639813,None,h,,,,,,,,,,,,,,,,,,,,,,,,,,,,,,,,,,,,,,,,,,,,,,,69_70Exp,001,2021_May_25_1038,ComputerHuman,2020.1.3,59.982413641167064,
Human.xlsx,h,Sychronize.jpg,Number7.jpg,7,Human,,,,,1,1,11,0,0,5,5,3,,,,,,,,,,,,,,,,,,,,,,,,,,,,,2117.3949753834268,None,2117.3949753834268,None,2117.8776395291993,None,2117.8776395291993,None,v,8.606150229741615,2117.8776395291993,None,t,5.953264117800245,2117.8776395291993,None,8.606150229741615,5.953264117800245,6.636587742538244,False,False,False,2126.560082209217,None,2126.560082209217,None,2126.560082209217,None,2126.560082209217,None,2126.560082209217,None,2126.560082209217,None,2126.560082209217,None,2126.560082209217,None,2127.5434001023928,None,2127.5434001023928,None,2128.5413134356318,None,2128.5413134356318,None,h,,,,,,,,,,,,,,,,,,,,,,,,,,,,,,,,,,,,,,,,,,,,,,,69_70Exp,001,2021_May_25_1038,ComputerHuman,2020.1.3,59.982413641167064,
Human.xlsx,h,Sychronize.jpg,Number6.jpg,6,Human,,,,,1,1,11,0,0,6,6,1,,,,,,,,,,,,,,,,,,,,,,,,,,,,,2129.6083321678366,None,2129.6083321678366,None,2130.0414953172694,None,2130.0414953172694,None,v,6.409574672837607,2130.0414953172694,None,t,4.9092465160201755,2130.0414953172694,None,6.409574672837607,4.9092465160201755,5.9432916671736535,False,False,False,2136.5394840335507,None,2136.5394840335507,None,2136.5394840335507,None,2136.5394840335507,None,2136.5394840335507,None,2136.5394840335507,None,2136.5394840335507,None,2136.5394840335507,None,2137.524767018283,None,2137.524767018283,None,2138.522358610283,None,2138.522358610283,None,h,,,,,,,,,,,,,,,,,,,,,,,,,,,,,,,,,,,,,,,,,,,,,,,69_70Exp,001,2021_May_25_1038,ComputerHuman,2020.1.3,59.982413641167064,
Human.xlsx,h,Sychronize.jpg,Number8.jpg,8,Human,,,,,1,1,11,0,0,7,7,5,,,,,,,,,,,,,,,,,,,,,,,,,,,,,2139.5552775828155,None,2139.5552775828155,None,2140.022434955662,None,2140.022434955662,None,v,7.959775287963112,2140.022434955662,None,t,6.971369199836317,2140.022434955662,None,7.959775287963112,6.971369199836317,7.465298399705129,False,False,False,2148.0699118371263,None,2148.0699118371263,None,2148.0699118371263,None,2148.0699118371263,None,2148.0699118371263,None,2148.0699118371263,None,2148.0699118371263,None,2148.0699118371263,None,2149.03886172248,None,2149.03886172248,None,2150.036158518669,None,2150.036158518669,None,h,,,,,,,,,,,,,,,,,,,,,,,,,,,,,,,,,,,,,,,,,,,,,,,69_70Exp,001,2021_May_25_1038,ComputerHuman,2020.1.3,59.982413641167064,
Human.xlsx,h,Sychronize.jpg,Number10.jpg,10,Human,,,,,1,1,11,0,0,8,8,8,,,,,,,,,,,,,,,,,,,,,,,,,,,,,2151.1194850087186,None,2151.1194850087186,None,2151.55299652404,None,2151.55299652404,None,v,10.392230478358215,2151.55299652404,None,t,8.8119898813502,2151.55299652404,None,10.392230478358215,8.8119898813502,9.602360111858204,False,False,False,2162.0332647721893,None,2162.0332647721893,None,2162.0332647721893,None,2162.0332647721893,None,2162.0332647721893,None,2162.0332647721893,None,2162.0332647721893,None,2162.0332647721893,None,2163.0020010187936,None,2163.0020010187936,None,2163.9994655823484,None,2163.9994655823484,None,h,,,,,,,,,,,,,,,,,,,,,,,,,,,,,,,,,,,,,,,,,,,,,,,69_70Exp,001,2021_May_25_1038,ComputerHuman,2020.1.3,59.982413641167064,
Human.xlsx,h,Sychronize.jpg,Number7.jpg,7,Human,,,,,1,1,11,0,0,9,9,2,,,,,,,,,,,,,,,,,,,,,,,,,,,,,2165.0662822238446,None,2165.0662822238446,None,2165.499198052744,None,2165.499198052744,None,v,7.081305262185651,2165.499198052744,None,t,6.268167954700857,2165.499198052744,None,7.081305262185651,6.268167954700857,6.715441293155923,False,False,False,2172.6476516418106,None,2172.6476516418106,None,2172.6476516418106,None,2172.6476516418106,None,2172.6476516418106,None,2172.6476516418106,None,2172.6476516418106,None,2172.6476516418106,None,2173.6491509624007,None,2173.6491509624007,None,2174.6468435997554,None,2174.6468435997554,None,h,,,,,,,,,,,,,,,,,,,,,,,,,,,,,,,,,,,,,,,,,,,,,,,69_70Exp,001,2021_May_25_1038,ComputerHuman,2020.1.3,59.982413641167064,
Human.xlsx,h,,,,,,,,,1,1,11,0,,,,,,,,,,,,,,,,,,,,,,,,,,,,,,,,,,,,,,,,,,,,,,,,,,,,,,,,,,,,,,,,,,,,,,,,,,,,,,,h,2175.647748837818,None,2175.647748837818,None,q,0,4.484168598824908,2175.647748837818,None,l,0,10.898813182216145,2175.647748837818,None,h,c,2186.644709457717,None,2186.644709457717,None,2188.6435995627144,None,None,None,None,None,None,None,None,,,,,,,,,,,,,,,,,,69_70Exp,001,2021_May_25_1038,ComputerHuman,2020.1.3,59.982413641167064,
