Condition,CorrectTuringReply,Sychronize,NumberImage,Number,Partner,trials.thisRepN,trials.thisTrialN,trials.thisN,trials.thisIndex,Block.thisRepN,Block.thisTrialN,Block.thisN,Block.thisIndex,trials_loop.thisRepN,trials_loop.thisTrialN,trials_loop.thisN,trials_loop.thisIndex,key_resp_Istr.keys,key_resp_Istr.rt,key_resp_Istr.started,key_resp_Istr.stopped,key_respPrLeft.keys,key_respPrLeft.rt,key_respPrRight.keys,key_respPrRight.rt,RTPrLeft,RTPrRight,CompPr,SychronizedRTsPr,SychronizedRTsLeftCPr,SychronizedRTsRightCPr,CreditLeftPr.started,CreditLeftPr.stopped,CreditRightPr.started,CreditRightPr.stopped,text_StartExp.started,text_StartExp.stopped,key_startExp.keys,key_startExp.rt,key_startExp.started,key_startExp.stopped,SychroLeft.started,SychroLeft.stopped,SychroRight.started,SychroRight.stopped,NumberLeft.started,NumberLeft.stopped,NumberRight.started,NumberRight.stopped,CrossLeft.started,CrossLeft.stopped,CrossRight.started,CrossRight.stopped,key_respLeft.keys,key_respLeft.rt,key_respLeft.started,key_respLeft.stopped,key_respRight.keys,key_respRight.rt,key_respRight.started,key_respRight.stopped,RTLeft,RTRight,Comp,SychronizedRTs,SychronizedRTsLeftC,SychronizedRTsRightC,FeedbackLeftLeft.started,FeedbackLeftLeft.stopped,FeedbackLeftRight.started,FeedbackLeftRight.stopped,FeedbackRightLeft.started,FeedbackRightLeft.stopped,FeedbackRightRight.started,FeedbackRightRight.stopped,textLeftLeft.started,textLeftLeft.stopped,textLeftRight.started,textLeftRight.stopped,textRightLeft.started,textRightLeft.stopped,textRightRight.started,textRightRight.stopped,CreditLeft.started,CreditLeft.stopped,CreditRight.started,CreditRight.stopped,BlankLeft.started,BlankLeft.stopped,BlankRight.started,BlankRight.stopped,CorrectTuringReply,TuringtextLeft.started,TuringtextLeft.stopped,TuringtextRight.started,TuringtextRight.stopped,keyTuringLeft.keys,keyTuringLeft.corr,keyTuringLeft.rt,keyTuringLeft.started,keyTuringLeft.stopped,keyTuringRight.keys,keyTuringRight.corr,keyTuringRight.rt,keyTuringRight.started,keyTuringRight.stopped,RespTuringLeft,RespTuringRight,ScoreLeft.started,ScoreLeft.stopped,ScoreRight.started,ScoreRight.stopped,BlockText.started,BlockText.stopped,text_Pause.started,text_Pause.stopped,text_LongPause.started,text_LongPause.stopped,key_respPause.keys,key_respPause.started,key_respPause.stopped,key_respPause.rt,QuestImageLeft.started,QuestImageLeft.stopped,QuestImageRight.started,QuestImageRight.stopped,respQuestLeft.keys,respQuestLeft.rt,respQuestLeft.started,respQuestLeft.stopped,respQuestRight.keys,respQuestRight.rt,respQuestRight.started,respQuestRight.stopped,RespInclusionLeft,RespInclusionRight,EndText.started,EndText.stopped,participant,session,date,expName,psychopyVersion,frameRate,
,,,,,,,,,,,,,,,,,,"['v', 'v', 'v', 'v', 'v', 'v', 'v', 't']","[231.94588817773308, 232.76203957009, 235.78980426676378, 239.10563871858506, 239.62158583185976, 240.04955500008975, 250.1332013175487, 251.2893404044006]",17.128043014091645,None,,,,,,,,,,,,,,,,,,,,,,,,,,,,,,,,,,,,,,,,,,,,,,,,,,,,,,,,,,,,,,,,,,,,,,,,,,,,,,,,,,,,,,,,,,,,,,,,,,,,,,,,,,,,,,,,,,,,,,71_72Exp,001,2021_May_26_1033,ComputerHuman,2020.1.3,59.9724888368189,
,,,,,,,,,,,,,,,,,,,,,,v,8.839159093883836,t,8.234553319150109,8.839159093883836,8.234553319150109,9,False,False,False,332.8463165607203,None,332.8463165607203,None,333.8461070848399,None,"['space', 'space']","[4.253283285813723, 64.09498014951396]",334.82936120442525,None,,,,,,,,,,,,,,,,,,,,,,,,,,,,,,,,,,,,,,,,,,,,,,,,,,,,,,,,,,,,,,,,,,,,,,,,,,,,,,,,,,,,,,,,,,,,,,,,,,71_72Exp,001,2021_May_26_1033,ComputerHuman,2020.1.3,59.9724888368189,
Human.xlsx,h,Sychronize.jpg,Number6.jpg,6,Human,,,,,0,0,0,2,0,0,0,1,,,,,,,,,,,,,,,,,,,,,,,,,399.0188919656215,None,399.0188919656215,None,402.0492274734835,None,402.0492274734835,None,402.4992888085345,None,402.4992888085345,None,v,7.076659831700681,402.4992888085345,None,t,5.011782617287281,402.4992888085345,None,7.076659831700681,5.011782617287281,6.207758395058145,False,False,False,409.64757559737507,None,409.64757559737507,None,409.64757559737507,None,409.64757559737507,None,409.64757559737507,None,409.64757559737507,None,409.64757559737507,None,409.64757559737507,None,410.65124030251775,None,410.65124030251775,None,411.6634466834163,None,411.6634466834163,None,h,,,,,,,,,,,,,,,,,,,,,,,,,,,,,,,,,,,,,,,,,,,,,,,71_72Exp,001,2021_May_26_1033,ComputerHuman,2020.1.3,59.9724888368189,
Human.xlsx,h,Sychronize.jpg,Number7.jpg,7,Human,,,,,0,0,0,2,0,1,1,3,,,,,,,,,,,,,,,,,,,,,,,,,,,,,412.71324355917807,None,412.71324355917807,None,413.1635278432901,None,413.1635278432901,None,v,6.344027082376215,413.1635278432901,None,t,6.455636665529028,413.1635278432901,None,6.344027082376215,6.455636665529028,7.278981632289299,True,False,False,419.71167714153,None,419.71167714153,None,419.71167714153,None,419.71167714153,None,419.71167714153,None,419.71167714153,None,419.71167714153,None,419.71167714153,None,420.6972743113921,None,420.6972743113921,None,421.6780451954638,None,421.6780451954638,None,h,,,,,,,,,,,,,,,,,,,,,,,,,,,,,,,,,,,,,,,,,,,,,,,71_72Exp,001,2021_May_26_1033,ComputerHuman,2020.1.3,59.9724888368189,
Human.xlsx,h,Sychronize.jpg,Number7.jpg,7,Human,,,,,0,0,0,2,0,2,2,2,,,,,,,,,,,,,,,,,,,,,,,,,,,,,422.72831876518933,None,422.72831876518933,None,423.17811641084734,None,423.17811641084734,None,v,6.121076417314271,423.17811641084734,None,t,6.4047606521533,423.17811641084734,None,6.121076417314271,6.4047606521533,7.415000707939667,True,False,False,429.6602785612182,None,429.6602785612182,None,429.6602785612182,None,429.6602785612182,None,429.6602785612182,None,429.6602785612182,None,429.6602785612182,None,429.6602785612182,None,430.6619152318798,None,430.6619152318798,None,431.6593453830618,None,431.6593453830618,None,h,,,,,,,,,,,,,,,,,,,,,,,,,,,,,,,,,,,,,,,,,,,,,,,71_72Exp,001,2021_May_26_1033,ComputerHuman,2020.1.3,59.9724888368189,
Human.xlsx,h,Sychronize.jpg,Number8.jpg,8,Human,,,,,0,0,0,2,0,3,3,4,,,,,,,,,,,,,,,,,,,,,,,,,,,,,432.709148033044,None,432.709148033044,None,433.1594204479255,None,433.1594204479255,None,v,7.431367296869212,433.1594204479255,None,t,7.4906274781028515,433.1594204479255,None,7.431367296869212,7.4906274781028515,7.877988140573878,True,False,False,440.72450072241907,None,440.72450072241907,None,440.72450072241907,None,440.72450072241907,None,440.72450072241907,None,440.72450072241907,None,440.72450072241907,None,440.72450072241907,None,441.7095156584022,None,441.7095156584022,None,442.7070375555287,None,442.7070375555287,None,h,,,,,,,,,,,,,,,,,,,,,,,,,,,,,,,,,,,,,,,,,,,,,,,71_72Exp,001,2021_May_26_1033,ComputerHuman,2020.1.3,59.9724888368189,
Human.xlsx,h,Sychronize.jpg,Number6.jpg,6,Human,,,,,0,0,0,2,0,4,4,0,,,,,,,,,,,,,,,,,,,,,,,,,,,,,443.7739598062941,None,443.7739598062941,None,444.2072665996001,None,444.2072665996001,None,v,5.355500778878195,444.2072665996001,None,t,4.842657309008018,444.2072665996001,None,5.355500778878195,4.842657309008018,6.342513920281908,False,False,False,449.65557481721373,None,449.65557481721373,None,449.65557481721373,None,449.65557481721373,None,449.65557481721373,None,449.65557481721373,None,449.65557481721373,None,449.65557481721373,None,450.641130605164,None,450.641130605164,None,451.6385989303577,None,451.6385989303577,None,h,,,,,,,,,,,,,,,,,,,,,,,,,,,,,,,,,,,,,,,,,,,,,,,71_72Exp,001,2021_May_26_1033,ComputerHuman,2020.1.3,59.9724888368189,
Human.xlsx,h,Sychronize.jpg,Number9.jpg,9,Human,,,,,0,0,0,2,0,5,5,7,,,,,,,,,,,,,,,,,,,,,,,,,,,,,452.68836468948814,None,452.68836468948814,None,453.13842185426904,None,453.13842185426904,None,v,7.479591018392739,453.13842185426904,None,t,8.322508488103722,453.13842185426904,None,7.479591018392739,8.322508488103722,9.084178231585977,False,False,False,461.52106563877,None,461.52106563877,None,461.52106563877,None,461.52106563877,None,461.52106563877,None,461.52106563877,None,461.52106563877,None,461.52106563877,None,462.5383456345611,None,462.5383456345611,None,463.5360638551773,None,463.5360638551773,None,h,,,,,,,,,,,,,,,,,,,,,,,,,,,,,,,,,,,,,,,,,,,,,,,71_72Exp,001,2021_May_26_1033,ComputerHuman,2020.1.3,59.9724888368189,
Human.xlsx,h,Sychronize.jpg,Number10.jpg,10,Human,,,,,0,0,0,2,0,6,6,9,,,,,,,,,,,,,,,,,,,,,,,,,,,,,464.58593996607317,None,464.58593996607317,None,465.03597531713297,None,465.03597531713297,None,v,8.68168391661493,465.03597531713297,None,t,9.156598137364881,465.03597531713297,None,8.68168391661493,9.156598137364881,9.713347471235036,False,False,False,474.267717553373,None,474.267717553373,None,474.267717553373,None,474.267717553373,None,474.267717553373,None,474.267717553373,None,474.267717553373,None,474.267717553373,None,475.253110700785,None,475.253110700785,None,476.2500936706846,None,476.2500936706846,None,h,,,,,,,,,,,,,,,,,,,,,,,,,,,,,,,,,,,,,,,,,,,,,,,71_72Exp,001,2021_May_26_1033,ComputerHuman,2020.1.3,59.9724888368189,
Human.xlsx,h,Sychronize.jpg,Number8.jpg,8,Human,,,,,0,0,0,2,0,7,7,5,,,,,,,,,,,,,,,,,,,,,,,,,,,,,477.31708360814343,None,477.31708360814343,None,477.7501241457361,None,477.7501241457361,None,v,7.626981199138754,477.7501241457361,None,t,7.290539838270433,477.7501241457361,None,7.626981199138754,7.290539838270433,7.8499391454379905,False,False,False,485.4487406425552,None,485.4487406425552,None,485.4487406425552,None,485.4487406425552,None,485.4487406425552,None,485.4487406425552,None,485.4487406425552,None,485.4487406425552,None,486.45051621529376,None,486.45051621529376,None,487.4311626328391,None,487.4311626328391,None,h,,,,,,,,,,,,,,,,,,,,,,,,,,,,,,,,,,,,,,,,,,,,,,,71_72Exp,001,2021_May_26_1033,ComputerHuman,2020.1.3,59.9724888368189,
Human.xlsx,h,Sychronize.jpg,Number9.jpg,9,Human,,,,,0,0,0,2,0,8,8,6,,,,,,,,,,,,,,,,,,,,,,,,,,,,,488.4980248958715,None,488.4980248958715,None,488.93122807400243,None,488.93122807400243,None,v,9.097480066108574,488.93122807400243,None,t,8.600605523234208,488.93122807400243,None,9.097480066108574,8.600605523234208,9.419867271932528,False,False,False,498.1123066598574,None,498.1123066598574,None,498.1123066598574,None,498.1123066598574,None,498.1123066598574,None,498.1123066598574,None,498.1123066598574,None,498.1123066598574,None,499.0983670505026,None,499.0983670505026,None,500.0952422349568,None,500.0952422349568,None,h,,,,,,,,,,,,,,,,,,,,,,,,,,,,,,,,,,,,,,,,,,,,,,,71_72Exp,001,2021_May_26_1033,ComputerHuman,2020.1.3,59.9724888368189,
Human.xlsx,h,Sychronize.jpg,Number10.jpg,10,Human,,,,,0,0,0,2,0,9,9,8,,,,,,,,,,,,,,,,,,,,,,,,,,,,,501.1456280811882,None,501.1456280811882,None,501.59531377113046,None,501.59531377113046,None,v,8.76890094774194,501.59531377113046,None,t,9.616456720294082,501.59531377113046,None,8.76890094774194,9.616456720294082,9.648360488414253,False,False,False,511.2928646035165,None,511.2928646035165,None,511.2928646035165,None,511.2928646035165,None,511.2928646035165,None,511.2928646035165,None,511.2928646035165,None,511.2928646035165,None,512.2948230265639,None,512.2948230265639,None,513.2924421230654,None,513.2924421230654,None,h,,,,,,,,,,,,,,,,,,,,,,,,,,,,,,,,,,,,,,,,,,,,,,,71_72Exp,001,2021_May_26_1033,ComputerHuman,2020.1.3,59.9724888368189,
Human.xlsx,h,,,,,,,,,0,0,0,2,,,,,,,,,,,,,,,,,,,,,,,,,,,,,,,,,,,,,,,,,,,,,,,,,,,,,,,,,,,,,,,,,,,,,,,,,,,,,,,h,514.2932707236765,None,514.2932707236765,None,q,0,13.330258774890126,514.2932707236765,None,o,1,41.500309883155296,514.2932707236765,None,h,h,555.9005454713432,None,555.9005454713432,None,557.8666427785034,None,None,None,None,None,None,None,None,,,,,,,,,,,,,,,,,,71_72Exp,001,2021_May_26_1033,ComputerHuman,2020.1.3,59.9724888368189,
Computer.xlsx,c,Sychronize.jpg,Number6.jpg,6,Computer,,,,,0,1,1,1,0,0,0,0,,,,,,,,,,,,,,,,,,,,,,,,,562.8854218260393,None,562.8854218260393,None,565.9652616491686,None,565.9652616491686,None,566.3984122177368,None,566.3984122177368,None,v,5.211462853799276,566.3984122177368,None,t,5.334640445718378,566.3984122177368,None,5.211462853799276,5.334640445718378,5.553654423031348,False,False,True,571.8148602125426,None,571.8148602125426,None,571.8148602125426,None,571.8148602125426,None,571.8148602125426,None,571.8148602125426,None,571.8148602125426,None,571.8148602125426,None,572.830218034558,None,572.830218034558,None,573.7967413508596,None,573.7967413508596,None,c,,,,,,,,,,,,,,,,,,,,,,,,,,,,,,,,,,,,,,,,,,,,,,,71_72Exp,001,2021_May_26_1033,ComputerHuman,2020.1.3,59.9724888368189,
Computer.xlsx,c,Sychronize.jpg,Number8.jpg,8,Computer,,,,,0,1,1,1,0,1,1,5,,,,,,,,,,,,,,,,,,,,,,,,,,,,,574.8799465820465,None,574.8799465820465,None,575.3127231094562,None,575.3127231094562,None,v,7.128777302438266,575.3127231094562,None,t,6.895848143138892,575.3127231094562,None,7.128777302438266,6.895848143138892,7.468181217997668,False,False,False,582.5134686896112,None,582.5134686896112,None,582.5134686896112,None,582.5134686896112,None,582.5134686896112,None,582.5134686896112,None,582.5134686896112,None,582.5134686896112,None,583.5280450671477,None,583.5280450671477,None,584.5111853062775,None,584.5111853062775,None,c,,,,,,,,,,,,,,,,,,,,,,,,,,,,,,,,,,,,,,,,,,,,,,,71_72Exp,001,2021_May_26_1033,ComputerHuman,2020.1.3,59.9724888368189,
Computer.xlsx,c,Sychronize.jpg,Number10.jpg,10,Computer,,,,,0,1,1,1,0,2,2,8,,,,,,,,,,,,,,,,,,,,,,,,,,,,,585.5614492523026,None,585.5614492523026,None,586.0111243561745,None,586.0111243561745,None,v,7.826004778488141,586.0111243561745,None,t,10.593478210658986,586.0111243561745,None,7.826004778488141,10.593478210658986,9.648195180204738,False,False,False,596.6768723871654,None,596.6768723871654,None,596.6768723871654,None,596.6768723871654,None,596.6768723871654,None,596.6768723871654,None,596.6768723871654,None,596.6768723871654,None,597.6917358717661,None,597.6917358717661,None,598.674918775968,None,598.674918775968,None,c,,,,,,,,,,,,,,,,,,,,,,,,,,,,,,,,,,,,,,,,,,,,,,,71_72Exp,001,2021_May_26_1033,ComputerHuman,2020.1.3,59.9724888368189,
Computer.xlsx,c,Sychronize.jpg,Number6.jpg,6,Computer,,,,,0,1,1,1,0,3,3,1,,,,,,,,,,,,,,,,,,,,,,,,,,,,,599.7253344556706,None,599.7253344556706,None,600.1750486959244,None,600.1750486959244,None,v,6.033510045860112,600.1750486959244,None,t,5.752678917423509,600.1750486959244,None,6.033510045860112,5.752678917423509,5.664207511874465,False,False,True,606.2914213692344,None,606.2914213692344,None,606.2914213692344,None,606.2914213692344,None,606.2914213692344,None,606.2914213692344,None,606.2914213692344,None,606.2914213692344,None,607.2897250316299,None,607.2897250316299,None,608.2729297495529,None,608.2729297495529,None,c,,,,,,,,,,,,,,,,,,,,,,,,,,,,,,,,,,,,,,,,,,,,,,,71_72Exp,001,2021_May_26_1033,ComputerHuman,2020.1.3,59.9724888368189,
Computer.xlsx,c,Sychronize.jpg,Number9.jpg,9,Computer,,,,,0,1,1,1,0,4,4,6,,,,,,,,,,,,,,,,,,,,,,,,,,,,,609.3398064481358,None,609.3398064481358,None,609.7730943148309,None,609.7730943148309,None,v,7.35908656967672,609.7730943148309,None,t,8.41052749427081,609.7730943148309,None,7.35908656967672,8.41052749427081,8.40391288128968,False,False,True,618.2553450032464,None,618.2553450032464,None,618.2553450032464,None,618.2553450032464,None,618.2553450032464,None,618.2553450032464,None,618.2553450032464,None,618.2553450032464,None,619.2706476493792,None,619.2706476493792,None,620.2537805103385,None,620.2537805103385,None,c,,,,,,,,,,,,,,,,,,,,,,,,,,,,,,,,,,,,,,,,,,,,,,,71_72Exp,001,2021_May_26_1033,ComputerHuman,2020.1.3,59.9724888368189,
Computer.xlsx,c,Sychronize.jpg,Number7.jpg,7,Computer,,,,,0,1,1,1,0,5,5,2,,,,,,,,,,,,,,,,,,,,,,,,,,,,,621.3041236914975,None,621.3041236914975,None,621.7370888434365,None,621.7370888434365,None,v,7.266658946320376,621.7370888434365,None,t,8.87355259544779,621.7370888434365,None,7.266658946320376,8.87355259544779,7.069563519245787,False,True,False,630.7016582277507,None,630.7016582277507,None,630.7016582277507,None,630.7016582277507,None,630.7016582277507,None,630.7016582277507,None,630.7016582277507,None,630.7016582277507,None,631.7013903680873,None,631.7013903680873,None,632.68459251969,None,632.68459251969,None,c,,,,,,,,,,,,,,,,,,,,,,,,,,,,,,,,,,,,,,,,,,,,,,,71_72Exp,001,2021_May_26_1033,ComputerHuman,2020.1.3,59.9724888368189,
Computer.xlsx,c,Sychronize.jpg,Number10.jpg,10,Computer,,,,,0,1,1,1,0,6,6,9,,,,,,,,,,,,,,,,,,,,,,,,,,,,,633.7345616596905,None,633.7345616596905,None,634.1845476090879,None,634.1845476090879,None,v,10.142604314497476,634.1845476090879,None,t,9.977501713018682,634.1845476090879,None,10.142604314497476,9.977501713018682,10.421721419142282,False,True,False,644.3988459258384,None,644.3988459258384,None,644.3988459258384,None,644.3988459258384,None,644.3988459258384,None,644.3988459258384,None,644.3988459258384,None,644.3988459258384,None,645.4152180858845,None,645.4152180858845,None,646.3984580907091,None,646.3984580907091,None,c,,,,,,,,,,,,,,,,,,,,,,,,,,,,,,,,,,,,,,,,,,,,,,,71_72Exp,001,2021_May_26_1033,ComputerHuman,2020.1.3,59.9724888368189,
Computer.xlsx,c,Sychronize.jpg,Number7.jpg,7,Computer,,,,,0,1,1,1,0,7,7,3,,,,,,,,,,,,,,,,,,,,,,,,,,,,,647.4480191858094,None,647.4480191858094,None,647.8984981894611,None,647.8984981894611,None,v,7.288588151813201,647.8984981894611,None,t,6.611702291467282,647.8984981894611,None,7.288588151813201,6.611702291467282,7.200047631821594,False,True,False,655.2646511216102,None,655.2646511216102,None,655.2646511216102,None,655.2646511216102,None,655.2646511216102,None,655.2646511216102,None,655.2646511216102,None,655.2646511216102,None,656.2627860484573,None,656.2627860484573,None,657.2461434624278,None,657.2461434624278,None,c,,,,,,,,,,,,,,,,,,,,,,,,,,,,,,,,,,,,,,,,,,,,,,,71_72Exp,001,2021_May_26_1033,ComputerHuman,2020.1.3,59.9724888368189,
Computer.xlsx,c,Sychronize.jpg,Number8.jpg,8,Computer,,,,,0,1,1,1,0,8,8,4,,,,,,,,,,,,,,,,,,,,,,,,,,,,,658.3127462063372,None,658.3127462063372,None,658.7464889532749,None,658.7464889532749,None,v,8.48382352186377,658.7464889532749,None,t,7.659618375365426,658.7464889532749,None,8.48382352186377,7.659618375365426,8.257893036648449,False,True,False,667.3117710046887,None,667.3117710046887,None,667.3117710046887,None,667.3117710046887,None,667.3117710046887,None,667.3117710046887,None,667.3117710046887,None,667.3117710046887,None,668.3272507269102,None,668.3272507269102,None,669.3103758889091,None,669.3103758889091,None,c,,,,,,,,,,,,,,,,,,,,,,,,,,,,,,,,,,,,,,,,,,,,,,,71_72Exp,001,2021_May_26_1033,ComputerHuman,2020.1.3,59.9724888368189,
Computer.xlsx,c,Sychronize.jpg,Number9.jpg,9,Computer,,,,,0,1,1,1,0,9,9,7,,,,,,,,,,,,,,,,,,,,,,,,,,,,,670.3605278792187,None,670.3605278792187,None,670.7937964985127,None,670.7937964985127,None,v,9.028034481077157,670.7937964985127,None,t,8.471561644292478,670.7937964985127,None,9.028034481077157,8.471561644292478,8.652242708769409,False,False,True,679.9081722539732,None,679.9081722539732,None,679.9081722539732,None,679.9081722539732,None,679.9081722539732,None,679.9081722539732,None,679.9081722539732,None,679.9081722539732,None,680.9078982992997,None,680.9078982992997,None,681.891131567534,None,681.891131567534,None,c,,,,,,,,,,,,,,,,,,,,,,,,,,,,,,,,,,,,,,,,,,,,,,,71_72Exp,001,2021_May_26_1033,ComputerHuman,2020.1.3,59.9724888368189,
Computer.xlsx,c,,,,,,,,,0,1,1,1,,,,,,,,,,,,,,,,,,,,,,,,,,,,,,,,,,,,,,,,,,,,,,,,,,,,,,,,,,,,,,,,,,,,,,,,,,,,,,,c,682.8920897673119,None,682.8920897673119,None,a,0,6.1734877317067,682.8920897673119,None,l,1,70.12227553039429,682.8920897673119,None,c,c,753.1097028072976,None,753.1097028072976,None,755.0926723861388,None,None,None,None,None,None,None,None,,,,,,,,,,,,,,,,,,71_72Exp,001,2021_May_26_1033,ComputerHuman,2020.1.3,59.9724888368189,
Computer.xlsx,c,Sychronize.jpg,Number9.jpg,9,Computer,,,,,0,2,2,5,0,0,0,6,,,,,,,,,,,,,,,,,,,,,,,,,760.0951774353736,None,760.0951774353736,None,763.1747131495678,None,763.1747131495678,None,763.6248165081109,None,763.6248165081109,None,v,9.097571170472975,763.6248165081109,None,t,8.63685511583094,763.6248165081109,None,9.097571170472975,8.63685511583094,9.469425116468488,False,False,False,772.7893144204094,None,772.7893144204094,None,772.7893144204094,None,772.7893144204094,None,772.7893144204094,None,772.7893144204094,None,772.7893144204094,None,772.7893144204094,None,773.8221783951773,None,773.8221783951773,None,774.7885859062832,None,774.7885859062832,None,c,,,,,,,,,,,,,,,,,,,,,,,,,,,,,,,,,,,,,,,,,,,,,,,71_72Exp,001,2021_May_26_1033,ComputerHuman,2020.1.3,59.9724888368189,
Computer.xlsx,c,Sychronize.jpg,Number10.jpg,10,Computer,,,,,0,2,2,5,0,1,1,9,,,,,,,,,,,,,,,,,,,,,,,,,,,,,775.8395956890955,None,775.8395956890955,None,776.2889317179203,None,776.2889317179203,None,v,10.176930450158125,776.2889317179203,None,t,9.376540433656828,776.2889317179203,None,10.176930450158125,9.376540433656828,10.536768992159983,False,False,False,786.5378583545267,None,786.5378583545267,None,786.5378583545267,None,786.5378583545267,None,786.5378583545267,None,786.5378583545267,None,786.5378583545267,None,786.5378583545267,None,787.5526461326839,None,787.5526461326839,None,788.5190966296517,None,788.5190966296517,None,c,,,,,,,,,,,,,,,,,,,,,,,,,,,,,,,,,,,,,,,,,,,,,,,71_72Exp,001,2021_May_26_1033,ComputerHuman,2020.1.3,59.9724888368189,
Computer.xlsx,c,Sychronize.jpg,Number7.jpg,7,Computer,,,,,0,2,2,5,0,2,2,3,,,,,,,,,,,,,,,,,,,,,,,,,,,,,789.5870518242688,None,789.5870518242688,None,790.0193779624957,None,790.0193779624957,None,v,6.618057141683948,790.0193779624957,None,t,6.745656182393532,790.0193779624957,None,6.618057141683948,6.745656182393532,6.988993375873904,False,False,True,796.8345563987342,None,796.8345563987342,None,796.8345563987342,None,796.8345563987342,None,796.8345563987342,None,796.8345563987342,None,796.8345563987342,None,796.8345563987342,None,797.8504868309282,None,797.8504868309282,None,798.8336700559202,None,798.8336700559202,None,c,,,,,,,,,,,,,,,,,,,,,,,,,,,,,,,,,,,,,,,,,,,,,,,71_72Exp,001,2021_May_26_1033,ComputerHuman,2020.1.3,59.9724888368189,
Computer.xlsx,c,Sychronize.jpg,Number8.jpg,8,Computer,,,,,0,2,2,5,0,3,3,5,,,,,,,,,,,,,,,,,,,,,,,,,,,,,799.8835378262755,None,799.8835378262755,None,800.3335491180841,None,800.3335491180841,None,v,7.691497524784381,800.3335491180841,None,t,7.554628614982676,800.3335491180841,None,7.691497524784381,7.554628614982676,7.890334493120912,False,True,False,808.1001256213702,None,808.1001256213702,None,808.1001256213702,None,808.1001256213702,None,808.1001256213702,None,808.1001256213702,None,808.1001256213702,None,808.1001256213702,None,809.0981104184899,None,809.0981104184899,None,810.0813857102163,None,810.0813857102163,None,c,,,,,,,,,,,,,,,,,,,,,,,,,,,,,,,,,,,,,,,,,,,,,,,71_72Exp,001,2021_May_26_1033,ComputerHuman,2020.1.3,59.9724888368189,
Computer.xlsx,c,Sychronize.jpg,Number9.jpg,9,Computer,,,,,0,2,2,5,0,4,4,7,,,,,,,,,,,,,,,,,,,,,,,,,,,,,811.1317542337866,None,811.1317542337866,None,811.5980135399051,None,811.5980135399051,None,v,8.85857715513157,811.5980135399051,None,t,8.025605779866055,811.5980135399051,None,8.85857715513157,8.025605779866055,8.330197957389831,False,False,False,820.5304833920592,None,820.5304833920592,None,820.5304833920592,None,820.5304833920592,None,820.5304833920592,None,820.5304833920592,None,820.5304833920592,None,820.5304833920592,None,821.5456022255129,None,821.5456022255129,None,822.5121091815234,None,822.5121091815234,None,c,,,,,,,,,,,,,,,,,,,,,,,,,,,,,,,,,,,,,,,,,,,,,,,71_72Exp,001,2021_May_26_1033,ComputerHuman,2020.1.3,59.9724888368189,
Computer.xlsx,c,Sychronize.jpg,Number6.jpg,6,Computer,,,,,0,2,2,5,0,5,5,1,,,,,,,,,,,,,,,,,,,,,,,,,,,,,823.5791392177342,None,823.5791392177342,None,824.0121239378642,None,824.0121239378642,None,v,5.944104264454154,824.0121239378642,None,t,5.415685797727747,824.0121239378642,None,5.944104264454154,5.415685797727747,5.644525296828899,False,True,True,830.043877979177,None,830.043877979177,None,830.043877979177,None,830.043877979177,None,830.043877979177,None,830.043877979177,None,830.043877979177,None,830.043877979177,None,831.0435684168114,None,831.0435684168114,None,832.0268591064586,None,832.0268591064586,None,c,,,,,,,,,,,,,,,,,,,,,,,,,,,,,,,,,,,,,,,,,,,,,,,71_72Exp,001,2021_May_26_1033,ComputerHuman,2020.1.3,59.9724888368189,
Computer.xlsx,c,Sychronize.jpg,Number6.jpg,6,Computer,,,,,0,2,2,5,0,6,6,0,,,,,,,,,,,,,,,,,,,,,,,,,,,,,833.060172508039,None,833.060172508039,None,833.5270544675783,None,833.5270544675783,None,v,5.464858736908582,833.5270544675783,None,t,6.039688140778026,833.5270544675783,None,5.464858736908582,6.039688140778026,5.93731904825295,False,False,True,839.658548861452,None,839.658548861452,None,839.658548861452,None,839.658548861452,None,839.658548861452,None,839.658548861452,None,839.658548861452,None,839.658548861452,None,840.6416634373805,None,840.6416634373805,None,841.6249076124753,None,841.6249076124753,None,c,,,,,,,,,,,,,,,,,,,,,,,,,,,,,,,,,,,,,,,,,,,,,,,71_72Exp,001,2021_May_26_1033,ComputerHuman,2020.1.3,59.9724888368189,
Computer.xlsx,c,Sychronize.jpg,Number10.jpg,10,Computer,,,,,0,2,2,5,0,7,7,8,,,,,,,,,,,,,,,,,,,,,,,,,,,,,842.6751057965472,None,842.6751057965472,None,843.1248867611245,None,843.1248867611245,None,v,11.098415489795116,843.1248867611245,None,t,9.037452555156506,843.1248867611245,None,11.098415489795116,9.037452555156506,10.36192529679464,False,False,False,854.289266943487,None,854.289266943487,None,854.289266943487,None,854.289266943487,None,854.289266943487,None,854.289266943487,None,854.289266943487,None,854.289266943487,None,855.2886016249939,None,855.2886016249939,None,856.2716465894888,None,856.2716465894888,None,c,,,,,,,,,,,,,,,,,,,,,,,,,,,,,,,,,,,,,,,,,,,,,,,71_72Exp,001,2021_May_26_1033,ComputerHuman,2020.1.3,59.9724888368189,
Computer.xlsx,c,Sychronize.jpg,Number8.jpg,8,Computer,,,,,0,2,2,5,0,8,8,4,,,,,,,,,,,,,,,,,,,,,,,,,,,,,857.3387789577147,None,857.3387789577147,None,857.7718172497774,None,857.7718172497774,None,v,10.942969630167681,857.7718172497774,None,t,6.366671970394918,857.7718172497774,None,10.942969630167681,6.366671970394918,8.52028767845605,False,False,False,868.8026361881933,None,868.8026361881933,None,868.8026361881933,None,868.8026361881933,None,868.8026361881933,None,868.8026361881933,None,868.8026361881933,None,868.8026361881933,None,869.8023449108588,None,869.8023449108588,None,870.7688226749782,None,870.7688226749782,None,c,,,,,,,,,,,,,,,,,,,,,,,,,,,,,,,,,,,,,,,,,,,,,,,71_72Exp,001,2021_May_26_1033,ComputerHuman,2020.1.3,59.9724888368189,
Computer.xlsx,c,Sychronize.jpg,Number7.jpg,7,Computer,,,,,0,2,2,5,0,9,9,2,,,,,,,,,,,,,,,,,,,,,,,,,,,,,871.8186663860823,None,871.8186663860823,None,872.268718097433,None,872.268718097433,None,v,7.401681067999789,872.268718097433,None,t,6.6486024462165005,872.268718097433,None,7.401681067999789,6.6486024462165005,6.516352752899675,False,False,True,879.7669431662745,None,879.7669431662745,None,879.7669431662745,None,879.7669431662745,None,879.7669431662745,None,879.7669431662745,None,879.7669431662745,None,879.7669431662745,None,880.7667044985025,None,880.7667044985025,None,881.7498928561346,None,881.7498928561346,None,c,,,,,,,,,,,,,,,,,,,,,,,,,,,,,,,,,,,,,,,,,,,,,,,71_72Exp,001,2021_May_26_1033,ComputerHuman,2020.1.3,59.9724888368189,
Computer.xlsx,c,,,,,,,,,0,2,2,5,,,,,,,,,,,,,,,,,,,,,,,,,,,,,,,,,,,,,,,,,,,,,,,,,,,,,,,,,,,,,,,,,,,,,,,,,,,,,,,c,882.7505052442751,None,882.7505052442751,None,q,0,3.3875987070880456,882.7505052442751,None,l,1,3.9427980075090545,882.7505052442751,None,h,c,886.7828752024185,None,886.7828752024185,None,888.7651319858443,None,None,None,None,None,None,None,None,,,,,,,,,,,,,,,,,,71_72Exp,001,2021_May_26_1033,ComputerHuman,2020.1.3,59.9724888368189,
Human.xlsx,h,Sychronize.jpg,Number6.jpg,6,Human,,,,,0,3,3,8,0,0,0,0,,,,,,,,,,,,,,,,,,,,,,,,,893.767334530094,None,893.767334530094,None,896.8641239352979,None,896.8641239352979,None,897.2969549970102,None,897.2969549970102,None,v,6.880461450022267,897.2969549970102,None,t,5.4676980493402425,897.2969549970102,None,6.880461450022267,5.4676980493402425,5.690851131246594,False,False,False,904.2618467752903,None,904.2618467752903,None,904.2618467752903,None,904.2618467752903,None,904.2618467752903,None,904.2618467752903,None,904.2618467752903,None,904.2618467752903,None,905.2638581286907,None,905.2638581286907,None,906.2448436212829,None,906.2448436212829,None,h,,,,,,,,,,,,,,,,,,,,,,,,,,,,,,,,,,,,,,,,,,,,,,,71_72Exp,001,2021_May_26_1033,ComputerHuman,2020.1.3,59.9724888368189,
Human.xlsx,h,Sychronize.jpg,Number6.jpg,6,Human,,,,,0,3,3,8,0,1,1,1,,,,,,,,,,,,,,,,,,,,,,,,,,,,,907.2954158465135,None,907.2954158465135,None,907.7451910368703,None,907.7451910368703,None,v,5.1319903352382426,907.7451910368703,None,t,4.939772957658306,907.7451910368703,None,5.1319903352382426,4.939772957658306,6.352688864822101,True,False,False,912.9768149015944,None,912.9768149015944,None,912.9768149015944,None,912.9768149015944,None,912.9768149015944,None,912.9768149015944,None,912.9768149015944,None,912.9768149015944,None,913.9623350818528,None,913.9623350818528,None,914.9596962631812,None,914.9596962631812,None,h,,,,,,,,,,,,,,,,,,,,,,,,,,,,,,,,,,,,,,,,,,,,,,,71_72Exp,001,2021_May_26_1033,ComputerHuman,2020.1.3,59.9724888368189,
Human.xlsx,h,Sychronize.jpg,Number7.jpg,7,Human,,,,,0,3,3,8,0,2,2,3,,,,,,,,,,,,,,,,,,,,,,,,,,,,,916.010194385918,None,916.010194385918,None,916.4599291567328,None,916.4599291567328,None,v,5.468961641213127,916.4599291567328,None,t,5.631650939401425,916.4599291567328,None,5.468961641213127,5.631650939401425,7.214182650713329,True,False,False,922.1748725822057,None,922.1748725822057,None,922.1748725822057,None,922.1748725822057,None,922.1748725822057,None,922.1748725822057,None,922.1748725822057,None,922.1748725822057,None,923.1432686706206,None,923.1432686706206,None,924.1411851394668,None,924.1411851394668,None,h,,,,,,,,,,,,,,,,,,,,,,,,,,,,,,,,,,,,,,,,,,,,,,,71_72Exp,001,2021_May_26_1033,ComputerHuman,2020.1.3,59.9724888368189,
Human.xlsx,h,Sychronize.jpg,Number10.jpg,10,Human,,,,,0,3,3,8,0,3,3,8,,,,,,,,,,,,,,,,,,,,,,,,,,,,,925.207824774228,None,925.207824774228,None,925.641233257969,None,925.641233257969,None,v,8.447058098921389,925.641233257969,None,t,9.45054187849496,925.641233257969,None,8.447058098921389,9.45054187849496,9.89948076269931,False,False,False,935.173195492002,None,935.173195492002,None,935.173195492002,None,935.173195492002,None,935.173195492002,None,935.173195492002,None,935.173195492002,None,935.173195492002,None,936.1749097938474,None,936.1749097938474,None,937.1718186612535,None,937.1718186612535,None,h,,,,,,,,,,,,,,,,,,,,,,,,,,,,,,,,,,,,,,,,,,,,,,,71_72Exp,001,2021_May_26_1033,ComputerHuman,2020.1.3,59.9724888368189,
Human.xlsx,h,Sychronize.jpg,Number8.jpg,8,Human,,,,,0,3,3,8,0,4,4,4,,,,,,,,,,,,,,,,,,,,,,,,,,,,,938.2051012669923,None,938.2051012669923,None,938.6552091165955,None,938.6552091165955,None,v,7.688642172852042,938.6552091165955,None,t,7.491611661871957,938.6552091165955,None,7.688642172852042,7.491611661871957,8.546047684167473,True,False,False,946.4208242122039,None,946.4208242122039,None,946.4208242122039,None,946.4208242122039,None,946.4208242122039,None,946.4208242122039,None,946.4208242122039,None,946.4208242122039,None,947.4223059412876,None,947.4223059412876,None,948.4194544388357,None,948.4194544388357,None,h,,,,,,,,,,,,,,,,,,,,,,,,,,,,,,,,,,,,,,,,,,,,,,,71_72Exp,001,2021_May_26_1033,ComputerHuman,2020.1.3,59.9724888368189,
Human.xlsx,h,Sychronize.jpg,Number7.jpg,7,Human,,,,,0,3,3,8,0,5,5,2,,,,,,,,,,,,,,,,,,,,,,,,,,,,,949.4697867131341,None,949.4697867131341,None,949.9198525392454,None,949.9198525392454,None,v,7.219661284237873,949.9198525392454,None,t,6.402629323286874,949.9198525392454,None,7.219661284237873,6.402629323286874,7.298818489320836,False,False,False,957.2192371998368,None,957.2192371998368,None,957.2192371998368,None,957.2192371998368,None,957.2192371998368,None,957.2192371998368,None,957.2192371998368,None,957.2192371998368,None,958.2032400433194,None,958.2032400433194,None,959.2006316996996,None,959.2006316996996,None,h,,,,,,,,,,,,,,,,,,,,,,,,,,,,,,,,,,,,,,,,,,,,,,,71_72Exp,001,2021_May_26_1033,ComputerHuman,2020.1.3,59.9724888368189,
Human.xlsx,h,Sychronize.jpg,Number9.jpg,9,Human,,,,,0,3,3,8,0,6,6,7,,,,,,,,,,,,,,,,,,,,,,,,,,,,,960.250784331589,None,960.250784331589,None,960.7005742782866,None,960.7005742782866,None,v,6.098750715361803,960.7005742782866,None,t,8.637712587543547,960.7005742782866,None,6.098750715361803,8.637712587543547,8.477415781427315,False,False,False,969.4169715241118,None,969.4169715241118,None,969.4169715241118,None,969.4169715241118,None,969.4169715241118,None,969.4169715241118,None,969.4169715241118,None,969.4169715241118,None,970.417094707478,None,970.417094707478,None,971.3980878990307,None,971.3980878990307,None,h,,,,,,,,,,,,,,,,,,,,,,,,,,,,,,,,,,,,,,,,,,,,,,,71_72Exp,001,2021_May_26_1033,ComputerHuman,2020.1.3,59.9724888368189,
Human.xlsx,h,Sychronize.jpg,Number8.jpg,8,Human,,,,,0,3,3,8,0,7,7,5,,,,,,,,,,,,,,,,,,,,,,,,,,,,,972.4649222533318,None,972.4649222533318,None,972.8981520570338,None,972.8981520570338,None,v,7.880379648568123,972.8981520570338,None,t,5.443699748243944,972.8981520570338,None,7.880379648568123,5.443699748243944,7.740621171104267,False,False,False,980.8628763829257,None,980.8628763829257,None,980.8628763829257,None,980.8628763829257,None,980.8628763829257,None,980.8628763829257,None,980.8628763829257,None,980.8628763829257,None,981.8479878767038,None,981.8479878767038,None,982.8457795582336,None,982.8457795582336,None,h,,,,,,,,,,,,,,,,,,,,,,,,,,,,,,,,,,,,,,,,,,,,,,,71_72Exp,001,2021_May_26_1033,ComputerHuman,2020.1.3,59.9724888368189,
Human.xlsx,h,Sychronize.jpg,Number9.jpg,9,Human,,,,,0,3,3,8,0,8,8,6,,,,,,,,,,,,,,,,,,,,,,,,,,,,,983.8956434791088,None,983.8956434791088,None,984.3456666401481,None,984.3456666401481,None,v,8.908468663948042,984.3456666401481,None,t,8.871614702961324,984.3456666401481,None,8.908468663948042,8.871614702961324,9.48752972067495,True,False,False,993.3109295724768,None,993.3109295724768,None,993.3109295724768,None,993.3109295724768,None,993.3109295724768,None,993.3109295724768,None,993.3109295724768,None,993.3109295724768,None,994.3125043306653,None,994.3125043306653,None,995.3264914169423,None,995.3264914169423,None,h,,,,,,,,,,,,,,,,,,,,,,,,,,,,,,,,,,,,,,,,,,,,,,,71_72Exp,001,2021_May_26_1033,ComputerHuman,2020.1.3,59.9724888368189,
Human.xlsx,h,Sychronize.jpg,Number10.jpg,10,Human,,,,,0,3,3,8,0,9,9,9,,,,,,,,,,,,,,,,,,,,,,,,,,,,,996.3765240733659,None,996.3765240733659,None,996.826628394279,None,996.826628394279,None,v,9.578957971375303,996.826628394279,None,t,9.506525189715376,996.826628394279,None,9.578957971375303,9.506525189715376,10.242161818134742,True,False,False,1006.4908042334017,None,1006.4908042334017,None,1006.4908042334017,None,1006.4908042334017,None,1006.4908042334017,None,1006.4908042334017,None,1006.4908042334017,None,1006.4908042334017,None,1007.4589911667262,None,1007.4589911667262,None,1008.4564424900492,None,1008.4564424900492,None,h,,,,,,,,,,,,,,,,,,,,,,,,,,,,,,,,,,,,,,,,,,,,,,,71_72Exp,001,2021_May_26_1033,ComputerHuman,2020.1.3,59.9724888368189,
Human.xlsx,h,,,,,,,,,0,3,3,8,,,,,,,,,,,,,,,,,,,,,,,,,,,,,,,,,,,,,,,,,,,,,,,,,,,,,,,,,,,,,,,,,,,,,,,,,,,,,,,h,1009.4574353351485,None,1009.4574353351485,None,q,1,4.415931202089951,1009.4574353351485,None,l,0,2.042828033454498,1009.4574353351485,None,h,c,1013.9901382733284,None,1013.9901382733284,None,1015.9722850257787,None,None,None,None,None,None,None,None,,,,,,,,,,,,,,,,,,71_72Exp,001,2021_May_26_1033,ComputerHuman,2020.1.3,59.9724888368189,
Human.xlsx,h,Sychronize.jpg,Number9.jpg,9,Human,,,,,0,4,4,0,0,0,0,6,,,,,,,,,,,,,,,,,,,,,,,,,1020.974438168366,None,1020.974438168366,None,1024.037899415649,None,1024.037899415649,None,1024.4710284912862,None,1024.4710284912862,None,v,8.213603164786036,1024.4710284912862,None,t,8.508588511098196,1024.4710284912862,None,8.213603164786036,8.508588511098196,9.662188011952413,True,False,False,1033.0523981620017,None,1033.0523981620017,None,1033.0523981620017,None,1033.0523981620017,None,1033.0523981620017,None,1033.0523981620017,None,1033.0523981620017,None,1033.0523981620017,None,1034.0713180363546,None,1034.0713180363546,None,1035.0683783166478,None,1035.0683783166478,None,h,,,,,,,,,,,,,,,,,,,,,,,,,,,,,,,,,,,,,,,,,,,,,,,71_72Exp,001,2021_May_26_1033,ComputerHuman,2020.1.3,59.9724888368189,
Human.xlsx,h,Sychronize.jpg,Number8.jpg,8,Human,,,,,0,4,4,0,0,1,1,5,,,,,,,,,,,,,,,,,,,,,,,,,,,,,1036.118795600301,None,1036.118795600301,None,1036.5686080022992,None,1036.5686080022992,None,v,7.51969779014189,1036.5686080022992,None,t,7.194608867149327,1036.5686080022992,None,7.51969779014189,7.194608867149327,7.595767662738898,False,False,False,1044.1505611900538,None,1044.1505611900538,None,1044.1505611900538,None,1044.1505611900538,None,1044.1505611900538,None,1044.1505611900538,None,1044.1505611900538,None,1044.1505611900538,None,1045.1690364494448,None,1045.1690364494448,None,1046.1661025039584,None,1046.1661025039584,None,h,,,,,,,,,,,,,,,,,,,,,,,,,,,,,,,,,,,,,,,,,,,,,,,71_72Exp,001,2021_May_26_1033,ComputerHuman,2020.1.3,59.9724888368189,
Human.xlsx,h,Sychronize.jpg,Number6.jpg,6,Human,,,,,0,4,4,0,0,2,2,0,,,,,,,,,,,,,,,,,,,,,,,,,,,,,1047.216229793437,None,1047.216229793437,None,1047.6658760262071,None,1047.6658760262071,None,v,6.037991161593482,1047.6658760262071,None,t,5.821971164826891,1047.6658760262071,None,6.037991161593482,5.821971164826891,6.234119751242219,True,False,False,1053.7828052701948,None,1053.7828052701948,None,1053.7828052701948,None,1053.7828052701948,None,1053.7828052701948,None,1053.7828052701948,None,1053.7828052701948,None,1053.7828052701948,None,1054.7835414832816,None,1054.7835414832816,None,1055.764089739082,None,1055.764089739082,None,h,,,,,,,,,,,,,,,,,,,,,,,,,,,,,,,,,,,,,,,,,,,,,,,71_72Exp,001,2021_May_26_1033,ComputerHuman,2020.1.3,59.9724888368189,
Human.xlsx,h,Sychronize.jpg,Number10.jpg,10,Human,,,,,0,4,4,0,0,3,3,8,,,,,,,,,,,,,,,,,,,,,,,,,,,,,1056.8308753333008,None,1056.8308753333008,None,1057.2640647174608,None,1057.2640647174608,None,v,9.555298424535977,1057.2640647174608,None,t,9.498437752622067,1057.2640647174608,None,9.555298424535977,9.498437752622067,9.874327629981224,True,False,False,1066.8953011961617,None,1066.8953011961617,None,1066.8953011961617,None,1066.8953011961617,None,1066.8953011961617,None,1066.8953011961617,None,1066.8953011961617,None,1066.8953011961617,None,1067.8967848499856,None,1067.8967848499856,None,1068.8774543644122,None,1068.8774543644122,None,h,,,,,,,,,,,,,,,,,,,,,,,,,,,,,,,,,,,,,,,,,,,,,,,71_72Exp,001,2021_May_26_1033,ComputerHuman,2020.1.3,59.9724888368189,
Human.xlsx,h,Sychronize.jpg,Number8.jpg,8,Human,,,,,0,4,4,0,0,4,4,4,,,,,,,,,,,,,,,,,,,,,,,,,,,,,1069.944536368606,None,1069.944536368606,None,1070.3945415654039,None,1070.3945415654039,None,v,8.932359179598734,1070.3945415654039,None,t,7.435616481420993,1070.3945415654039,None,8.932359179598734,7.435616481420993,8.059068783676041,False,False,False,1079.4103228302406,None,1079.4103228302406,None,1079.4103228302406,None,1079.4103228302406,None,1079.4103228302406,None,1079.4103228302406,None,1079.4103228302406,None,1079.4103228302406,None,1080.411498204859,None,1080.411498204859,None,1081.4087625076027,None,1081.4087625076027,None,h,,,,,,,,,,,,,,,,,,,,,,,,,,,,,,,,,,,,,,,,,,,,,,,71_72Exp,001,2021_May_26_1033,ComputerHuman,2020.1.3,59.9724888368189,
Human.xlsx,h,Sychronize.jpg,Number7.jpg,7,Human,,,,,0,4,4,0,0,5,5,2,,,,,,,,,,,,,,,,,,,,,,,,,,,,,1082.4588926841911,None,1082.4588926841911,None,1082.9089360550015,None,1082.9089360550015,None,v,6.641559822205181,1082.9089360550015,None,t,6.392629656908866,1082.9089360550015,None,6.641559822205181,6.392629656908866,6.872006849946303,True,False,False,1089.6255257748362,None,1089.6255257748362,None,1089.6255257748362,None,1089.6255257748362,None,1089.6255257748362,None,1089.6255257748362,None,1089.6255257748362,None,1089.6255257748362,None,1090.6092950831871,None,1090.6092950831871,None,1091.6066877019375,None,1091.6066877019375,None,h,,,,,,,,,,,,,,,,,,,,,,,,,,,,,,,,,,,,,,,,,,,,,,,71_72Exp,001,2021_May_26_1033,ComputerHuman,2020.1.3,59.9724888368189,
Human.xlsx,h,Sychronize.jpg,Number7.jpg,7,Human,,,,,0,4,4,0,0,6,6,3,,,,,,,,,,,,,,,,,,,,,,,,,,,,,1092.6565740781139,None,1092.6565740781139,None,1093.106615844974,None,1093.106615844974,None,v,7.143528189743392,1093.106615844974,None,t,6.286657637497001,1093.106615844974,None,7.143528189743392,6.286657637497001,7.351994252024548,False,False,False,1100.3382217454573,None,1100.3382217454573,None,1100.3382217454573,None,1100.3382217454573,None,1100.3382217454573,None,1100.3382217454573,None,1100.3382217454573,None,1100.3382217454573,None,1101.3237435296655,None,1101.3237435296655,None,1102.321143205796,None,1102.321143205796,None,h,,,,,,,,,,,,,,,,,,,,,,,,,,,,,,,,,,,,,,,,,,,,,,,71_72Exp,001,2021_May_26_1033,ComputerHuman,2020.1.3,59.9724888368189,
Human.xlsx,h,Sychronize.jpg,Number9.jpg,9,Human,,,,,0,4,4,0,0,7,7,7,,,,,,,,,,,,,,,,,,,,,,,,,,,,,1103.3547783597623,None,1103.3547783597623,None,1103.821044081681,None,1103.821044081681,None,v,7.912652086546586,1103.821044081681,None,t,8.175606870552201,1103.821044081681,None,7.912652086546586,8.175606870552201,9.134829907824589,True,False,False,1112.0695459923063,None,1112.0695459923063,None,1112.0695459923063,None,1112.0695459923063,None,1112.0695459923063,None,1112.0695459923063,None,1112.0695459923063,None,1112.0695459923063,None,1113.071330867955,None,1113.071330867955,None,1114.068718354065,None,1114.068718354065,None,h,,,,,,,,,,,,,,,,,,,,,,,,,,,,,,,,,,,,,,,,,,,,,,,71_72Exp,001,2021_May_26_1033,ComputerHuman,2020.1.3,59.9724888368189,
Human.xlsx,h,Sychronize.jpg,Number10.jpg,10,Human,,,,,0,4,4,0,0,8,8,9,,,,,,,,,,,,,,,,,,,,,,,,,,,,,1115.1186143539417,None,1115.1186143539417,None,1115.5685707906578,None,1115.5685707906578,None,v,9.300614569512618,1115.5685707906578,None,t,9.559511680606192,1115.5685707906578,None,9.300614569512618,9.559511680606192,9.735884375027226,True,False,False,1125.1832676569243,None,1125.1832676569243,None,1125.1832676569243,None,1125.1832676569243,None,1125.1832676569243,None,1125.1832676569243,None,1125.1832676569243,None,1125.1832676569243,None,1126.1859404793372,None,1126.1859404793372,None,1127.1827072367664,None,1127.1827072367664,None,h,,,,,,,,,,,,,,,,,,,,,,,,,,,,,,,,,,,,,,,,,,,,,,,71_72Exp,001,2021_May_26_1033,ComputerHuman,2020.1.3,59.9724888368189,
Human.xlsx,h,Sychronize.jpg,Number6.jpg,6,Human,,,,,0,4,4,0,0,9,9,1,,,,,,,,,,,,,,,,,,,,,,,,,,,,,1128.2662448064098,None,1128.2662448064098,None,1128.699173709077,None,1128.699173709077,None,v,5.557701783335688,1128.699173709077,None,t,5.132669447702028,1128.699173709077,None,5.557701783335688,5.132669447702028,6.137192813194487,False,False,False,1134.3319082771523,None,1134.3319082771523,None,1134.3319082771523,None,1134.3319082771523,None,1134.3319082771523,None,1134.3319082771523,None,1134.3319082771523,None,1134.3319082771523,None,1135.3334843185012,None,1135.3334843185012,None,1136.3308567274798,None,1136.3308567274798,None,h,,,,,,,,,,,,,,,,,,,,,,,,,,,,,,,,,,,,,,,,,,,,,,,71_72Exp,001,2021_May_26_1033,ComputerHuman,2020.1.3,59.9724888368189,
Human.xlsx,h,,,,,,,,,0,4,4,0,,,,,,,,,,,,,,,,,,,,,,,,,,,,,,,,,,,,,,,,,,,,,,,,,,,,,,,,,,,,,,,,,,,,,,,,,,,,,,,h,1137.3311220208234,None,1137.3311220208234,None,q,0,4.589873814039493,1137.3311220208234,None,o,1,9.32852265932388,1137.3311220208234,None,h,h,1146.7621608287163,None,1146.7621608287163,None,None,None,1148.744898476376,None,1148.744898476376,None,"['space', 'space']",1149.7280396778756,None,"[75.78542291672557, 77.52131938367256]",,,,,,,,,,,,,,,,,71_72Exp,001,2021_May_26_1033,ComputerHuman,2020.1.3,59.9724888368189,
Human.xlsx,h,Sychronize.jpg,Number7.jpg,7,Human,,,,,0,5,5,6,0,0,0,3,,,,,,,,,,,,,,,,,,,,,,,,,1227.3158350934013,None,1227.3158350934013,None,1230.3787959082592,None,1230.3787959082592,None,1230.8285136772033,None,1230.8285136772033,None,v,6.744467976174292,1230.8285136772033,None,t,5.739719963147309,1230.8285136772033,None,6.744467976174292,5.739719963147309,6.6276455243938965,False,False,False,1237.644419985988,None,1237.644419985988,None,1237.644419985988,None,1237.644419985988,None,1237.644419985988,None,1237.644419985988,None,1237.644419985988,None,1237.644419985988,None,1238.6627643630522,None,1238.6627643630522,None,1239.6427740124159,None,1239.6427740124159,None,h,,,,,,,,,,,,,,,,,,,,,,,,,,,,,,,,,,,,,,,,,,,,,,,71_72Exp,001,2021_May_26_1033,ComputerHuman,2020.1.3,59.9724888368189,
Human.xlsx,h,Sychronize.jpg,Number6.jpg,6,Human,,,,,0,5,5,6,0,1,1,1,,,,,,,,,,,,,,,,,,,,,,,,,,,,,1240.6934655715322,None,1240.6934655715322,None,1241.1429937535768,None,1241.1429937535768,None,v,5.629634132571027,1241.1429937535768,None,t,5.676681196315712,1241.1429937535768,None,5.629634132571027,5.676681196315712,6.249745053579087,True,False,False,1246.9079929323543,None,1246.9079929323543,None,1246.9079929323543,None,1246.9079929323543,None,1246.9079929323543,None,1246.9079929323543,None,1246.9079929323543,None,1246.9079929323543,None,1247.893151261475,None,1247.893151261475,None,1248.8909686062061,None,1248.8909686062061,None,h,,,,,,,,,,,,,,,,,,,,,,,,,,,,,,,,,,,,,,,,,,,,,,,71_72Exp,001,2021_May_26_1033,ComputerHuman,2020.1.3,59.9724888368189,
Human.xlsx,h,Sychronize.jpg,Number8.jpg,8,Human,,,,,0,5,5,6,0,2,2,5,,,,,,,,,,,,,,,,,,,,,,,,,,,,,1249.9070456394375,None,1249.9070456394375,None,1250.3908441396798,None,1250.3908441396798,None,v,6.409413711335219,1250.3908441396798,None,t,6.200660250010969,1250.3908441396798,None,6.409413711335219,6.200660250010969,8.215190280678033,True,False,False,1256.8893466918853,None,1256.8893466918853,None,1256.8893466918853,None,1256.8893466918853,None,1256.8893466918853,None,1256.8893466918853,None,1256.8893466918853,None,1256.8893466918853,None,1257.8576927370577,None,1257.8576927370577,None,1258.8556647025766,None,1258.8556647025766,None,h,,,,,,,,,,,,,,,,,,,,,,,,,,,,,,,,,,,,,,,,,,,,,,,71_72Exp,001,2021_May_26_1033,ComputerHuman,2020.1.3,59.9724888368189,
Human.xlsx,h,Sychronize.jpg,Number6.jpg,6,Human,,,,,0,5,5,6,0,3,3,0,,,,,,,,,,,,,,,,,,,,,,,,,,,,,1259.9224207841135,None,1259.9224207841135,None,1260.3556964607878,None,1260.3556964607878,None,v,5.480265960586166,1260.3556964607878,None,t,5.691604027069843,1260.3556964607878,None,5.480265960586166,5.691604027069843,6.42360149344269,True,False,False,1266.1373106376536,None,1266.1373106376536,None,1266.1373106376536,None,1266.1373106376536,None,1266.1373106376536,None,1266.1373106376536,None,1266.1373106376536,None,1266.1373106376536,None,1267.1223550863183,None,1267.1223550863183,None,1268.1031105724692,None,1268.1031105724692,None,h,,,,,,,,,,,,,,,,,,,,,,,,,,,,,,,,,,,,,,,,,,,,,,,71_72Exp,001,2021_May_26_1033,ComputerHuman,2020.1.3,59.9724888368189,
Human.xlsx,h,Sychronize.jpg,Number9.jpg,9,Human,,,,,0,5,5,6,0,4,4,7,,,,,,,,,,,,,,,,,,,,,,,,,,,,,1269.1704559452655,None,1269.1704559452655,None,1269.620302351006,None,1269.620302351006,None,v,8.143173395985741,1269.620302351006,None,t,7.626583740309343,1269.620302351006,None,8.143173395985741,7.626583740309343,9.606653211023648,False,False,False,1277.8186262873305,None,1277.8186262873305,None,1277.8186262873305,None,1277.8186262873305,None,1277.8186262873305,None,1277.8186262873305,None,1277.8186262873305,None,1277.8186262873305,None,1278.8368872589904,None,1278.8368872589904,None,1279.8345416423936,None,1279.8345416423936,None,h,,,,,,,,,,,,,,,,,,,,,,,,,,,,,,,,,,,,,,,,,,,,,,,71_72Exp,001,2021_May_26_1033,ComputerHuman,2020.1.3,59.9724888368189,
Human.xlsx,h,Sychronize.jpg,Number10.jpg,10,Human,,,,,0,5,5,6,0,5,5,9,,,,,,,,,,,,,,,,,,,,,,,,,,,,,1280.8845348416453,None,1280.8845348416453,None,1281.3348800758604,None,1281.3348800758604,None,v,8.644133199713451,1281.3348800758604,None,t,10.031498050880145,1281.3348800758604,None,8.644133199713451,10.031498050880145,10.537865317204293,False,False,False,1291.4488413706204,None,1291.4488413706204,None,1291.4488413706204,None,1291.4488413706204,None,1291.4488413706204,None,1291.4488413706204,None,1291.4488413706204,None,1291.4488413706204,None,1292.4174475764958,None,1292.4174475764958,None,1293.41512633994,None,1293.41512633994,None,h,,,,,,,,,,,,,,,,,,,,,,,,,,,,,,,,,,,,,,,,,,,,,,,71_72Exp,001,2021_May_26_1033,ComputerHuman,2020.1.3,59.9724888368189,
Human.xlsx,h,Sychronize.jpg,Number8.jpg,8,Human,,,,,0,5,5,6,0,6,6,4,,,,,,,,,,,,,,,,,,,,,,,,,,,,,1294.48194208842,None,1294.48194208842,None,1294.931901091456,None,1294.931901091456,None,v,5.742705876616583,1294.931901091456,None,t,11.837429714907557,1294.931901091456,None,5.742705876616583,11.837429714907557,8.33763685800425,False,False,False,1306.8471252723507,None,1306.8471252723507,None,1306.8471252723507,None,1306.8471252723507,None,1306.8471252723507,None,1306.8471252723507,None,1306.8471252723507,None,1306.8471252723507,None,1307.8311075852725,None,1307.8311075852725,None,1308.8287026225225,None,1308.8287026225225,None,h,,,,,,,,,,,,,,,,,,,,,,,,,,,,,,,,,,,,,,,,,,,,,,,71_72Exp,001,2021_May_26_1033,ComputerHuman,2020.1.3,59.9724888368189,
Human.xlsx,h,Sychronize.jpg,Number9.jpg,9,Human,,,,,0,5,5,6,0,7,7,6,,,,,,,,,,,,,,,,,,,,,,,,,,,,,1309.8953098574925,None,1309.8953098574925,None,1310.3285181682636,None,1310.3285181682636,None,v,8.773429540397956,1310.3285181682636,None,t,8.948537903264878,1310.3285181682636,None,8.773429540397956,8.948537903264878,9.518997923990993,True,False,False,1319.359709223098,None,1319.359709223098,None,1319.359709223098,None,1319.359709223098,None,1319.359709223098,None,1319.359709223098,None,1319.359709223098,None,1319.359709223098,None,1320.345821902516,None,1320.345821902516,None,1321.3259922676775,None,1321.3259922676775,None,h,,,,,,,,,,,,,,,,,,,,,,,,,,,,,,,,,,,,,,,,,,,,,,,71_72Exp,001,2021_May_26_1033,ComputerHuman,2020.1.3,59.9724888368189,
Human.xlsx,h,Sychronize.jpg,Number7.jpg,7,Human,,,,,0,5,5,6,0,8,8,2,,,,,,,,,,,,,,,,,,,,,,,,,,,,,1322.3929626369454,None,1322.3929626369454,None,1322.825925543354,None,1322.825925543354,None,v,7.091613458296251,1322.825925543354,None,t,6.814643679281744,1322.825925543354,None,7.091613458296251,6.814643679281744,6.684642895843369,True,False,False,1329.992190046271,None,1329.992190046271,None,1329.992190046271,None,1329.992190046271,None,1329.992190046271,None,1329.992190046271,None,1329.992190046271,None,1329.992190046271,None,1330.9932711086249,None,1330.9932711086249,None,1331.9905350905783,None,1331.9905350905783,None,h,,,,,,,,,,,,,,,,,,,,,,,,,,,,,,,,,,,,,,,,,,,,,,,71_72Exp,001,2021_May_26_1033,ComputerHuman,2020.1.3,59.9724888368189,
Human.xlsx,h,Sychronize.jpg,Number10.jpg,10,Human,,,,,0,5,5,6,0,9,9,8,,,,,,,,,,,,,,,,,,,,,,,,,,,,,1333.0403775185227,None,1333.0403775185227,None,1333.4906255533629,None,1333.4906255533629,None,v,8.87043708281226,1333.4906255533629,None,t,10.257501032943765,1333.4906255533629,None,8.87043708281226,10.257501032943765,9.788217653930458,False,False,False,1343.821346586666,None,1343.821346586666,None,1343.821346586666,None,1343.821346586666,None,1343.821346586666,None,1343.821346586666,None,1343.821346586666,None,1343.821346586666,None,1344.8236639737415,None,1344.8236639737415,None,1345.8210485727413,None,1345.8210485727413,None,h,,,,,,,,,,,,,,,,,,,,,,,,,,,,,,,,,,,,,,,,,,,,,,,71_72Exp,001,2021_May_26_1033,ComputerHuman,2020.1.3,59.9724888368189,
Human.xlsx,h,,,,,,,,,0,5,5,6,,,,,,,,,,,,,,,,,,,,,,,,,,,,,,,,,,,,,,,,,,,,,,,,,,,,,,,,,,,,,,,,,,,,,,,,,,,,,,,h,1346.822125144035,None,1346.822125144035,None,q,1,3.5826313378483974,1346.822125144035,None,l,0,1.8378233242569877,1346.822125144035,None,h,c,1350.5034520213621,None,1350.5034520213621,None,1352.5029535136773,None,None,None,None,None,None,None,None,,,,,,,,,,,,,,,,,,71_72Exp,001,2021_May_26_1033,ComputerHuman,2020.1.3,59.9724888368189,
Human.xlsx,h,Sychronize.jpg,Number8.jpg,8,Human,,,,,0,6,6,4,0,0,0,4,,,,,,,,,,,,,,,,,,,,,,,,,1357.4878375673338,None,1357.4878375673338,None,1360.5682791925333,None,1360.5682791925333,None,1361.001336411207,None,1361.001336411207,None,v,8.310728116346581,1361.001336411207,None,t,6.06957871288796,1361.001336411207,None,8.310728116346581,6.06957871288796,7.919121677417956,False,False,False,1369.399418215227,None,1369.399418215227,None,1369.399418215227,None,1369.399418215227,None,1369.399418215227,None,1369.399418215227,None,1369.399418215227,None,1369.399418215227,None,1370.383508955174,None,1370.383508955174,None,1371.3823637348173,None,1371.3823637348173,None,h,,,,,,,,,,,,,,,,,,,,,,,,,,,,,,,,,,,,,,,,,,,,,,,71_72Exp,001,2021_May_26_1033,ComputerHuman,2020.1.3,59.9724888368189,
Human.xlsx,h,Sychronize.jpg,Number9.jpg,9,Human,,,,,0,6,6,4,0,1,1,7,,,,,,,,,,,,,,,,,,,,,,,,,,,,,1372.4492882311124,None,1372.4492882311124,None,1372.8824596510317,None,1372.8824596510317,None,v,6.957208215817445,1372.8824596510317,None,t,9.48058675060247,1372.8824596510317,None,6.957208215817445,9.48058675060247,8.99787306325832,False,False,False,1382.4466744340625,None,1382.4466744340625,None,1382.4466744340625,None,1382.4466744340625,None,1382.4466744340625,None,1382.4466744340625,None,1382.4466744340625,None,1382.4466744340625,None,1383.430439892933,None,1383.430439892933,None,1384.429610329952,None,1384.429610329952,None,h,,,,,,,,,,,,,,,,,,,,,,,,,,,,,,,,,,,,,,,,,,,,,,,71_72Exp,001,2021_May_26_1033,ComputerHuman,2020.1.3,59.9724888368189,
Human.xlsx,h,Sychronize.jpg,Number6.jpg,6,Human,,,,,0,6,6,4,0,2,2,1,,,,,,,,,,,,,,,,,,,,,,,,,,,,,1385.4795781867924,None,1385.4795781867924,None,1385.9295586827593,None,1385.9295586827593,None,v,4.849721105159915,1385.9295586827593,None,t,9.468568994233465,1385.9295586827593,None,4.849721105159915,9.468568994233465,6.359140645187077,False,False,False,1395.494122806117,None,1395.494122806117,None,1395.494122806117,None,1395.494122806117,None,1395.494122806117,None,1395.494122806117,None,1395.494122806117,None,1395.494122806117,None,1396.4795249356498,None,1396.4795249356498,None,1397.4769871658332,None,1397.4769871658332,None,h,,,,,,,,,,,,,,,,,,,,,,,,,,,,,,,,,,,,,,,,,,,,,,,71_72Exp,001,2021_May_26_1033,ComputerHuman,2020.1.3,59.9724888368189,
Human.xlsx,h,Sychronize.jpg,Number10.jpg,10,Human,,,,,0,6,6,4,0,3,3,9,,,,,,,,,,,,,,,,,,,,,,,,,,,,,1398.527127928492,None,1398.527127928492,None,1398.977182206163,None,1398.977182206163,None,v,11.293349638020572,1398.977182206163,None,t,9.888489220172232,1398.977182206163,None,11.293349638020572,9.888489220172232,9.764678932088858,False,False,False,1410.3409991454155,None,1410.3409991454155,None,1410.3409991454155,None,1410.3409991454155,None,1410.3409991454155,None,1410.3409991454155,None,1410.3409991454155,None,1410.3409991454155,None,1411.342912016281,None,1411.342912016281,None,1412.3406177260863,None,1412.3406177260863,None,h,,,,,,,,,,,,,,,,,,,,,,,,,,,,,,,,,,,,,,,,,,,,,,,71_72Exp,001,2021_May_26_1033,ComputerHuman,2020.1.3,59.9724888368189,
Human.xlsx,h,Sychronize.jpg,Number10.jpg,10,Human,,,,,0,6,6,4,0,4,4,8,,,,,,,,,,,,,,,,,,,,,,,,,,,,,1413.3912868299017,None,1413.3912868299017,None,1413.840670335649,None,1413.840670335649,None,v,8.881426707180708,1413.840670335649,None,t,9.884601886758901,1413.840670335649,None,8.881426707180708,9.884601886758901,9.938210428706844,False,False,False,1423.8215589496567,None,1423.8215589496567,None,1423.8215589496567,None,1423.8215589496567,None,1423.8215589496567,None,1423.8215589496567,None,1423.8215589496567,None,1423.8215589496567,None,1424.7908211711147,None,1424.7908211711147,None,1425.7878195389349,None,1425.7878195389349,None,h,,,,,,,,,,,,,,,,,,,,,,,,,,,,,,,,,,,,,,,,,,,,,,,71_72Exp,001,2021_May_26_1033,ComputerHuman,2020.1.3,59.9724888368189,
Human.xlsx,h,Sychronize.jpg,Number9.jpg,9,Human,,,,,0,6,6,4,0,5,5,6,,,,,,,,,,,,,,,,,,,,,,,,,,,,,1426.8555549923908,None,1426.8555549923908,None,1427.2881432160611,None,1427.2881432160611,None,v,8.549427646453296,1427.2881432160611,None,t,8.448573510956976,1427.2881432160611,None,8.549427646453296,8.448573510956976,9.551743149211998,True,False,False,1435.935692829445,None,1435.935692829445,None,1435.935692829445,None,1435.935692829445,None,1435.935692829445,None,1435.935692829445,None,1435.935692829445,None,1435.935692829445,None,1436.921046198895,None,1436.921046198895,None,1437.9019072249612,None,1437.9019072249612,None,h,,,,,,,,,,,,,,,,,,,,,,,,,,,,,,,,,,,,,,,,,,,,,,,71_72Exp,001,2021_May_26_1033,ComputerHuman,2020.1.3,59.9724888368189,
Human.xlsx,h,Sychronize.jpg,Number7.jpg,7,Human,,,,,0,6,6,4,0,6,6,3,,,,,,,,,,,,,,,,,,,,,,,,,,,,,1438.9519514298254,None,1438.9519514298254,None,1439.402144288783,None,1439.402144288783,None,v,6.803052894424127,1439.402144288783,None,t,7.72258303970375,1439.402144288783,None,6.803052894424127,7.72258303970375,7.25652922315356,False,False,False,1447.216747548523,None,1447.216747548523,None,1447.216747548523,None,1447.216747548523,None,1447.216747548523,None,1447.216747548523,None,1447.216747548523,None,1447.216747548523,None,1448.2019068400132,None,1448.2019068400132,None,1449.1996443080302,None,1449.1996443080302,None,h,,,,,,,,,,,,,,,,,,,,,,,,,,,,,,,,,,,,,,,,,,,,,,,71_72Exp,001,2021_May_26_1033,ComputerHuman,2020.1.3,59.9724888368189,
Human.xlsx,h,Sychronize.jpg,Number6.jpg,6,Human,,,,,0,6,6,4,0,7,7,0,,,,,,,,,,,,,,,,,,,,,,,,,,,,,1450.2664738504814,None,1450.2664738504814,None,1450.6998897123926,None,1450.6998897123926,None,v,5.580977665315913,1450.6998897123926,None,t,5.736644549264383,1450.6998897123926,None,5.580977665315913,5.736644549264383,6.218875784695061,True,False,False,1456.5158130230484,None,1456.5158130230484,None,1456.5158130230484,None,1456.5158130230484,None,1456.5158130230484,None,1456.5158130230484,None,1456.5158130230484,None,1456.5158130230484,None,1457.5002518201627,None,1457.5002518201627,None,1458.4977592817386,None,1458.4977592817386,None,h,,,,,,,,,,,,,,,,,,,,,,,,,,,,,,,,,,,,,,,,,,,,,,,71_72Exp,001,2021_May_26_1033,ComputerHuman,2020.1.3,59.9724888368189,
Human.xlsx,h,Sychronize.jpg,Number7.jpg,7,Human,,,,,0,6,6,4,0,8,8,2,,,,,,,,,,,,,,,,,,,,,,,,,,,,,1459.564563481778,None,1459.564563481778,None,1459.9975475603278,None,1459.9975475603278,None,v,6.234892394197232,1459.9975475603278,None,t,6.770704429211946,1459.9975475603278,None,6.234892394197232,6.770704429211946,6.67914075067283,False,False,False,1466.8472984989594,None,1466.8472984989594,None,1466.8472984989594,None,1466.8472984989594,None,1466.8472984989594,None,1466.8472984989594,None,1466.8472984989594,None,1466.8472984989594,None,1467.847831972756,None,1467.847831972756,None,1468.8456291077164,None,1468.8456291077164,None,h,,,,,,,,,,,,,,,,,,,,,,,,,,,,,,,,,,,,,,,,,,,,,,,71_72Exp,001,2021_May_26_1033,ComputerHuman,2020.1.3,59.9724888368189,
Human.xlsx,h,Sychronize.jpg,Number8.jpg,8,Human,,,,,0,6,6,4,0,9,9,5,,,,,,,,,,,,,,,,,,,,,,,,,,,,,1469.8956300059285,None,1469.8956300059285,None,1470.3457324021015,None,1470.3457324021015,None,v,7.5302405540169275,1470.3457324021015,None,t,7.345625899816241,1470.3457324021015,None,7.5302405540169275,7.345625899816241,7.451273291151678,True,False,False,1477.9284404087634,None,1477.9284404087634,None,1477.9284404087634,None,1477.9284404087634,None,1477.9284404087634,None,1477.9284404087634,None,1477.9284404087634,None,1477.9284404087634,None,1478.9457698062174,None,1478.9457698062174,None,1479.9433414257965,None,1479.9433414257965,None,h,,,,,,,,,,,,,,,,,,,,,,,,,,,,,,,,,,,,,,,,,,,,,,,71_72Exp,001,2021_May_26_1033,ComputerHuman,2020.1.3,59.9724888368189,
Human.xlsx,h,,,,,,,,,0,6,6,4,,,,,,,,,,,,,,,,,,,,,,,,,,,,,,,,,,,,,,,,,,,,,,,,,,,,,,,,,,,,,,,,,,,,,,,,,,,,,,,h,1480.944160402707,None,1480.944160402707,None,a,0,3.171640943584407,1480.944160402707,None,l,0,3.4987511644676488,1480.944160402707,None,c,c,1484.5258389942078,None,1484.5258389942078,None,1486.5253626210342,None,None,None,None,None,None,None,None,,,,,,,,,,,,,,,,,,71_72Exp,001,2021_May_26_1033,ComputerHuman,2020.1.3,59.9724888368189,
Computer.xlsx,c,Sychronize.jpg,Number9.jpg,9,Computer,,,,,0,7,7,7,0,0,0,7,,,,,,,,,,,,,,,,,,,,,,,,,1491.5106620977617,None,1491.5106620977617,None,1494.5909555179733,None,1494.5909555179733,None,1495.04052219482,None,1495.04052219482,None,v,9.322487636752612,1495.04052219482,None,t,7.829557207125163,1495.04052219482,None,9.322487636752612,7.829557207125163,8.703954289954254,False,False,False,1504.439925974496,None,1504.439925974496,None,1504.439925974496,None,1504.439925974496,None,1504.439925974496,None,1504.439925974496,None,1504.439925974496,None,1504.439925974496,None,1505.4713486397222,None,1505.4713486397222,None,1506.437914941886,None,1506.437914941886,None,c,,,,,,,,,,,,,,,,,,,,,,,,,,,,,,,,,,,,,,,,,,,,,,,71_72Exp,001,2021_May_26_1033,ComputerHuman,2020.1.3,59.9724888368189,
Computer.xlsx,c,Sychronize.jpg,Number10.jpg,10,Computer,,,,,0,7,7,7,0,1,1,9,,,,,,,,,,,,,,,,,,,,,,,,,,,,,1507.5052487662415,None,1507.5052487662415,None,1507.9377298460468,None,1507.9377298460468,None,v,9.464802919445901,1507.9377298460468,None,t,9.824430661879887,1507.9377298460468,None,9.464802919445901,9.824430661879887,10.484443087205317,False,False,False,1517.8521738656223,None,1517.8521738656223,None,1517.8521738656223,None,1517.8521738656223,None,1517.8521738656223,None,1517.8521738656223,None,1517.8521738656223,None,1517.8521738656223,None,1518.8519910153132,None,1518.8519910153132,None,1519.8351440860438,None,1519.8351440860438,None,c,,,,,,,,,,,,,,,,,,,,,,,,,,,,,,,,,,,,,,,,,,,,,,,71_72Exp,001,2021_May_26_1033,ComputerHuman,2020.1.3,59.9724888368189,
Computer.xlsx,c,Sychronize.jpg,Number10.jpg,10,Computer,,,,,0,7,7,7,0,2,2,8,,,,,,,,,,,,,,,,,,,,,,,,,,,,,1520.8685360811778,None,1520.8685360811778,None,1521.318456589412,None,1521.318456589412,None,v,9.82356484962611,1521.318456589412,None,t,9.990434683303192,1521.318456589412,None,9.82356484962611,9.990434683303192,10.465233782343663,False,False,False,1531.399458634769,None,1531.399458634769,None,1531.399458634769,None,1531.399458634769,None,1531.399458634769,None,1531.399458634769,None,1531.399458634769,None,1531.399458634769,None,1532.3991449021337,None,1532.3991449021337,None,1533.382398380139,None,1533.382398380139,None,c,,,,,,,,,,,,,,,,,,,,,,,,,,,,,,,,,,,,,,,,,,,,,,,71_72Exp,001,2021_May_26_1033,ComputerHuman,2020.1.3,59.9724888368189,
Computer.xlsx,c,Sychronize.jpg,Number7.jpg,7,Computer,,,,,0,7,7,7,0,3,3,2,,,,,,,,,,,,,,,,,,,,,,,,,,,,,1534.4322228438423,None,1534.4322228438423,None,1534.8821940368985,None,1534.8821940368985,None,v,6.831494137241407,1534.8821940368985,None,t,6.458670055920265,1534.8821940368985,None,6.831494137241407,6.458670055920265,6.924427944289588,False,True,False,1541.7972536525153,None,1541.7972536525153,None,1541.7972536525153,None,1541.7972536525153,None,1541.7972536525153,None,1541.7972536525153,None,1541.7972536525153,None,1541.7972536525153,None,1542.780350584993,None,1542.780350584993,None,1543.7635440752651,None,1543.7635440752651,None,c,,,,,,,,,,,,,,,,,,,,,,,,,,,,,,,,,,,,,,,,,,,,,,,71_72Exp,001,2021_May_26_1033,ComputerHuman,2020.1.3,59.9724888368189,
Computer.xlsx,c,Sychronize.jpg,Number7.jpg,7,Computer,,,,,0,7,7,7,0,4,4,3,,,,,,,,,,,,,,,,,,,,,,,,,,,,,1544.813642493642,None,1544.813642493642,None,1545.2805250947613,None,1545.2805250947613,None,v,6.640713578143277,1545.2805250947613,None,t,5.779505944880384,1545.2805250947613,None,6.640713578143277,5.779505944880384,6.642878951555643,False,True,False,1552.011818224979,None,1552.011818224979,None,1552.011818224979,None,1552.011818224979,None,1552.011818224979,None,1552.011818224979,None,1552.011818224979,None,1552.011818224979,None,1553.0115567811163,None,1553.0115567811163,None,1553.9780951745483,None,1553.9780951745483,None,c,,,,,,,,,,,,,,,,,,,,,,,,,,,,,,,,,,,,,,,,,,,,,,,71_72Exp,001,2021_May_26_1033,ComputerHuman,2020.1.3,59.9724888368189,
Computer.xlsx,c,Sychronize.jpg,Number6.jpg,6,Computer,,,,,0,7,7,7,0,5,5,1,,,,,,,,,,,,,,,,,,,,,,,,,,,,,1555.0285326679723,None,1555.0285326679723,None,1555.4782228489748,None,1555.4782228489748,None,v,5.238936914718579,1555.4782228489748,None,t,6.465629595316841,1555.4782228489748,None,5.238936914718579,6.465629595316841,6.2050714536107625,False,False,True,1562.026422832037,None,1562.026422832037,None,1562.026422832037,None,1562.026422832037,None,1562.026422832037,None,1562.026422832037,None,1562.026422832037,None,1562.026422832037,None,1563.0261947503354,None,1563.0261947503354,None,1564.0093770129574,None,1564.0093770129574,None,c,,,,,,,,,,,,,,,,,,,,,,,,,,,,,,,,,,,,,,,,,,,,,,,71_72Exp,001,2021_May_26_1033,ComputerHuman,2020.1.3,59.9724888368189,
Computer.xlsx,c,Sychronize.jpg,Number8.jpg,8,Computer,,,,,0,7,7,7,0,6,6,5,,,,,,,,,,,,,,,,,,,,,,,,,,,,,1565.0597622176087,None,1565.0597622176087,None,1565.5094543233513,None,1565.5094543233513,None,v,7.858990011881815,1565.5094543233513,None,t,7.274614538716833,1565.5094543233513,None,7.858990011881815,7.274614538716833,7.824606742670831,False,True,False,1573.4574115966875,None,1573.4574115966875,None,1573.4574115966875,None,1573.4574115966875,None,1573.4574115966875,None,1573.4574115966875,None,1573.4574115966875,None,1573.4574115966875,None,1574.4403782884187,None,1574.4403782884187,None,1575.4236381822243,None,1575.4236381822243,None,c,,,,,,,,,,,,,,,,,,,,,,,,,,,,,,,,,,,,,,,,,,,,,,,71_72Exp,001,2021_May_26_1033,ComputerHuman,2020.1.3,59.9724888368189,
Computer.xlsx,c,Sychronize.jpg,Number8.jpg,8,Computer,,,,,0,7,7,7,0,7,7,4,,,,,,,,,,,,,,,,,,,,,,,,,,,,,1576.4736426091263,None,1576.4736426091263,None,1576.9235820439712,None,1576.9235820439712,None,v,8.212393465635614,1576.9235820439712,None,t,7.231573821481561,1576.9235820439712,None,8.212393465635614,7.231573821481561,7.907131781199013,False,False,False,1585.2216168201753,None,1585.2216168201753,None,1585.2216168201753,None,1585.2216168201753,None,1585.2216168201753,None,1585.2216168201753,None,1585.2216168201753,None,1585.2216168201753,None,1586.221384568204,None,1586.221384568204,None,1587.1879014687051,None,1587.1879014687051,None,c,,,,,,,,,,,,,,,,,,,,,,,,,,,,,,,,,,,,,,,,,,,,,,,71_72Exp,001,2021_May_26_1033,ComputerHuman,2020.1.3,59.9724888368189,
Computer.xlsx,c,Sychronize.jpg,Number6.jpg,6,Computer,,,,,0,7,7,7,0,8,8,0,,,,,,,,,,,,,,,,,,,,,,,,,,,,,1588.2380675737754,None,1588.2380675737754,None,1588.6881385325269,None,1588.6881385325269,None,v,6.019582626525789,1588.6881385325269,None,t,5.182698254645857,1588.6881385325269,None,6.019582626525789,5.182698254645857,6.21953492197802,False,True,False,1594.7863092595398,None,1594.7863092595398,None,1594.7863092595398,None,1594.7863092595398,None,1594.7863092595398,None,1594.7863092595398,None,1594.7863092595398,None,1594.7863092595398,None,1595.8026936096062,None,1595.8026936096062,None,1596.7860215108954,None,1596.7860215108954,None,c,,,,,,,,,,,,,,,,,,,,,,,,,,,,,,,,,,,,,,,,,,,,,,,71_72Exp,001,2021_May_26_1033,ComputerHuman,2020.1.3,59.9724888368189,
Computer.xlsx,c,Sychronize.jpg,Number9.jpg,9,Computer,,,,,0,7,7,7,0,9,9,6,,,,,,,,,,,,,,,,,,,,,,,,,,,,,1597.8356490095289,None,1597.8356490095289,None,1598.2858113934349,None,1598.2858113934349,None,v,8.673348508839808,1598.2858113934349,None,t,8.87255461770792,1598.2858113934349,None,8.673348508839808,8.87255461770792,9.669559793481065,False,False,False,1607.2342630041858,None,1607.2342630041858,None,1607.2342630041858,None,1607.2342630041858,None,1607.2342630041858,None,1607.2342630041858,None,1607.2342630041858,None,1607.2342630041858,None,1608.2334273461943,None,1608.2334273461943,None,1609.21668852316,None,1609.21668852316,None,c,,,,,,,,,,,,,,,,,,,,,,,,,,,,,,,,,,,,,,,,,,,,,,,71_72Exp,001,2021_May_26_1033,ComputerHuman,2020.1.3,59.9724888368189,
Computer.xlsx,c,,,,,,,,,0,7,7,7,,,,,,,,,,,,,,,,,,,,,,,,,,,,,,,,,,,,,,,,,,,,,,,,,,,,,,,,,,,,,,,,,,,,,,,,,,,,,,,c,1610.2173839959146,None,1610.2173839959146,None,a,1,1.8455822723740312,1610.2173839959146,None,l,0,1.6569173234306618,1610.2173839959146,None,c,c,1612.1498390917282,None,1612.1498390917282,None,1614.1490230019276,None,None,None,None,None,None,None,None,,,,,,,,,,,,,,,,,,71_72Exp,001,2021_May_26_1033,ComputerHuman,2020.1.3,59.9724888368189,
Computer.xlsx,c,Sychronize.jpg,Number8.jpg,8,Computer,,,,,0,8,8,9,0,0,0,5,,,,,,,,,,,,,,,,,,,,,,,,,1619.151156576324,None,1619.151156576324,None,1622.2147756522945,None,1622.2147756522945,None,1622.6478627044394,None,1622.6478627044394,None,v,8.210415153606846,1622.6478627044394,None,t,6.6456495741194885,1622.6478627044394,None,8.210415153606846,6.6456495741194885,7.793716645451475,False,False,False,1630.9298932667461,None,1630.9298932667461,None,1630.9298932667461,None,1630.9298932667461,None,1630.9298932667461,None,1630.9298932667461,None,1630.9298932667461,None,1630.9298932667461,None,1631.961980929675,None,1631.961980929675,None,1632.9451587012368,None,1632.9451587012368,None,c,,,,,,,,,,,,,,,,,,,,,,,,,,,,,,,,,,,,,,,,,,,,,,,71_72Exp,001,2021_May_26_1033,ComputerHuman,2020.1.3,59.9724888368189,
Computer.xlsx,c,Sychronize.jpg,Number10.jpg,10,Computer,,,,,0,8,8,9,0,1,1,9,,,,,,,,,,,,,,,,,,,,,,,,,,,,,1633.9953350715878,None,1633.9953350715878,None,1634.4455661045572,None,1634.4455661045572,None,v,8.824292401382536,1634.4455661045572,None,t,8.30387315449525,1634.4455661045572,None,8.824292401382536,8.30387315449525,10.125887709116707,False,False,False,1643.3269899246275,None,1643.3269899246275,None,1643.3269899246275,None,1643.3269899246275,None,1643.3269899246275,None,1643.3269899246275,None,1643.3269899246275,None,1643.3269899246275,None,1644.342732373872,None,1644.342732373872,None,1645.3425912262646,None,1645.3425912262646,None,c,,,,,,,,,,,,,,,,,,,,,,,,,,,,,,,,,,,,,,,,,,,,,,,71_72Exp,001,2021_May_26_1033,ComputerHuman,2020.1.3,59.9724888368189,
Computer.xlsx,c,Sychronize.jpg,Number6.jpg,6,Computer,,,,,0,8,8,9,0,2,2,0,,,,,,,,,,,,,,,,,,,,,,,,,,,,,1646.3928814770711,None,1646.3928814770711,None,1646.8428039100454,None,1646.8428039100454,None,v,7.994601745611362,1646.8428039100454,None,t,5.117655833374101,1646.8428039100454,None,7.994601745611362,5.117655833374101,6.341597928948047,False,False,False,1654.9089825695537,None,1654.9089825695537,None,1654.9089825695537,None,1654.9089825695537,None,1654.9089825695537,None,1654.9089825695537,None,1654.9089825695537,None,1654.9089825695537,None,1655.9237148510379,None,1655.9237148510379,None,1656.906802159815,None,1656.906802159815,None,c,,,,,,,,,,,,,,,,,,,,,,,,,,,,,,,,,,,,,,,,,,,,,,,71_72Exp,001,2021_May_26_1033,ComputerHuman,2020.1.3,59.9724888368189,
Computer.xlsx,c,Sychronize.jpg,Number6.jpg,6,Computer,,,,,0,8,8,9,0,3,3,1,,,,,,,,,,,,,,,,,,,,,,,,,,,,,1657.956685007301,None,1657.956685007301,None,1658.4068733751988,None,1658.4068733751988,None,v,6.122203994220854,1658.4068733751988,None,t,5.533626171846208,1658.4068733751988,None,6.122203994220854,5.533626171846208,6.428548319438241,False,False,False,1664.622007670731,None,1664.622007670731,None,1664.622007670731,None,1664.622007670731,None,1664.622007670731,None,1664.622007670731,None,1664.622007670731,None,1664.622007670731,None,1665.6217247339368,None,1665.6217247339368,None,1666.6049012223384,None,1666.6049012223384,None,c,,,,,,,,,,,,,,,,,,,,,,,,,,,,,,,,,,,,,,,,,,,,,,,71_72Exp,001,2021_May_26_1033,ComputerHuman,2020.1.3,59.9724888368189,
Computer.xlsx,c,Sychronize.jpg,Number7.jpg,7,Computer,,,,,0,8,8,9,0,4,4,3,,,,,,,,,,,,,,,,,,,,,,,,,,,,,1667.6554218003762,None,1667.6554218003762,None,1668.1050686747267,None,1668.1050686747267,None,v,7.5717527068263735,1668.1050686747267,None,t,6.506653184931565,1668.1050686747267,None,7.5717527068263735,6.506653184931565,7.223014556821895,False,False,False,1675.769681109061,None,1675.769681109061,None,1675.769681109061,None,1675.769681109061,None,1675.769681109061,None,1675.769681109061,None,1675.769681109061,None,1675.769681109061,None,1676.7527450001671,None,1676.7527450001671,None,1677.7359275835788,None,1677.7359275835788,None,c,,,,,,,,,,,,,,,,,,,,,,,,,,,,,,,,,,,,,,,,,,,,,,,71_72Exp,001,2021_May_26_1033,ComputerHuman,2020.1.3,59.9724888368189,
Computer.xlsx,c,Sychronize.jpg,Number9.jpg,9,Computer,,,,,0,8,8,9,0,5,5,6,,,,,,,,,,,,,,,,,,,,,,,,,,,,,1678.8025672183398,None,1678.8025672183398,None,1679.2526962400843,None,1679.2526962400843,None,v,9.207464847830124,1679.2526962400843,None,t,9.014526334293805,1679.2526962400843,None,9.207464847830124,9.014526334293805,8.691582749508562,False,False,False,1688.5503749393706,None,1688.5503749393706,None,1688.5503749393706,None,1688.5503749393706,None,1688.5503749393706,None,1688.5503749393706,None,1688.5503749393706,None,1688.5503749393706,None,1689.5335533525126,None,1689.5335533525126,None,1690.5164667931008,None,1690.5164667931008,None,c,,,,,,,,,,,,,,,,,,,,,,,,,,,,,,,,,,,,,,,,,,,,,,,71_72Exp,001,2021_May_26_1033,ComputerHuman,2020.1.3,59.9724888368189,
Computer.xlsx,c,Sychronize.jpg,Number8.jpg,8,Computer,,,,,0,8,8,9,0,6,6,4,,,,,,,,,,,,,,,,,,,,,,,,,,,,,1691.5669001162546,None,1691.5669001162546,None,1692.0168318521391,None,1692.0168318521391,None,v,9.206843798358932,1692.0168318521391,None,t,8.470719891290628,1692.0168318521391,None,9.206843798358932,8.470719891290628,7.651301815392822,False,False,False,1701.314622827931,None,1701.314622827931,None,1701.314622827931,None,1701.314622827931,None,1701.314622827931,None,1701.314622827931,None,1701.314622827931,None,1701.314622827931,None,1702.3142276146314,None,1702.3142276146314,None,1703.29735213505,None,1703.29735213505,None,c,,,,,,,,,,,,,,,,,,,,,,,,,,,,,,,,,,,,,,,,,,,,,,,71_72Exp,001,2021_May_26_1033,ComputerHuman,2020.1.3,59.9724888368189,
Computer.xlsx,c,Sychronize.jpg,Number7.jpg,7,Computer,,,,,0,8,8,9,0,7,7,2,,,,,,,,,,,,,,,,,,,,,,,,,,,,,1704.3311489671846,None,1704.3311489671846,None,1704.7805671182537,None,1704.7805671182537,None,v,6.726700379558679,1704.7805671182537,None,t,6.905544983742402,1704.7805671182537,None,6.726700379558679,6.905544983742402,7.486978702198601,False,False,False,1711.77889451911,None,1711.77889451911,None,1711.77889451911,None,1711.77889451911,None,1711.77889451911,None,1711.77889451911,None,1711.77889451911,None,1711.77889451911,None,1712.778631150507,None,1712.778631150507,None,1713.7618605692614,None,1713.7618605692614,None,c,,,,,,,,,,,,,,,,,,,,,,,,,,,,,,,,,,,,,,,,,,,,,,,71_72Exp,001,2021_May_26_1033,ComputerHuman,2020.1.3,59.9724888368189,
Computer.xlsx,c,Sychronize.jpg,Number10.jpg,10,Computer,,,,,0,8,8,9,0,8,8,8,,,,,,,,,,,,,,,,,,,,,,,,,,,,,1714.8123047992754,None,1714.8123047992754,None,1715.2620264176994,None,1715.2620264176994,None,v,10.512800484007585,1715.2620264176994,None,t,9.971542396891891,1715.2620264176994,None,10.512800484007585,9.971542396891891,9.463234889925458,False,False,False,1725.8265623115358,None,1725.8265623115358,None,1725.8265623115358,None,1725.8265623115358,None,1725.8265623115358,None,1725.8265623115358,None,1725.8265623115358,None,1725.8265623115358,None,1726.842349350593,None,1726.842349350593,None,1727.8255681832766,None,1727.8255681832766,None,c,,,,,,,,,,,,,,,,,,,,,,,,,,,,,,,,,,,,,,,,,,,,,,,71_72Exp,001,2021_May_26_1033,ComputerHuman,2020.1.3,59.9724888368189,
Computer.xlsx,c,Sychronize.jpg,Number9.jpg,9,Computer,,,,,0,8,8,9,0,9,9,7,,,,,,,,,,,,,,,,,,,,,,,,,,,,,1728.8920095698077,None,1728.8920095698077,None,1729.3424035641056,None,1729.3424035641056,None,v,9.65581573051577,1729.3424035641056,None,t,8.01960668577749,1729.3424035641056,None,9.65581573051577,8.01960668577749,8.75726869147389,False,False,False,1739.0898943446005,None,1739.0898943446005,None,1739.0898943446005,None,1739.0898943446005,None,1739.0898943446005,None,1739.0898943446005,None,1739.0898943446005,None,1739.0898943446005,None,1740.07303426294,None,1740.07303426294,None,1741.0562348105927,None,1741.0562348105927,None,c,,,,,,,,,,,,,,,,,,,,,,,,,,,,,,,,,,,,,,,,,,,,,,,71_72Exp,001,2021_May_26_1033,ComputerHuman,2020.1.3,59.9724888368189,
Computer.xlsx,c,,,,,,,,,0,8,8,9,,,,,,,,,,,,,,,,,,,,,,,,,,,,,,,,,,,,,,,,,,,,,,,,,,,,,,,,,,,,,,,,,,,,,,,,,,,,,,,c,1742.0573665577695,None,1742.0573665577695,None,q,0,3.024703076761398,1742.0573665577695,None,l,1,5.85964474430466,1742.0573665577695,None,h,c,1748.0048134541898,None,1748.0048134541898,None,1750.0043855203085,None,None,None,None,None,None,None,None,,,,,,,,,,,,,,,,,,71_72Exp,001,2021_May_26_1033,ComputerHuman,2020.1.3,59.9724888368189,
Computer.xlsx,c,Sychronize.jpg,Number7.jpg,7,Computer,,,,,0,9,9,3,0,0,0,2,,,,,,,,,,,,,,,,,,,,,,,,,1755.0060850658133,None,1755.0060850658133,None,1758.0698760852329,None,1758.0698760852329,None,1758.502871391433,None,1758.502871391433,None,v,7.070730028255184,1758.502871391433,None,t,6.765564089995678,1758.502871391433,None,7.070730028255184,6.765564089995678,6.864002384623504,False,True,True,1765.634887710663,None,1765.634887710663,None,1765.634887710663,None,1765.634887710663,None,1765.634887710663,None,1765.634887710663,None,1765.634887710663,None,1765.634887710663,None,1766.6675582490511,None,1766.6675582490511,None,1767.650763929344,None,1767.650763929344,None,c,,,,,,,,,,,,,,,,,,,,,,,,,,,,,,,,,,,,,,,,,,,,,,,71_72Exp,001,2021_May_26_1033,ComputerHuman,2020.1.3,59.9724888368189,
Computer.xlsx,c,Sychronize.jpg,Number6.jpg,6,Computer,,,,,0,9,9,3,0,1,1,1,,,,,,,,,,,,,,,,,,,,,,,,,,,,,1768.7009258641442,None,1768.7009258641442,None,1769.1510465453484,None,1769.1510465453484,None,v,6.25787282857209,1769.1510465453484,None,t,5.680719942617088,1769.1510465453484,None,6.25787282857209,5.680719942617088,6.375421621300918,False,True,False,1775.4991168650863,None,1775.4991168650863,None,1775.4991168650863,None,1775.4991168650863,None,1775.4991168650863,None,1775.4991168650863,None,1775.4991168650863,None,1775.4991168650863,None,1776.4820861231374,None,1776.4820861231374,None,1777.4653745672545,None,1777.4653745672545,None,c,,,,,,,,,,,,,,,,,,,,,,,,,,,,,,,,,,,,,,,,,,,,,,,71_72Exp,001,2021_May_26_1033,ComputerHuman,2020.1.3,59.9724888368189,
Computer.xlsx,c,Sychronize.jpg,Number10.jpg,10,Computer,,,,,0,9,9,3,0,2,2,9,,,,,,,,,,,,,,,,,,,,,,,,,,,,,1778.5321248745713,None,1778.5321248745713,None,1778.9820556480859,None,1778.9820556480859,None,v,10.314305887394767,1778.9820556480859,None,t,8.825534821114616,1778.9820556480859,None,10.314305887394767,8.825534821114616,9.526394724411889,False,False,False,1789.3639625779201,None,1789.3639625779201,None,1789.3639625779201,None,1789.3639625779201,None,1789.3639625779201,None,1789.3639625779201,None,1789.3639625779201,None,1789.3639625779201,None,1790.3626614536151,None,1790.3626614536151,None,1791.345963370913,None,1791.345963370913,None,c,,,,,,,,,,,,,,,,,,,,,,,,,,,,,,,,,,,,,,,,,,,,,,,71_72Exp,001,2021_May_26_1033,ComputerHuman,2020.1.3,59.9724888368189,
Computer.xlsx,c,Sychronize.jpg,Number8.jpg,8,Computer,,,,,0,9,9,3,0,3,3,4,,,,,,,,,,,,,,,,,,,,,,,,,,,,,1792.3954073776572,None,1792.3954073776572,None,1792.8460349070865,None,1792.8460349070865,None,v,9.281871129668616,1792.8460349070865,None,t,7.7736069372767815,1792.8460349070865,None,9.281871129668616,7.7736069372767815,8.51427575287256,False,False,False,1802.2102592496594,None,1802.2102592496594,None,1802.2102592496594,None,1802.2102592496594,None,1802.2102592496594,None,1802.2102592496594,None,1802.2102592496594,None,1802.2102592496594,None,1803.2099278735727,None,1803.2099278735727,None,1804.1765336329086,None,1804.1765336329086,None,c,,,,,,,,,,,,,,,,,,,,,,,,,,,,,,,,,,,,,,,,,,,,,,,71_72Exp,001,2021_May_26_1033,ComputerHuman,2020.1.3,59.9724888368189,
Computer.xlsx,c,Sychronize.jpg,Number9.jpg,9,Computer,,,,,0,9,9,3,0,4,4,6,,,,,,,,,,,,,,,,,,,,,,,,,,,,,1805.2435976728611,None,1805.2435976728611,None,1805.6767713383106,None,1805.6767713383106,None,v,9.178666886514748,1805.6767713383106,None,t,8.313552351647559,1805.6767713383106,None,9.178666886514748,8.313552351647559,8.515894433385968,False,False,True,1814.9407372524465,None,1814.9407372524465,None,1814.9407372524465,None,1814.9407372524465,None,1814.9407372524465,None,1814.9407372524465,None,1814.9407372524465,None,1814.9407372524465,None,1815.9407423850867,None,1815.9407423850867,None,1816.9238954558173,None,1816.9238954558173,None,c,,,,,,,,,,,,,,,,,,,,,,,,,,,,,,,,,,,,,,,,,,,,,,,71_72Exp,001,2021_May_26_1033,ComputerHuman,2020.1.3,59.9724888368189,
Computer.xlsx,c,Sychronize.jpg,Number9.jpg,9,Computer,,,,,0,9,9,3,0,5,5,7,,,,,,,,,,,,,,,,,,,,,,,,,,,,,1817.9744256575555,None,1817.9744256575555,None,1818.424094987207,None,1818.424094987207,None,v,9.386833302109608,1818.424094987207,None,t,7.690620805670733,1818.424094987207,None,9.386833302109608,7.690620805670733,9.217436019639235,False,True,False,1827.873109584436,None,1827.873109584436,None,1827.873109584436,None,1827.873109584436,None,1827.873109584436,None,1827.873109584436,None,1827.873109584436,None,1827.873109584436,None,1828.9047462166027,None,1828.9047462166027,None,1829.8879105149836,None,1829.8879105149836,None,c,,,,,,,,,,,,,,,,,,,,,,,,,,,,,,,,,,,,,,,,,,,,,,,71_72Exp,001,2021_May_26_1033,ComputerHuman,2020.1.3,59.9724888368189,
Computer.xlsx,c,Sychronize.jpg,Number7.jpg,7,Computer,,,,,0,9,9,3,0,6,6,3,,,,,,,,,,,,,,,,,,,,,,,,,,,,,1830.938498138135,None,1830.938498138135,None,1831.388002581718,None,1831.388002581718,None,v,8.358467444945745,1831.388002581718,None,t,6.657589057724181,1831.388002581718,None,8.358467444945745,6.657589057724181,7.407146257580744,False,False,False,1839.835977177715,None,1839.835977177715,None,1839.835977177715,None,1839.835977177715,None,1839.835977177715,None,1839.835977177715,None,1839.835977177715,None,1839.835977177715,None,1840.8188264603004,None,1840.8188264603004,None,1841.8021370389288,None,1841.8021370389288,None,c,,,,,,,,,,,,,,,,,,,,,,,,,,,,,,,,,,,,,,,,,,,,,,,71_72Exp,001,2021_May_26_1033,ComputerHuman,2020.1.3,59.9724888368189,
Computer.xlsx,c,Sychronize.jpg,Number6.jpg,6,Computer,,,,,0,9,9,3,0,7,7,0,,,,,,,,,,,,,,,,,,,,,,,,,,,,,1842.8522713857874,None,1842.8522713857874,None,1843.3023070576369,None,1843.3023070576369,None,v,6.0918755437392065,1843.3023070576369,None,t,5.058702648185772,1843.3023070576369,None,6.0918755437392065,5.058702648185772,5.9362148268650134,False,True,False,1849.4838446940048,None,1849.4838446940048,None,1849.4838446940048,None,1849.4838446940048,None,1849.4838446940048,None,1849.4838446940048,None,1849.4838446940048,None,1849.4838446940048,None,1850.4836769208264,None,1850.4836769208264,None,1851.4668049699358,None,1851.4668049699358,None,c,,,,,,,,,,,,,,,,,,,,,,,,,,,,,,,,,,,,,,,,,,,,,,,71_72Exp,001,2021_May_26_1033,ComputerHuman,2020.1.3,59.9724888368189,
Computer.xlsx,c,Sychronize.jpg,Number10.jpg,10,Computer,,,,,0,9,9,3,0,8,8,8,,,,,,,,,,,,,,,,,,,,,,,,,,,,,1852.48314505098,None,1852.48314505098,None,1852.9670773206594,None,1852.9670773206594,None,v,9.506534171835483,1852.9670773206594,None,t,6.401590926005156,1852.9670773206594,None,9.506534171835483,6.401590926005156,9.6682828251254,False,True,False,1862.5481374290093,None,1862.5481374290093,None,1862.5481374290093,None,1862.5481374290093,None,1862.5481374290093,None,1862.5481374290093,None,1862.5481374290093,None,1862.5481374290093,None,1863.564318077416,None,1863.564318077416,None,1864.5475272863987,None,1864.5475272863987,None,c,,,,,,,,,,,,,,,,,,,,,,,,,,,,,,,,,,,,,,,,,,,,,,,71_72Exp,001,2021_May_26_1033,ComputerHuman,2020.1.3,59.9724888368189,
Computer.xlsx,c,Sychronize.jpg,Number8.jpg,8,Computer,,,,,0,9,9,3,0,9,9,5,,,,,,,,,,,,,,,,,,,,,,,,,,,,,1865.597610948435,None,1865.597610948435,None,1866.0475638564608,None,1866.0475638564608,None,v,7.785703287199794,1866.0475638564608,None,t,6.5166525305198775,1866.0475638564608,None,7.785703287199794,6.5166525305198775,8.143925131311292,False,False,False,1873.928649563854,None,1873.928649563854,None,1873.928649563854,None,1873.928649563854,None,1873.928649563854,None,1873.928649563854,None,1873.928649563854,None,1873.928649563854,None,1874.9119315921707,None,1874.9119315921707,None,1875.8951225161231,None,1875.8951225161231,None,c,,,,,,,,,,,,,,,,,,,,,,,,,,,,,,,,,,,,,,,,,,,,,,,71_72Exp,001,2021_May_26_1033,ComputerHuman,2020.1.3,59.9724888368189,
Computer.xlsx,c,,,,,,,,,0,9,9,3,,,,,,,,,,,,,,,,,,,,,,,,,,,,,,,,,,,,,,,,,,,,,,,,,,,,,,,,,,,,,,,,,,,,,,,,,,,,,,,c,1876.8957602466749,None,1876.8957602466749,None,a,1,3.0772128736880404,1876.8957602466749,None,l,0,1.5207624922049945,1876.8957602466749,None,c,c,1880.0612426635325,None,1880.0612426635325,None,None,None,1882.060492335685,None,1882.060492335685,None,"['space', 'space']",1883.043655030116,None,"[597.7670993910124, 601.1508232754968]",,,,,,,,,,,,,,,,,71_72Exp,001,2021_May_26_1033,ComputerHuman,2020.1.3,59.9724888368189,
Human.xlsx,h,Sychronize.jpg,Number7.jpg,7,Human,,,,,1,0,10,4,0,0,0,2,,,,,,,,,,,,,,,,,,,,,,,,,2484.2567173429347,None,2484.2567173429347,None,2487.3194253752604,None,2487.3194253752604,None,2487.76946265106,None,2487.76946265106,None,v,6.3886996584228655,2487.76946265106,None,t,8.043587985002432,2487.76946265106,None,6.3886996584228655,8.043587985002432,7.167485827291767,False,False,False,2495.9177038877183,None,2495.9177038877183,None,2495.9177038877183,None,2495.9177038877183,None,2495.9177038877183,None,2495.9177038877183,None,2495.9177038877183,None,2495.9177038877183,None,2496.9024179226667,None,2496.9024179226667,None,2497.9002792156302,None,2497.9002792156302,None,h,,,,,,,,,,,,,,,,,,,,,,,,,,,,,,,,,,,,,,,,,,,,,,,71_72Exp,001,2021_May_26_1033,ComputerHuman,2020.1.3,59.9724888368189,
Human.xlsx,h,Sychronize.jpg,Number7.jpg,7,Human,,,,,1,0,10,4,0,1,1,3,,,,,,,,,,,,,,,,,,,,,,,,,,,,,2498.950414845649,None,2498.950414845649,None,2499.4006314430676,None,2499.4006314430676,None,v,7.236912729717915,2499.4006314430676,None,t,6.472652651137196,2499.4006314430676,None,7.236912729717915,6.472652651137196,6.544153572709132,False,False,False,2506.7321121071286,None,2506.7321121071286,None,2506.7321121071286,None,2506.7321121071286,None,2506.7321121071286,None,2506.7321121071286,None,2506.7321121071286,None,2506.7321121071286,None,2507.699812722789,None,2507.699812722789,None,2508.698088476453,None,2508.698088476453,None,h,,,,,,,,,,,,,,,,,,,,,,,,,,,,,,,,,,,,,,,,,,,,,,,71_72Exp,001,2021_May_26_1033,ComputerHuman,2020.1.3,59.9724888368189,
Human.xlsx,h,Sychronize.jpg,Number9.jpg,9,Human,,,,,1,0,10,4,0,2,2,7,,,,,,,,,,,,,,,,,,,,,,,,,,,,,2509.7644926513426,None,2509.7644926513426,None,2510.1981404444355,None,2510.1981404444355,None,v,9.314949392166909,2510.1981404444355,None,t,9.558445374592793,2510.1981404444355,None,9.314949392166909,9.558445374592793,8.867906986076278,True,False,False,2519.8457407426417,None,2519.8457407426417,None,2519.8457407426417,None,2519.8457407426417,None,2519.8457407426417,None,2519.8457407426417,None,2519.8457407426417,None,2519.8457407426417,None,2520.8318110777777,None,2520.8318110777777,None,2521.812054583063,None,2521.812054583063,None,h,,,,,,,,,,,,,,,,,,,,,,,,,,,,,,,,,,,,,,,,,,,,,,,71_72Exp,001,2021_May_26_1033,ComputerHuman,2020.1.3,59.9724888368189,
Human.xlsx,h,Sychronize.jpg,Number8.jpg,8,Human,,,,,1,0,10,4,0,3,3,4,,,,,,,,,,,,,,,,,,,,,,,,,,,,,2522.878883483934,None,2522.878883483934,None,2523.3119923497998,None,2523.3119923497998,None,v,7.956660306469985,2523.3119923497998,None,t,7.62358403286953,2523.3119923497998,None,7.956660306469985,7.62358403286953,8.376331277114861,False,False,False,2531.3437463911123,None,2531.3437463911123,None,2531.3437463911123,None,2531.3437463911123,None,2531.3437463911123,None,2531.3437463911123,None,2531.3437463911123,None,2531.3437463911123,None,2532.345041741197,None,2532.345041741197,None,2533.3430178769863,None,2533.3430178769863,None,h,,,,,,,,,,,,,,,,,,,,,,,,,,,,,,,,,,,,,,,,,,,,,,,71_72Exp,001,2021_May_26_1033,ComputerHuman,2020.1.3,59.9724888368189,
Human.xlsx,h,Sychronize.jpg,Number10.jpg,10,Human,,,,,1,0,10,4,0,4,4,9,,,,,,,,,,,,,,,,,,,,,,,,,,,,,2534.3925635741653,None,2534.3925635741653,None,2534.842840800897,None,2534.842840800897,None,v,8.357372267831579,2534.842840800897,None,t,11.048494789086817,2534.842840800897,None,8.357372267831579,11.048494789086817,9.423640264622515,False,False,False,2545.9903554481693,None,2545.9903554481693,None,2545.9903554481693,None,2545.9903554481693,None,2545.9903554481693,None,2545.9903554481693,None,2545.9903554481693,None,2545.9903554481693,None,2546.974193726374,None,2546.974193726374,None,2547.9732797956185,None,2547.9732797956185,None,h,,,,,,,,,,,,,,,,,,,,,,,,,,,,,,,,,,,,,,,,,,,,,,,71_72Exp,001,2021_May_26_1033,ComputerHuman,2020.1.3,59.9724888368189,
Human.xlsx,h,Sychronize.jpg,Number6.jpg,6,Human,,,,,1,0,10,4,0,5,5,0,,,,,,,,,,,,,,,,,,,,,,,,,,,,,2549.0237769559853,None,2549.0237769559853,None,2549.473432170876,None,2549.473432170876,None,v,5.650282102739766,2549.473432170876,None,t,6.961639609098256,2549.473432170876,None,5.650282102739766,6.961639609098256,5.938311228324357,False,False,False,2556.5067712356577,None,2556.5067712356577,None,2556.5067712356577,None,2556.5067712356577,None,2556.5067712356577,None,2556.5067712356577,None,2556.5067712356577,None,2556.5067712356577,None,2557.4904722157353,None,2557.4904722157353,None,2558.48775416193,None,2558.48775416193,None,h,,,,,,,,,,,,,,,,,,,,,,,,,,,,,,,,,,,,,,,,,,,,,,,71_72Exp,001,2021_May_26_1033,ComputerHuman,2020.1.3,59.9724888368189,
Human.xlsx,h,Sychronize.jpg,Number10.jpg,10,Human,,,,,1,0,10,4,0,6,6,8,,,,,,,,,,,,,,,,,,,,,,,,,,,,,2559.554734796478,None,2559.554734796478,None,2559.9877092513275,None,2559.9877092513275,None,v,10.80747017294425,2559.9877092513275,None,t,9.898509417111654,2559.9877092513275,None,10.80747017294425,9.898509417111654,9.804386140030859,False,False,False,2570.870243646433,None,2570.870243646433,None,2570.870243646433,None,2570.870243646433,None,2570.870243646433,None,2570.870243646433,None,2570.870243646433,None,2570.870243646433,None,2571.85352342922,None,2571.85352342922,None,2572.8515249074203,None,2572.8515249074203,None,h,,,,,,,,,,,,,,,,,,,,,,,,,,,,,,,,,,,,,,,,,,,,,,,71_72Exp,001,2021_May_26_1033,ComputerHuman,2020.1.3,59.9724888368189,
Human.xlsx,h,Sychronize.jpg,Number9.jpg,9,Human,,,,,1,0,10,4,0,7,7,6,,,,,,,,,,,,,,,,,,,,,,,,,,,,,2573.9182075280437,None,2573.9182075280437,None,2574.3518809843376,None,2574.3518809843376,None,v,9.062819988040701,2574.3518809843376,None,t,8.826547875984943,2574.3518809843376,None,9.062819988040701,8.826547875984943,8.456320063377024,True,False,False,2583.483681091097,None,2583.483681091097,None,2583.483681091097,None,2583.483681091097,None,2583.483681091097,None,2583.483681091097,None,2583.483681091097,None,2583.483681091097,None,2584.4844009438925,None,2584.4844009438925,None,2585.482260953696,None,2585.482260953696,None,h,,,,,,,,,,,,,,,,,,,,,,,,,,,,,,,,,,,,,,,,,,,,,,,71_72Exp,001,2021_May_26_1033,ComputerHuman,2020.1.3,59.9724888368189,
Human.xlsx,h,Sychronize.jpg,Number8.jpg,8,Human,,,,,1,0,10,4,0,8,8,5,,,,,,,,,,,,,,,,,,,,,,,,,,,,,2586.532888354809,None,2586.532888354809,None,2586.98253683311,None,2586.98253683311,None,v,7.788024523755212,2586.98253683311,None,t,7.90259179085524,2586.98253683311,None,7.788024523755212,7.90259179085524,8.572692251715821,True,False,False,2594.965368472244,None,2594.965368472244,None,2594.965368472244,None,2594.965368472244,None,2594.965368472244,None,2594.965368472244,None,2594.965368472244,None,2594.965368472244,None,2595.9659994662056,None,2595.9659994662056,None,2596.9632493333984,None,2596.9632493333984,None,h,,,,,,,,,,,,,,,,,,,,,,,,,,,,,,,,,,,,,,,,,,,,,,,71_72Exp,001,2021_May_26_1033,ComputerHuman,2020.1.3,59.9724888368189,
Human.xlsx,h,Sychronize.jpg,Number6.jpg,6,Human,,,,,1,0,10,4,0,9,9,1,,,,,,,,,,,,,,,,,,,,,,,,,,,,,2598.013198263628,None,2598.013198263628,None,2598.463358402004,None,2598.463358402004,None,v,6.098557599771993,2598.463358402004,None,t,5.729691104877929,2598.463358402004,None,6.098557599771993,5.729691104877929,6.108842806205929,False,False,False,2604.6288260625206,None,2604.6288260625206,None,2604.6288260625206,None,2604.6288260625206,None,2604.6288260625206,None,2604.6288260625206,None,2604.6288260625206,None,2604.6288260625206,None,2605.613675150066,None,2605.613675150066,None,2606.611290076297,None,2606.611290076297,None,h,,,,,,,,,,,,,,,,,,,,,,,,,,,,,,,,,,,,,,,,,,,,,,,71_72Exp,001,2021_May_26_1033,ComputerHuman,2020.1.3,59.9724888368189,
Human.xlsx,h,,,,,,,,,1,0,10,4,,,,,,,,,,,,,,,,,,,,,,,,,,,,,,,,,,,,,,,,,,,,,,,,,,,,,,,,,,,,,,,,,,,,,,,,,,,,,,,h,2607.6117728652707,None,2607.6117728652707,None,q,0,3.793875733646928,2607.6117728652707,None,l,0,6.1646464380760335,2607.6117728652707,None,h,c,2613.860068507916,None,2613.860068507916,None,2615.8593534669703,None,None,None,None,None,None,None,None,,,,,,,,,,,,,,,,,,71_72Exp,001,2021_May_26_1033,ComputerHuman,2020.1.3,59.9724888368189,
Computer.xlsx,c,Sychronize.jpg,Number8.jpg,8,Computer,,,,,1,1,11,7,0,0,0,5,,,,,,,,,,,,,,,,,,,,,,,,,2620.861654172965,None,2620.861654172965,None,2623.924576493021,None,2623.924576493021,None,2624.35814055992,None,2624.35814055992,None,v,8.338718969981528,2624.35814055992,None,t,8.021576657265086,2624.35814055992,None,8.338718969981528,8.021576657265086,8.233839592361376,False,True,True,2632.77267568386,None,2632.77267568386,None,2632.77267568386,None,2632.77267568386,None,2632.77267568386,None,2632.77267568386,None,2632.77267568386,None,2632.77267568386,None,2633.8056471232835,None,2633.8056471232835,None,2634.788819441415,None,2634.788819441415,None,c,,,,,,,,,,,,,,,,,,,,,,,,,,,,,,,,,,,,,,,,,,,,,,,71_72Exp,001,2021_May_26_1033,ComputerHuman,2020.1.3,59.9724888368189,
Computer.xlsx,c,Sychronize.jpg,Number7.jpg,7,Computer,,,,,1,1,11,7,0,1,1,3,,,,,,,,,,,,,,,,,,,,,,,,,,,,,2635.8239571758163,None,2635.8239571758163,None,2636.288958022702,None,2636.288958022702,None,v,6.4874776409355945,2636.288958022702,None,t,7.094721913550984,2636.288958022702,None,6.4874776409355945,7.094721913550984,7.345251492938315,False,False,True,2643.4553851661567,None,2643.4553851661567,None,2643.4553851661567,None,2643.4553851661567,None,2643.4553851661567,None,2643.4553851661567,None,2643.4553851661567,None,2643.4553851661567,None,2644.4534527271003,None,2644.4534527271003,None,2645.4532471007,None,2645.4532471007,None,c,,,,,,,,,,,,,,,,,,,,,,,,,,,,,,,,,,,,,,,,,,,,,,,71_72Exp,001,2021_May_26_1033,ComputerHuman,2020.1.3,59.9724888368189,
Computer.xlsx,c,Sychronize.jpg,Number9.jpg,9,Computer,,,,,1,1,11,7,0,2,2,7,,,,,,,,,,,,,,,,,,,,,,,,,,,,,2646.5033615585776,None,2646.5033615585776,None,2646.9533712464363,None,2646.9533712464363,None,v,9.978559678491365,2646.9533712464363,None,t,8.877557658797741,2646.9533712464363,None,9.978559678491365,8.877557658797741,8.769939989167256,False,False,True,2657.0175292496338,None,2657.0175292496338,None,2657.0175292496338,None,2657.0175292496338,None,2657.0175292496338,None,2657.0175292496338,None,2657.0175292496338,None,2657.0175292496338,None,2658.000521604566,None,2658.000521604566,None,2658.9837847062718,None,2658.9837847062718,None,c,,,,,,,,,,,,,,,,,,,,,,,,,,,,,,,,,,,,,,,,,,,,,,,71_72Exp,001,2021_May_26_1033,ComputerHuman,2020.1.3,59.9724888368189,
Computer.xlsx,c,Sychronize.jpg,Number6.jpg,6,Computer,,,,,1,1,11,7,0,3,3,0,,,,,,,,,,,,,,,,,,,,,,,,,,,,,2660.0511143603576,None,2660.0511143603576,None,2660.484088815207,None,2660.484088815207,None,v,6.427470660545168,2660.484088815207,None,t,6.042657052375944,2660.484088815207,None,6.427470660545168,6.042657052375944,6.213226820078342,False,True,True,2666.983569135381,None,2666.983569135381,None,2666.983569135381,None,2666.983569135381,None,2666.983569135381,None,2666.983569135381,None,2666.983569135381,None,2666.983569135381,None,2667.998613224761,None,2667.998613224761,None,2668.9817460857203,None,2668.9817460857203,None,c,,,,,,,,,,,,,,,,,,,,,,,,,,,,,,,,,,,,,,,,,,,,,,,71_72Exp,001,2021_May_26_1033,ComputerHuman,2020.1.3,59.9724888368189,
Computer.xlsx,c,Sychronize.jpg,Number10.jpg,10,Computer,,,,,1,1,11,7,0,4,4,8,,,,,,,,,,,,,,,,,,,,,,,,,,,,,2670.0156548735704,None,2670.0156548735704,None,2670.4653379971924,None,2670.4653379971924,None,v,9.529712533651036,2670.4653379971924,None,t,10.36053589896892,2670.4653379971924,None,9.529712533651036,10.36053589896892,9.565747712207616,False,True,False,2680.897105960792,None,2680.897105960792,None,2680.897105960792,None,2680.897105960792,None,2680.897105960792,None,2680.897105960792,None,2680.897105960792,None,2680.897105960792,None,2681.9122523821866,None,2681.9122523821866,None,2682.8955273531233,None,2682.8955273531233,None,c,,,,,,,,,,,,,,,,,,,,,,,,,,,,,,,,,,,,,,,,,,,,,,,71_72Exp,001,2021_May_26_1033,ComputerHuman,2020.1.3,59.9724888368189,
Computer.xlsx,c,Sychronize.jpg,Number9.jpg,9,Computer,,,,,1,1,11,7,0,5,5,6,,,,,,,,,,,,,,,,,,,,,,,,,,,,,2683.945902292494,None,2683.945902292494,None,2684.395826008628,None,2684.395826008628,None,v,9.470901458439585,2684.395826008628,None,t,8.493579067040173,2684.395826008628,None,9.470901458439585,8.493579067040173,8.690514143201604,False,False,True,2693.943761981507,None,2693.943761981507,None,2693.943761981507,None,2693.943761981507,None,2693.943761981507,None,2693.943761981507,None,2693.943761981507,None,2693.943761981507,None,2694.959735399563,None,2694.959735399563,None,2695.9427694571978,None,2695.9427694571978,None,c,,,,,,,,,,,,,,,,,,,,,,,,,,,,,,,,,,,,,,,,,,,,,,,71_72Exp,001,2021_May_26_1033,ComputerHuman,2020.1.3,59.9724888368189,
Computer.xlsx,c,Sychronize.jpg,Number7.jpg,7,Computer,,,,,1,1,11,7,0,6,6,2,,,,,,,,,,,,,,,,,,,,,,,,,,,,,2696.9924675296347,None,2696.9924675296347,None,2697.4430693958625,None,2697.4430693958625,None,v,7.6830761452843035,2697.4430693958625,None,t,6.482629862214253,2697.4430693958625,None,7.6830761452843035,6.482629862214253,7.12805938286682,False,False,False,2705.209029340738,None,2705.209029340738,None,2705.209029340738,None,2705.209029340738,None,2705.209029340738,None,2705.209029340738,None,2705.209029340738,None,2705.209029340738,None,2706.207159776525,None,2706.207159776525,None,2707.1904758085834,None,2707.1904758085834,None,c,,,,,,,,,,,,,,,,,,,,,,,,,,,,,,,,,,,,,,,,,,,,,,,71_72Exp,001,2021_May_26_1033,ComputerHuman,2020.1.3,59.9724888368189,
Computer.xlsx,c,Sychronize.jpg,Number8.jpg,8,Computer,,,,,1,1,11,7,0,7,7,4,,,,,,,,,,,,,,,,,,,,,,,,,,,,,2708.2570920256735,None,2708.2570920256735,None,2708.6907321198064,None,2708.6907321198064,None,v,8.078969840605623,2708.6907321198064,None,t,7.558603844860954,2708.6907321198064,None,8.078969840605623,7.558603844860954,8.492181497727742,False,False,False,2716.840309126091,None,2716.840309126091,None,2716.840309126091,None,2716.840309126091,None,2716.840309126091,None,2716.840309126091,None,2716.840309126091,None,2716.840309126091,None,2717.8547632826317,None,2717.8547632826317,None,2718.838100486831,None,2718.838100486831,None,c,,,,,,,,,,,,,,,,,,,,,,,,,,,,,,,,,,,,,,,,,,,,,,,71_72Exp,001,2021_May_26_1033,ComputerHuman,2020.1.3,59.9724888368189,
Computer.xlsx,c,Sychronize.jpg,Number10.jpg,10,Computer,,,,,1,1,11,7,0,8,8,9,,,,,,,,,,,,,,,,,,,,,,,,,,,,,2719.871745906078,None,2719.871745906078,None,2720.3382926400504,None,2720.3382926400504,None,v,10.202871455591321,2720.3382926400504,None,t,5.3387523321434855,2720.3382926400504,None,10.202871455591321,5.3387523321434855,9.358191689002789,False,False,False,2730.635646699841,None,2730.635646699841,None,2730.635646699841,None,2730.635646699841,None,2730.635646699841,None,2730.635646699841,None,2730.635646699841,None,2730.635646699841,None,2731.6354413942304,None,2731.6354413942304,None,2732.6186246192224,None,2732.6186246192224,None,c,,,,,,,,,,,,,,,,,,,,,,,,,,,,,,,,,,,,,,,,,,,,,,,71_72Exp,001,2021_May_26_1033,ComputerHuman,2020.1.3,59.9724888368189,
Computer.xlsx,c,Sychronize.jpg,Number6.jpg,6,Computer,,,,,1,1,11,7,0,9,9,1,,,,,,,,,,,,,,,,,,,,,,,,,,,,,2733.6686476519453,None,2733.6686476519453,None,2734.118676907995,None,2734.118676907995,None,v,7.350095467108986,2734.118676907995,None,t,5.9057214182512325,2734.118676907995,None,7.350095467108986,5.9057214182512325,5.802465752245575,False,False,True,2741.551847044754,None,2741.551847044754,None,2741.551847044754,None,2741.551847044754,None,2741.551847044754,None,2741.551847044754,None,2741.551847044754,None,2741.551847044754,None,2742.5498299171336,None,2742.5498299171336,None,2743.5330144252857,None,2743.5330144252857,None,c,,,,,,,,,,,,,,,,,,,,,,,,,,,,,,,,,,,,,,,,,,,,,,,71_72Exp,001,2021_May_26_1033,ComputerHuman,2020.1.3,59.9724888368189,
Computer.xlsx,c,,,,,,,,,1,1,11,7,,,,,,,,,,,,,,,,,,,,,,,,,,,,,,,,,,,,,,,,,,,,,,,,,,,,,,,,,,,,,,,,,,,,,,,,,,,,,,,c,2744.5339739082233,None,2744.5339739082233,None,q,0,3.1545575920731608,2744.5339739082233,None,l,1,5.633703674713615,2744.5339739082233,None,h,c,2750.265168235116,None,2750.265168235116,None,2752.264519597704,None,None,None,None,None,None,None,None,,,,,,,,,,,,,,,,,,71_72Exp,001,2021_May_26_1033,ComputerHuman,2020.1.3,59.9724888368189,
