Condition,CorrectTuringReply,Sychronize,NumberImage,Number,Partner,trials.thisRepN,trials.thisTrialN,trials.thisN,trials.thisIndex,Block.thisRepN,Block.thisTrialN,Block.thisN,Block.thisIndex,trials_loop.thisRepN,trials_loop.thisTrialN,trials_loop.thisN,trials_loop.thisIndex,key_resp_Istr.keys,key_resp_Istr.rt,key_resp_Istr.started,key_resp_Istr.stopped,key_respPrLeft.keys,key_respPrLeft.rt,key_respPrRight.keys,RTPrLeft,RTPrRight,CompPr,SychronizedRTsPr,SychronizedRTsLeftCPr,SychronizedRTsRightCPr,CreditLeftPr.started,CreditLeftPr.stopped,CreditRightPr.started,CreditRightPr.stopped,key_respPrRight.rt,text_StartExp.started,text_StartExp.stopped,key_startExp.keys,key_startExp.rt,key_startExp.started,key_startExp.stopped,SychroLeft.started,SychroLeft.stopped,SychroRight.started,SychroRight.stopped,NumberLeft.started,NumberLeft.stopped,NumberRight.started,NumberRight.stopped,CrossLeft.started,CrossLeft.stopped,CrossRight.started,CrossRight.stopped,key_respLeft.keys,key_respLeft.rt,key_respLeft.started,key_respLeft.stopped,key_respRight.keys,key_respRight.rt,key_respRight.started,key_respRight.stopped,RTLeft,RTRight,Comp,SychronizedRTs,SychronizedRTsLeftC,SychronizedRTsRightC,FeedbackLeftLeft.started,FeedbackLeftLeft.stopped,FeedbackLeftRight.started,FeedbackLeftRight.stopped,FeedbackRightLeft.started,FeedbackRightLeft.stopped,FeedbackRightRight.started,FeedbackRightRight.stopped,textLeftLeft.started,textLeftLeft.stopped,textLeftRight.started,textLeftRight.stopped,textRightLeft.started,textRightLeft.stopped,textRightRight.started,textRightRight.stopped,CreditLeft.started,CreditLeft.stopped,CreditRight.started,CreditRight.stopped,BlankLeft.started,BlankLeft.stopped,BlankRight.started,BlankRight.stopped,CorrectTuringReply,TuringtextLeft.started,TuringtextLeft.stopped,TuringtextRight.started,TuringtextRight.stopped,keyTuringLeft.keys,keyTuringLeft.corr,keyTuringLeft.rt,keyTuringLeft.started,keyTuringLeft.stopped,keyTuringRight.keys,keyTuringRight.corr,keyTuringRight.rt,keyTuringRight.started,keyTuringRight.stopped,RespTuringLeft,RespTuringRight,ScoreLeft.started,ScoreLeft.stopped,ScoreRight.started,ScoreRight.stopped,BlockText.started,BlockText.stopped,text_Pause.started,text_Pause.stopped,text_LongPause.started,text_LongPause.stopped,key_respPause.keys,key_respPause.started,key_respPause.stopped,key_respPause.rt,QuestImageLeft.started,QuestImageLeft.stopped,QuestImageRight.started,QuestImageRight.stopped,respQuestLeft.keys,respQuestLeft.rt,respQuestLeft.started,respQuestLeft.stopped,respQuestRight.keys,respQuestRight.rt,respQuestRight.started,respQuestRight.stopped,RespInclusionLeft,RespInclusionRight,EndText.started,EndText.stopped,participant,session,date,expName,psychopyVersion,frameRate,
,,,,,,,,,,,,,,,,,,"['t', 't', 'v']","[54.19154083143803, 292.4706717727895, 298.2664963057832]",18.2863201664004,None,,,,,,,,,,,,,,,,,,,,,,,,,,,,,,,,,,,,,,,,,,,,,,,,,,,,,,,,,,,,,,,,,,,,,,,,,,,,,,,,,,,,,,,,,,,,,,,,,,,,,,,,,,,,,,,,,,,,,,73_74Exp,001,2021_May_26_1527,ComputerHuman,2020.1.3,60.03612986823501,
,,,,,,,,,,,,,,,,,,,,,,v,7.11137187775239,None,7.11137187775239,13,6,False,False,False,403.7735334763638,None,403.7735334763638,None,10.61741459928453,404.77326305037786,None,"['space', 'space']","[62.618658622966905, 63.782590020095085]",405.7564661643519,None,,,,,,,,,,,,,,,,,,,,,,,,,,,,,,,,,,,,,,,,,,,,,,,,,,,,,,,,,,,,,,,,,,,,,,,,,,,,,,,,,,,,,,,,,,,,,,,,,,73_74Exp,001,2021_May_26_1527,ComputerHuman,2020.1.3,60.03612986823501,
Computer.xlsx,c,Sychronize.jpg,Number8.jpg,8,Computer,,,,,0,0,0,9,0,0,0,4,,,,,,,,,,,,,,,,,,,,,,,,,469.6118912367856,None,469.6118912367856,None,472.66009025747917,None,472.66009025747917,None,473.09262779632627,None,473.09262779632627,None,v,10.87388717943395,473.09262779632627,None,t,5.997765697535215,473.09262779632627,None,10.87388717943395,5.997765697535215,8.121391714392383,False,False,False,484.0408599867078,None,484.0408599867078,None,484.0408599867078,None,484.0408599867078,None,484.0408599867078,None,484.0408599867078,None,484.0408599867078,None,484.0408599867078,None,485.0566325902146,None,485.0566325902146,None,486.03993546988204,None,486.03993546988204,None,c,,,,,,,,,,,,,,,,,,,,,,,,,,,,,,,,,,,,,,,,,,,,,,,73_74Exp,001,2021_May_26_1527,ComputerHuman,2020.1.3,60.03612986823501,
Computer.xlsx,c,Sychronize.jpg,Number9.jpg,9,Computer,,,,,0,0,0,9,0,1,1,7,,,,,,,,,,,,,,,,,,,,,,,,,,,,,487.0905882134066,None,487.0905882134066,None,487.54001438422347,None,487.54001438422347,None,v,12.773732686961011,487.54001438422347,None,t,8.377515314514312,487.54001438422347,None,12.773732686961011,8.377515314514312,9.316646774777466,False,False,False,500.36992959300915,None,500.36992959300915,None,500.36992959300915,None,500.36992959300915,None,500.36992959300915,None,500.36992959300915,None,500.36992959300915,None,500.36992959300915,None,501.403390878786,None,501.403390878786,None,502.3865304763349,None,502.3865304763349,None,c,,,,,,,,,,,,,,,,,,,,,,,,,,,,,,,,,,,,,,,,,,,,,,,73_74Exp,001,2021_May_26_1527,ComputerHuman,2020.1.3,60.03612986823501,
Computer.xlsx,c,Sychronize.jpg,Number8.jpg,8,Computer,,,,,0,0,0,9,0,2,2,5,,,,,,,,,,,,,,,,,,,,,,,,,,,,,503.4204196959945,None,503.4204196959945,None,503.86969702024726,None,503.86969702024726,None,v,9.719785429973854,503.86969702024726,None,t,7.258684748103406,503.86969702024726,None,9.719785429973854,7.258684748103406,7.457131849835777,False,False,True,513.6684490829248,None,513.6684490829248,None,513.6684490829248,None,513.6684490829248,None,513.6684490829248,None,513.6684490829248,None,513.6684490829248,None,513.6684490829248,None,514.6837328024485,None,514.6837328024485,None,515.6671085014495,None,515.6671085014495,None,c,,,,,,,,,,,,,,,,,,,,,,,,,,,,,,,,,,,,,,,,,,,,,,,73_74Exp,001,2021_May_26_1527,ComputerHuman,2020.1.3,60.03612986823501,
Computer.xlsx,c,Sychronize.jpg,Number10.jpg,10,Computer,,,,,0,0,0,9,0,3,3,8,,,,,,,,,,,,,,,,,,,,,,,,,,,,,516.7172944955018,None,516.7172944955018,None,517.1674244796159,None,517.1674244796159,None,v,10.113479468156584,517.1674244796159,None,t,8.804609688369965,517.1674244796159,None,10.113479468156584,8.804609688369965,10.623022611612905,False,False,False,527.3646782604446,None,527.3646782604446,None,527.3646782604446,None,527.3646782604446,None,527.3646782604446,None,527.3646782604446,None,527.3646782604446,None,527.3646782604446,None,528.3643529793699,None,528.3643529793699,None,529.3476552174579,None,529.3476552174579,None,c,,,,,,,,,,,,,,,,,,,,,,,,,,,,,,,,,,,,,,,,,,,,,,,73_74Exp,001,2021_May_26_1527,ComputerHuman,2020.1.3,60.03612986823501,
Computer.xlsx,c,Sychronize.jpg,Number9.jpg,9,Computer,,,,,0,0,0,9,0,4,4,6,,,,,,,,,,,,,,,,,,,,,,,,,,,,,530.3979268624425,None,530.3979268624425,None,530.8476224968763,None,530.8476224968763,None,v,10.92473335934119,530.8476224968763,None,t,8.879697648993897,530.8476224968763,None,10.92473335934119,8.879697648993897,8.755289594990973,False,False,True,541.8288017466366,None,541.8288017466366,None,541.8288017466366,None,541.8288017466366,None,541.8288017466366,None,541.8288017466366,None,541.8288017466366,None,541.8288017466366,None,542.8448255287258,None,542.8448255287258,None,543.8446545476472,None,543.8446545476472,None,c,,,,,,,,,,,,,,,,,,,,,,,,,,,,,,,,,,,,,,,,,,,,,,,73_74Exp,001,2021_May_26_1527,ComputerHuman,2020.1.3,60.03612986823501,
Computer.xlsx,c,Sychronize.jpg,Number6.jpg,6,Computer,,,,,0,0,0,9,0,5,5,1,,,,,,,,,,,,,,,,,,,,,,,,,,,,,544.8946227252782,None,544.8946227252782,None,545.3448887243612,None,545.3448887243612,None,None,,545.3448887243612,None,t,5.258747302155825,545.3448887243612,None,13,5.258747302155825,6.30157005225386,False,False,False,558.3924442402786,None,558.3924442402786,None,558.3924442402786,None,558.3924442402786,None,558.3924442402786,None,558.3924442402786,None,558.3924442402786,None,558.3924442402786,None,559.4079448138509,None,559.4079448138509,None,560.407954116763,None,560.407954116763,None,c,,,,,,,,,,,,,,,,,,,,,,,,,,,,,,,,,,,,,,,,,,,,,,,73_74Exp,001,2021_May_26_1527,ComputerHuman,2020.1.3,60.03612986823501,
Computer.xlsx,c,Sychronize.jpg,Number6.jpg,6,Computer,,,,,0,0,0,9,0,6,6,0,,,,,,,,,,,,,,,,,,,,,,,,,,,,,561.4586139176681,None,561.4586139176681,None,561.9078152146867,None,561.9078152146867,None,v,6.1155168055447575,561.9078152146867,None,t,5.01068679859236,561.9078152146867,None,6.1155168055447575,5.01068679859236,5.899782426851338,False,True,False,568.0909548763921,None,568.0909548763921,None,568.0909548763921,None,568.0909548763921,None,568.0909548763921,None,568.0909548763921,None,568.0909548763921,None,568.0909548763921,None,569.1060660108851,None,569.1060660108851,None,570.07243727272,None,570.07243727272,None,c,,,,,,,,,,,,,,,,,,,,,,,,,,,,,,,,,,,,,,,,,,,,,,,73_74Exp,001,2021_May_26_1527,ComputerHuman,2020.1.3,60.03612986823501,
Computer.xlsx,c,Sychronize.jpg,Number7.jpg,7,Computer,,,,,0,0,0,9,0,7,7,3,,,,,,,,,,,,,,,,,,,,,,,,,,,,,571.1223525199966,None,571.1223525199966,None,571.5727150768726,None,571.5727150768726,None,v,6.942268383190822,571.5727150768726,None,t,6.7175203316728584,571.5727150768726,None,6.942268383190822,6.7175203316728584,6.744866396788268,False,True,True,578.5884860764309,None,578.5884860764309,None,578.5884860764309,None,578.5884860764309,None,578.5884860764309,None,578.5884860764309,None,578.5884860764309,None,578.5884860764309,None,579.6037919304617,None,579.6037919304617,None,580.587022311589,None,580.587022311589,None,c,,,,,,,,,,,,,,,,,,,,,,,,,,,,,,,,,,,,,,,,,,,,,,,73_74Exp,001,2021_May_26_1527,ComputerHuman,2020.1.3,60.03612986823501,
Computer.xlsx,c,Sychronize.jpg,Number7.jpg,7,Computer,,,,,0,0,0,9,0,8,8,2,,,,,,,,,,,,,,,,,,,,,,,,,,,,,581.620636934993,None,581.620636934993,None,582.0870970556607,None,582.0870970556607,None,v,7.263501089404599,582.0870970556607,None,t,6.634598358068615,582.0870970556607,None,7.263501089404599,6.634598358068615,6.7260690742073965,False,False,True,589.4197691338413,None,589.4197691338413,None,589.4197691338413,None,589.4197691338413,None,589.4197691338413,None,589.4197691338413,None,589.4197691338413,None,589.4197691338413,None,590.4183374480017,None,590.4183374480017,None,591.4014709505391,None,591.4014709505391,None,c,,,,,,,,,,,,,,,,,,,,,,,,,,,,,,,,,,,,,,,,,,,,,,,73_74Exp,001,2021_May_26_1527,ComputerHuman,2020.1.3,60.03612986823501,
Computer.xlsx,c,Sychronize.jpg,Number10.jpg,10,Computer,,,,,0,0,0,9,0,9,9,9,,,,,,,,,,,,,,,,,,,,,,,,,,,,,592.4515347235938,None,592.4515347235938,None,592.9013105555314,None,592.9013105555314,None,v,9.688774659127375,592.9013105555314,None,t,9.191594082578376,592.9013105555314,None,9.688774659127375,9.191594082578376,10.386826177420954,False,False,False,602.6663597775514,None,602.6663597775514,None,602.6663597775514,None,602.6663597775514,None,602.6663597775514,None,602.6663597775514,None,602.6663597775514,None,602.6663597775514,None,603.665398690664,None,603.665398690664,None,604.6487769559862,None,604.6487769559862,None,c,,,,,,,,,,,,,,,,,,,,,,,,,,,,,,,,,,,,,,,,,,,,,,,73_74Exp,001,2021_May_26_1527,ComputerHuman,2020.1.3,60.03612986823501,
Computer.xlsx,c,,,,,,,,,0,0,0,9,,,,,,,,,,,,,,,,,,,,,,,,,,,,,,,,,,,,,,,,,,,,,,,,,,,,,,,,,,,,,,,,,,,,,,,,,,,,,,,c,605.6496649027504,None,605.6496649027504,None,q,0,13.15980828305328,605.6496649027504,None,o,0,13.391509137385583,605.6496649027504,None,h,h,619.1287737737475,None,619.1287737737475,None,621.1286602140826,None,None,None,None,None,None,None,None,,,,,,,,,,,,,,,,,,73_74Exp,001,2021_May_26_1527,ComputerHuman,2020.1.3,60.03612986823501,
Human.xlsx,h,Sychronize.jpg,Number6.jpg,6,Human,,,,,0,1,1,2,0,0,0,1,,,,,,,,,,,,,,,,,,,,,,,,,626.1142477602443,None,626.1142477602443,None,629.2112007683572,None,629.2112007683572,None,629.6441870924355,None,629.6441870924355,None,v,7.112600503511203,629.6441870924355,None,t,5.4797696984314825,629.6441870924355,None,7.112600503511203,5.4797696984314825,6.367749116199585,False,False,False,636.8421280054827,None,636.8421280054827,None,636.8421280054827,None,636.8421280054827,None,636.8421280054827,None,636.8421280054827,None,636.8421280054827,None,636.8421280054827,None,637.8267868645489,None,637.8267868645489,None,638.8083985392514,None,638.8083985392514,None,h,,,,,,,,,,,,,,,,,,,,,,,,,,,,,,,,,,,,,,,,,,,,,,,73_74Exp,001,2021_May_26_1527,ComputerHuman,2020.1.3,60.03612986823501,
Human.xlsx,h,Sychronize.jpg,Number8.jpg,8,Human,,,,,0,1,1,2,0,1,1,4,,,,,,,,,,,,,,,,,,,,,,,,,,,,,639.8754301794106,None,639.8754301794106,None,640.3252384111402,None,640.3252384111402,None,v,8.031151918450632,640.3252384111402,None,t,8.410633996558317,640.3252384111402,None,8.031151918450632,8.410633996558317,7.538516926314722,False,False,False,648.8070223500836,None,648.8070223500836,None,648.8070223500836,None,648.8070223500836,None,648.8070223500836,None,648.8070223500836,None,648.8070223500836,None,648.8070223500836,None,649.8087915070209,None,649.8087915070209,None,650.8057603621601,None,650.8057603621601,None,h,,,,,,,,,,,,,,,,,,,,,,,,,,,,,,,,,,,,,,,,,,,,,,,73_74Exp,001,2021_May_26_1527,ComputerHuman,2020.1.3,60.03612986823501,
Human.xlsx,h,Sychronize.jpg,Number10.jpg,10,Human,,,,,0,1,1,2,0,2,2,8,,,,,,,,,,,,,,,,,,,,,,,,,,,,,651.8221921891491,None,651.8221921891491,None,652.3062569451031,None,652.3062569451031,None,v,8.761634412301646,652.3062569451031,None,t,10.344534892970842,652.3062569451031,None,8.761634412301646,10.344534892970842,10.636103637065174,False,False,False,662.7204699958675,None,662.7204699958675,None,662.7204699958675,None,662.7204699958675,None,662.7204699958675,None,662.7204699958675,None,662.7204699958675,None,662.7204699958675,None,663.7220380174658,None,663.7220380174658,None,664.7197289709329,None,664.7197289709329,None,h,,,,,,,,,,,,,,,,,,,,,,,,,,,,,,,,,,,,,,,,,,,,,,,73_74Exp,001,2021_May_26_1527,ComputerHuman,2020.1.3,60.03612986823501,
Human.xlsx,h,Sychronize.jpg,Number6.jpg,6,Human,,,,,0,1,1,2,0,3,3,0,,,,,,,,,,,,,,,,,,,,,,,,,,,,,665.7698479198698,None,665.7698479198698,None,666.2194543746773,None,666.2194543746773,None,v,5.792027341572975,666.2194543746773,None,t,5.963720573930914,666.2194543746773,None,5.792027341572975,5.963720573930914,6.024392826396832,True,False,False,672.2530783009934,None,672.2530783009934,None,672.2530783009934,None,672.2530783009934,None,672.2530783009934,None,672.2530783009934,None,672.2530783009934,None,672.2530783009934,None,673.2364382812848,None,673.2364382812848,None,674.2344153794438,None,674.2344153794438,None,h,,,,,,,,,,,,,,,,,,,,,,,,,,,,,,,,,,,,,,,,,,,,,,,73_74Exp,001,2021_May_26_1527,ComputerHuman,2020.1.3,60.03612986823501,
Human.xlsx,h,Sychronize.jpg,Number7.jpg,7,Human,,,,,0,1,1,2,0,4,4,2,,,,,,,,,,,,,,,,,,,,,,,,,,,,,675.3018316468333,None,675.3018316468333,None,675.7342103946248,None,675.7342103946248,None,v,5.952881720870209,675.7342103946248,None,t,6.603936285970121,675.7342103946248,None,5.952881720870209,6.603936285970121,6.665455088861088,False,False,False,682.4179634068423,None,682.4179634068423,None,682.4179634068423,None,682.4179634068423,None,682.4179634068423,None,682.4179634068423,None,682.4179634068423,None,682.4179634068423,None,683.4183740180633,None,683.4183740180633,None,684.4156960630098,None,684.4156960630098,None,h,,,,,,,,,,,,,,,,,,,,,,,,,,,,,,,,,,,,,,,,,,,,,,,73_74Exp,001,2021_May_26_1527,ComputerHuman,2020.1.3,60.03612986823501,
Human.xlsx,h,Sychronize.jpg,Number8.jpg,8,Human,,,,,0,1,1,2,0,5,5,5,,,,,,,,,,,,,,,,,,,,,,,,,,,,,685.4500311807897,None,685.4500311807897,None,685.8988940443414,None,685.8988940443414,None,v,6.455848707730183,685.8988940443414,None,t,7.174723414849723,685.8988940443414,None,6.455848707730183,7.174723414849723,7.704726697662586,False,False,False,693.1473840857361,None,693.1473840857361,None,693.1473840857361,None,693.1473840857361,None,693.1473840857361,None,693.1473840857361,None,693.1473840857361,None,693.1473840857361,None,694.149360473024,None,694.149360473024,None,695.1468082676583,None,695.1468082676583,None,h,,,,,,,,,,,,,,,,,,,,,,,,,,,,,,,,,,,,,,,,,,,,,,,73_74Exp,001,2021_May_26_1527,ComputerHuman,2020.1.3,60.03612986823501,
Human.xlsx,h,Sychronize.jpg,Number9.jpg,9,Human,,,,,0,1,1,2,0,6,6,7,,,,,,,,,,,,,,,,,,,,,,,,,,,,,696.1977667240681,None,696.1977667240681,None,696.6468217408365,None,696.6468217408365,None,v,7.923474900104338,696.6468217408365,None,t,8.826476019021356,696.6468217408365,None,7.923474900104338,8.826476019021356,8.918213869216489,False,False,False,705.5460404246733,None,705.5460404246733,None,705.5460404246733,None,705.5460404246733,None,705.5460404246733,None,705.5460404246733,None,705.5460404246733,None,705.5460404246733,None,706.5294927924915,None,706.5294927924915,None,707.5274779104002,None,707.5274779104002,None,h,,,,,,,,,,,,,,,,,,,,,,,,,,,,,,,,,,,,,,,,,,,,,,,73_74Exp,001,2021_May_26_1527,ComputerHuman,2020.1.3,60.03612986823501,
Human.xlsx,h,Sychronize.jpg,Number9.jpg,9,Human,,,,,0,1,1,2,0,7,7,6,,,,,,,,,,,,,,,,,,,,,,,,,,,,,708.577944595716,None,708.577944595716,None,709.0277595640327,None,709.0277595640327,None,v,8.218002479065035,709.0277595640327,None,None,,709.0277595640327,None,8.218002479065035,13,9.363029574046664,False,False,False,722.0914707067386,None,722.0914707067386,None,722.0914707067386,None,722.0914707067386,None,722.0914707067386,None,722.0914707067386,None,722.0914707067386,None,722.0914707067386,None,723.0756191888904,None,723.0756191888904,None,724.0741271945262,None,724.0741271945262,None,h,,,,,,,,,,,,,,,,,,,,,,,,,,,,,,,,,,,,,,,,,,,,,,,73_74Exp,001,2021_May_26_1527,ComputerHuman,2020.1.3,60.03612986823501,
Human.xlsx,h,Sychronize.jpg,Number7.jpg,7,Human,,,,,0,1,1,2,0,8,8,3,,,,,,,,,,,,,,,,,,,,,,,,,,,,,725.141673702663,None,725.141673702663,None,725.5741644061673,None,725.5741644061673,None,v,8.083031683789159,725.5741644061673,None,t,6.430685938874376,725.5741644061673,None,8.083031683789159,6.430685938874376,7.256218583136913,False,False,False,733.7393042192889,None,733.7393042192889,None,733.7393042192889,None,733.7393042192889,None,733.7393042192889,None,733.7393042192889,None,733.7393042192889,None,733.7393042192889,None,734.7402062808105,None,734.7402062808105,None,735.7217262095728,None,735.7217262095728,None,h,,,,,,,,,,,,,,,,,,,,,,,,,,,,,,,,,,,,,,,,,,,,,,,73_74Exp,001,2021_May_26_1527,ComputerHuman,2020.1.3,60.03612986823501,
Human.xlsx,h,Sychronize.jpg,Number10.jpg,10,Human,,,,,0,1,1,2,0,9,9,9,,,,,,,,,,,,,,,,,,,,,,,,,,,,,736.7723420622424,None,736.7723420622424,None,737.2220800409596,None,737.2220800409596,None,v,10.238585008068185,737.2220800409596,None,t,8.713573010525579,737.2220800409596,None,10.238585008068185,8.713573010525579,9.609158544605142,False,False,False,747.5366140100559,None,747.5366140100559,None,747.5366140100559,None,747.5366140100559,None,747.5366140100559,None,747.5366140100559,None,747.5366140100559,None,747.5366140100559,None,748.5383276703215,None,748.5383276703215,None,749.5356407331456,None,749.5356407331456,None,h,,,,,,,,,,,,,,,,,,,,,,,,,,,,,,,,,,,,,,,,,,,,,,,73_74Exp,001,2021_May_26_1527,ComputerHuman,2020.1.3,60.03612986823501,
Human.xlsx,h,,,,,,,,,0,1,1,2,,,,,,,,,,,,,,,,,,,,,,,,,,,,,,,,,,,,,,,,,,,,,,,,,,,,,,,,,,,,,,,,,,,,,,,,,,,,,,,h,750.5363987599558,None,750.5363987599558,None,a,0,6.955925055750413,750.5363987599558,None,l,0,4.1358638746824,750.5363987599558,None,c,c,757.5841512409461,None,757.5841512409461,None,759.5669023617847,None,None,None,None,None,None,None,None,,,,,,,,,,,,,,,,,,73_74Exp,001,2021_May_26_1527,ComputerHuman,2020.1.3,60.03612986823501,
Human.xlsx,h,Sychronize.jpg,Number6.jpg,6,Human,,,,,0,2,2,4,0,0,0,1,,,,,,,,,,,,,,,,,,,,,,,,,764.5853407303221,None,764.5853407303221,None,767.649143298182,None,767.649143298182,None,768.0986121340757,None,768.0986121340757,None,v,5.661087914431846,768.0986121340757,None,t,5.428720779236755,768.0986121340757,None,5.661087914431846,5.428720779236755,5.97195403789083,True,False,False,773.8309635505539,None,773.8309635505539,None,773.8309635505539,None,773.8309635505539,None,773.8309635505539,None,773.8309635505539,None,773.8309635505539,None,773.8309635505539,None,774.8159829775977,None,774.8159829775977,None,775.8135552387575,None,775.8135552387575,None,h,,,,,,,,,,,,,,,,,,,,,,,,,,,,,,,,,,,,,,,,,,,,,,,73_74Exp,001,2021_May_26_1527,ComputerHuman,2020.1.3,60.03612986823501,
Human.xlsx,h,Sychronize.jpg,Number10.jpg,10,Human,,,,,0,2,2,4,0,1,1,9,,,,,,,,,,,,,,,,,,,,,,,,,,,,,776.8806767001224,None,776.8806767001224,None,777.3470906270304,None,777.3470906270304,None,v,8.424165881799127,777.3470906270304,None,t,9.135706045992265,777.3470906270304,None,8.424165881799127,9.135706045992265,10.646602203670914,False,False,False,786.5628613699519,None,786.5628613699519,None,786.5628613699519,None,786.5628613699519,None,786.5628613699519,None,786.5628613699519,None,786.5628613699519,None,786.5628613699519,None,787.5468218691531,None,787.5468218691531,None,788.5442228284446,None,788.5442228284446,None,h,,,,,,,,,,,,,,,,,,,,,,,,,,,,,,,,,,,,,,,,,,,,,,,73_74Exp,001,2021_May_26_1527,ComputerHuman,2020.1.3,60.03612986823501,
Human.xlsx,h,Sychronize.jpg,Number9.jpg,9,Human,,,,,0,2,2,4,0,2,2,6,,,,,,,,,,,,,,,,,,,,,,,,,,,,,789.6113712361694,None,789.6113712361694,None,790.0439661964301,None,790.0439661964301,None,v,9.018740231942502,790.0439661964301,None,t,8.005636280580802,790.0439661964301,None,9.018740231942502,8.005636280580802,8.34163025704184,False,False,False,799.1434906573122,None,799.1434906573122,None,799.1434906573122,None,799.1434906573122,None,799.1434906573122,None,799.1434906573122,None,799.1434906573122,None,799.1434906573122,None,800.1438069562682,None,800.1438069562682,None,801.1243808752697,None,801.1243808752697,None,h,,,,,,,,,,,,,,,,,,,,,,,,,,,,,,,,,,,,,,,,,,,,,,,73_74Exp,001,2021_May_26_1527,ComputerHuman,2020.1.3,60.03612986823501,
Human.xlsx,h,Sychronize.jpg,Number7.jpg,7,Human,,,,,0,2,2,4,0,3,3,2,,,,,,,,,,,,,,,,,,,,,,,,,,,,,802.1759183576578,None,802.1759183576578,None,802.6250606293142,None,802.6250606293142,None,v,5.493342324007244,802.6250606293142,None,t,7.020900111121591,802.6250606293142,None,5.493342324007244,7.020900111121591,7.246496359540116,False,False,False,809.7233923929125,None,809.7233923929125,None,809.7233923929125,None,809.7233923929125,None,809.7233923929125,None,809.7233923929125,None,809.7233923929125,None,809.7233923929125,None,810.7250720494376,None,810.7250720494376,None,811.7228005353354,None,811.7228005353354,None,h,,,,,,,,,,,,,,,,,,,,,,,,,,,,,,,,,,,,,,,,,,,,,,,73_74Exp,001,2021_May_26_1527,ComputerHuman,2020.1.3,60.03612986823501,
Human.xlsx,h,Sychronize.jpg,Number8.jpg,8,Human,,,,,0,2,2,4,0,4,4,5,,,,,,,,,,,,,,,,,,,,,,,,,,,,,812.7729704898848,None,812.7729704898848,None,813.2229490611135,None,813.2229490611135,None,v,6.8430018374856445,813.2229490611135,None,t,6.7226840885559795,813.2229490611135,None,6.8430018374856445,6.7226840885559795,7.599300843619449,True,False,False,820.1394525525902,None,820.1394525525902,None,820.1394525525902,None,820.1394525525902,None,820.1394525525902,None,820.1394525525902,None,820.1394525525902,None,820.1394525525902,None,821.1392491717197,None,821.1392491717197,None,822.1206285944536,None,822.1206285944536,None,h,,,,,,,,,,,,,,,,,,,,,,,,,,,,,,,,,,,,,,,,,,,,,,,73_74Exp,001,2021_May_26_1527,ComputerHuman,2020.1.3,60.03612986823501,
Human.xlsx,h,Sychronize.jpg,Number7.jpg,7,Human,,,,,0,2,2,4,0,5,5,3,,,,,,,,,,,,,,,,,,,,,,,,,,,,,823.1707642244728,None,823.1707642244728,None,823.6205884957017,None,823.6205884957017,None,None,,823.6205884957017,None,t,7.136668095248751,823.6205884957017,None,13,7.136668095248751,7.059076648882559,False,False,False,836.6848809099138,None,836.6848809099138,None,836.6848809099138,None,836.6848809099138,None,836.6848809099138,None,836.6848809099138,None,836.6848809099138,None,836.6848809099138,None,837.6695654321811,None,837.6695654321811,None,838.6671838871043,None,838.6671838871043,None,h,,,,,,,,,,,,,,,,,,,,,,,,,,,,,,,,,,,,,,,,,,,,,,,73_74Exp,001,2021_May_26_1527,ComputerHuman,2020.1.3,60.03612986823501,
Human.xlsx,h,Sychronize.jpg,Number8.jpg,8,Human,,,,,0,2,2,4,0,6,6,4,,,,,,,,,,,,,,,,,,,,,,,,,,,,,839.7343797717513,None,839.7343797717513,None,840.1670154723433,None,840.1670154723433,None,v,6.385908785287029,840.1670154723433,None,None,,840.1670154723433,None,6.385908785287029,13,7.789858818802995,False,False,False,853.2324938472484,None,853.2324938472484,None,853.2324938472484,None,853.2324938472484,None,853.2324938472484,None,853.2324938472484,None,853.2324938472484,None,853.2324938472484,None,854.2160979487417,None,854.2160979487417,None,855.213754577675,None,855.213754577675,None,h,,,,,,,,,,,,,,,,,,,,,,,,,,,,,,,,,,,,,,,,,,,,,,,73_74Exp,001,2021_May_26_1527,ComputerHuman,2020.1.3,60.03612986823501,
Human.xlsx,h,Sychronize.jpg,Number10.jpg,10,Human,,,,,0,2,2,4,0,7,7,8,,,,,,,,,,,,,,,,,,,,,,,,,,,,,856.2648827320008,None,856.2648827320008,None,856.713897650021,None,856.713897650021,None,v,8.378373107017978,856.713897650021,None,t,10.465543944381352,856.713897650021,None,8.378373107017978,10.465543944381352,9.639832237303022,False,False,False,867.2460247701238,None,867.2460247701238,None,867.2460247701238,None,867.2460247701238,None,867.2460247701238,None,867.2460247701238,None,867.2460247701238,None,867.2460247701238,None,868.2467795890298,None,868.2467795890298,None,869.2443107890649,None,869.2443107890649,None,h,,,,,,,,,,,,,,,,,,,,,,,,,,,,,,,,,,,,,,,,,,,,,,,73_74Exp,001,2021_May_26_1527,ComputerHuman,2020.1.3,60.03612986823501,
Human.xlsx,h,Sychronize.jpg,Number6.jpg,6,Human,,,,,0,2,2,4,0,8,8,0,,,,,,,,,,,,,,,,,,,,,,,,,,,,,870.2782664122606,None,870.2782664122606,None,870.7276621080273,None,870.7276621080273,None,v,5.436238172474987,870.7276621080273,None,t,6.159755994282023,870.7276621080273,None,5.436238172474987,6.159755994282023,6.110252421267781,False,False,False,876.9777188878616,None,876.9777188878616,None,876.9777188878616,None,876.9777188878616,None,876.9777188878616,None,876.9777188878616,None,876.9777188878616,None,876.9777188878616,None,877.9611417429951,None,877.9611417429951,None,878.9588753615317,None,878.9588753615317,None,h,,,,,,,,,,,,,,,,,,,,,,,,,,,,,,,,,,,,,,,,,,,,,,,73_74Exp,001,2021_May_26_1527,ComputerHuman,2020.1.3,60.03612986823501,
Human.xlsx,h,Sychronize.jpg,Number9.jpg,9,Human,,,,,0,2,2,4,0,9,9,7,,,,,,,,,,,,,,,,,,,,,,,,,,,,,880.0088377649408,None,880.0088377649408,None,880.4590081685965,None,880.4590081685965,None,v,8.372408016668487,880.4590081685965,None,t,9.175602700284799,880.4590081685965,None,8.372408016668487,9.175602700284799,9.399921079033687,False,False,False,889.7077240461622,None,889.7077240461622,None,889.7077240461622,None,889.7077240461622,None,889.7077240461622,None,889.7077240461622,None,889.7077240461622,None,889.7077240461622,None,890.6919568960875,None,890.6919568960875,None,891.6894983614038,None,891.6894983614038,None,h,,,,,,,,,,,,,,,,,,,,,,,,,,,,,,,,,,,,,,,,,,,,,,,73_74Exp,001,2021_May_26_1527,ComputerHuman,2020.1.3,60.03612986823501,
Human.xlsx,h,,,,,,,,,0,2,2,4,,,,,,,,,,,,,,,,,,,,,,,,,,,,,,,,,,,,,,,,,,,,,,,,,,,,,,,,,,,,,,,,,,,,,,,,,,,,,,,h,892.6899657524591,None,892.6899657524591,None,a,0,7.848963078355155,892.6899657524591,None,l,0,2.9968283491107286,892.6899657524591,None,c,c,900.6382441366004,None,900.6382441366004,None,902.6207678173196,None,None,None,None,None,None,None,None,,,,,,,,,,,,,,,,,,73_74Exp,001,2021_May_26_1527,ComputerHuman,2020.1.3,60.03612986823501,
Computer.xlsx,c,Sychronize.jpg,Number8.jpg,8,Computer,,,,,0,3,3,1,0,0,0,5,,,,,,,,,,,,,,,,,,,,,,,,,907.6226704229048,None,907.6226704229048,None,910.7197116482712,None,910.7197116482712,None,911.1527448076922,None,911.1527448076922,None,v,6.613562552771327,911.1527448076922,None,None,,911.1527448076922,None,6.613562552771327,13,8.100093977609166,False,False,False,924.2177301283409,None,924.2177301283409,None,924.2177301283409,None,924.2177301283409,None,924.2177301283409,None,924.2177301283409,None,924.2177301283409,None,924.2177301283409,None,925.2158082753558,None,925.2158082753558,None,926.1991140421342,None,926.1991140421342,None,c,,,,,,,,,,,,,,,,,,,,,,,,,,,,,,,,,,,,,,,,,,,,,,,73_74Exp,001,2021_May_26_1527,ComputerHuman,2020.1.3,60.03612986823501,
Computer.xlsx,c,Sychronize.jpg,Number7.jpg,7,Computer,,,,,0,3,3,1,0,1,1,2,,,,,,,,,,,,,,,,,,,,,,,,,,,,,927.2662586003789,None,927.2662586003789,None,927.7160450183874,None,927.7160450183874,None,v,6.973605718274484,927.7160450183874,None,t,6.576709233362635,927.7160450183874,None,6.973605718274484,6.576709233362635,7.286334683697797,False,False,False,934.7659451885338,None,934.7659451885338,None,934.7659451885338,None,934.7659451885338,None,934.7659451885338,None,934.7659451885338,None,934.7659451885338,None,934.7659451885338,None,935.763797178588,None,935.763797178588,None,936.7469778372579,None,936.7469778372579,None,c,,,,,,,,,,,,,,,,,,,,,,,,,,,,,,,,,,,,,,,,,,,,,,,73_74Exp,001,2021_May_26_1527,ComputerHuman,2020.1.3,60.03612986823501,
Computer.xlsx,c,Sychronize.jpg,Number10.jpg,10,Computer,,,,,0,3,3,1,0,2,2,9,,,,,,,,,,,,,,,,,,,,,,,,,,,,,937.7969367119804,None,937.7969367119804,None,938.2471978992107,None,938.2471978992107,None,v,9.461981892043696,938.2471978992107,None,t,10.073574152535002,938.2471978992107,None,9.461981892043696,10.073574152535002,10.743651208087169,False,False,False,948.3960059718265,None,948.3960059718265,None,948.3960059718265,None,948.3960059718265,None,948.3960059718265,None,948.3960059718265,None,948.3960059718265,None,948.3960059718265,None,949.4110786115198,None,949.4110786115198,None,950.3942175674892,None,950.3942175674892,None,c,,,,,,,,,,,,,,,,,,,,,,,,,,,,,,,,,,,,,,,,,,,,,,,73_74Exp,001,2021_May_26_1527,ComputerHuman,2020.1.3,60.03612986823501,
Computer.xlsx,c,Sychronize.jpg,Number7.jpg,7,Computer,,,,,0,3,3,1,0,3,3,3,,,,,,,,,,,,,,,,,,,,,,,,,,,,,951.4446560232827,None,951.4446560232827,None,951.8941097820425,None,951.8941097820425,None,v,5.270707316321932,951.8941097820425,None,None,,951.8941097820425,None,5.270707316321932,13,6.775300043467728,False,False,False,964.9581397900256,None,964.9581397900256,None,964.9581397900256,None,964.9581397900256,None,964.9581397900256,None,964.9581397900256,None,964.9581397900256,None,964.9581397900256,None,965.974297983128,None,965.974297983128,None,966.9574311648794,None,966.9574311648794,None,c,,,,,,,,,,,,,,,,,,,,,,,,,,,,,,,,,,,,,,,,,,,,,,,73_74Exp,001,2021_May_26_1527,ComputerHuman,2020.1.3,60.03612986823501,
Computer.xlsx,c,Sychronize.jpg,Number8.jpg,8,Computer,,,,,0,3,3,1,0,4,4,4,,,,,,,,,,,,,,,,,,,,,,,,,,,,,968.0074792192245,None,968.0074792192245,None,968.4571276975221,None,968.4571276975221,None,v,7.550991818574403,968.4571276975221,None,t,7.718590487165784,968.4571276975221,None,7.550991818574403,7.718590487165784,7.703120338784652,False,True,True,976.2404507228057,None,976.2404507228057,None,976.2404507228057,None,976.2404507228057,None,976.2404507228057,None,976.2404507228057,None,976.2404507228057,None,976.2404507228057,None,977.2719696250351,None,977.2719696250351,None,978.2551653608389,None,978.2551653608389,None,c,,,,,,,,,,,,,,,,,,,,,,,,,,,,,,,,,,,,,,,,,,,,,,,73_74Exp,001,2021_May_26_1527,ComputerHuman,2020.1.3,60.03612986823501,
Computer.xlsx,c,Sychronize.jpg,Number6.jpg,6,Computer,,,,,0,3,3,1,0,5,5,1,,,,,,,,,,,,,,,,,,,,,,,,,,,,,979.3051405958468,None,979.3051405958468,None,979.7550335161395,None,979.7550335161395,None,v,5.096757967781741,979.7550335161395,None,t,5.419748282489309,979.7550335161395,None,5.096757967781741,5.419748282489309,6.259022730040079,False,False,False,985.2703355206941,None,985.2703355206941,None,985.2703355206941,None,985.2703355206941,None,985.2703355206941,None,985.2703355206941,None,985.2703355206941,None,985.2703355206941,None,986.2534517005734,None,986.2534517005734,None,987.2365778249405,None,987.2365778249405,None,c,,,,,,,,,,,,,,,,,,,,,,,,,,,,,,,,,,,,,,,,,,,,,,,73_74Exp,001,2021_May_26_1527,ComputerHuman,2020.1.3,60.03612986823501,
Computer.xlsx,c,Sychronize.jpg,Number6.jpg,6,Computer,,,,,0,3,3,1,0,6,6,0,,,,,,,,,,,,,,,,,,,,,,,,,,,,,988.2867333439426,None,988.2867333439426,None,988.7364681147556,None,988.7364681147556,None,v,5.123018159283674,988.7364681147556,None,t,6.162698601099692,988.7364681147556,None,5.123018159283674,6.162698601099692,5.9199648791969155,False,False,True,994.9686479085794,None,994.9686479085794,None,994.9686479085794,None,994.9686479085794,None,994.9686479085794,None,994.9686479085794,None,994.9686479085794,None,994.9686479085794,None,995.9844468168667,None,995.9844468168667,None,996.9680066493347,None,996.9680066493347,None,c,,,,,,,,,,,,,,,,,,,,,,,,,,,,,,,,,,,,,,,,,,,,,,,73_74Exp,001,2021_May_26_1527,ComputerHuman,2020.1.3,60.03612986823501,
Computer.xlsx,c,Sychronize.jpg,Number10.jpg,10,Computer,,,,,0,3,3,1,0,7,7,8,,,,,,,,,,,,,,,,,,,,,,,,,,,,,998.0182330629286,None,998.0182330629286,None,998.4681179634717,None,998.4681179634717,None,v,8.058867855041171,998.4681179634717,None,t,8.394725057292817,998.4681179634717,None,8.058867855041171,8.394725057292817,9.400314183178885,False,False,False,1006.932958736139,None,1006.932958736139,None,1006.932958736139,None,1006.932958736139,None,1006.932958736139,None,1006.932958736139,None,1006.932958736139,None,1006.932958736139,None,1007.9323200432154,None,1007.9323200432154,None,1008.9154464883759,None,1008.9154464883759,None,c,,,,,,,,,,,,,,,,,,,,,,,,,,,,,,,,,,,,,,,,,,,,,,,73_74Exp,001,2021_May_26_1527,ComputerHuman,2020.1.3,60.03612986823501,
Computer.xlsx,c,Sychronize.jpg,Number9.jpg,9,Computer,,,,,0,3,3,1,0,8,8,7,,,,,,,,,,,,,,,,,,,,,,,,,,,,,1009.9830237923525,None,1009.9830237923525,None,1010.4322119369826,None,1010.4322119369826,None,v,7.3703530358288845,1010.4322119369826,None,t,8.109646027463896,1010.4322119369826,None,7.3703530358288845,8.109646027463896,9.385614146425867,False,False,False,1018.6301695311085,None,1018.6301695311085,None,1018.6301695311085,None,1018.6301695311085,None,1018.6301695311085,None,1018.6301695311085,None,1018.6301695311085,None,1018.6301695311085,None,1019.6298772914051,None,1019.6298772914051,None,1020.5963880968957,None,1020.5963880968957,None,c,,,,,,,,,,,,,,,,,,,,,,,,,,,,,,,,,,,,,,,,,,,,,,,73_74Exp,001,2021_May_26_1527,ComputerHuman,2020.1.3,60.03612986823501,
Computer.xlsx,c,Sychronize.jpg,Number9.jpg,9,Computer,,,,,0,3,3,1,0,9,9,6,,,,,,,,,,,,,,,,,,,,,,,,,,,,,1021.6467508462447,None,1021.6467508462447,None,1022.0965802501123,None,1022.0965802501123,None,v,7.337532688503416,1022.0965802501123,None,t,8.68058136133186,1022.0965802501123,None,7.337532688503416,8.68058136133186,9.490558973786788,False,False,False,1030.8447427649007,None,1030.8447427649007,None,1030.8447427649007,None,1030.8447427649007,None,1030.8447427649007,None,1030.8447427649007,None,1030.8447427649007,None,1030.8447427649007,None,1031.8606132093628,None,1031.8606132093628,None,1032.8438978039994,None,1032.8438978039994,None,c,,,,,,,,,,,,,,,,,,,,,,,,,,,,,,,,,,,,,,,,,,,,,,,73_74Exp,001,2021_May_26_1527,ComputerHuman,2020.1.3,60.03612986823501,
Computer.xlsx,c,,,,,,,,,0,3,3,1,,,,,,,,,,,,,,,,,,,,,,,,,,,,,,,,,,,,,,,,,,,,,,,,,,,,,,,,,,,,,,,,,,,,,,,,,,,,,,,c,1033.8441865150162,None,1033.8441865150162,None,a,1,8.753406789968722,1033.8441865150162,None,o,0,3.2808814924683247,1033.8441865150162,None,c,h,1042.6753457474806,None,1042.6753457474806,None,1044.6914173272817,None,None,None,None,None,None,None,None,,,,,,,,,,,,,,,,,,73_74Exp,001,2021_May_26_1527,ComputerHuman,2020.1.3,60.03612986823501,
Computer.xlsx,c,Sychronize.jpg,Number10.jpg,10,Computer,,,,,0,4,4,3,0,0,0,8,,,,,,,,,,,,,,,,,,,,,,,,,1049.6935165771465,None,1049.6935165771465,None,1052.7564610317131,None,1052.7564610317131,None,1053.1900597439344,None,1053.1900597439344,None,v,8.346847788987361,1053.1900597439344,None,None,,1053.1900597439344,None,8.346847788987361,13,9.972464473345177,False,False,False,1066.2702954219421,None,1066.2702954219421,None,1066.2702954219421,None,1066.2702954219421,None,1066.2702954219421,None,1066.2702954219421,None,1066.2702954219421,None,1066.2702954219421,None,1067.2865687786616,None,1067.2865687786616,None,1068.2698238606172,None,1068.2698238606172,None,c,,,,,,,,,,,,,,,,,,,,,,,,,,,,,,,,,,,,,,,,,,,,,,,73_74Exp,001,2021_May_26_1527,ComputerHuman,2020.1.3,60.03612986823501,
Computer.xlsx,c,Sychronize.jpg,Number7.jpg,7,Computer,,,,,0,4,4,3,0,1,1,2,,,,,,,,,,,,,,,,,,,,,,,,,,,,,1069.3197076704746,None,1069.3197076704746,None,1069.7532297138823,None,1069.7532297138823,None,v,5.331213766767178,1069.7532297138823,None,t,7.410677303207194,1069.7532297138823,None,5.331213766767178,7.410677303207194,6.590730979121037,False,False,False,1077.2361598355492,None,1077.2361598355492,None,1077.2361598355492,None,1077.2361598355492,None,1077.2361598355492,None,1077.2361598355492,None,1077.2361598355492,None,1077.2361598355492,None,1078.2511628638094,None,1078.2511628638094,None,1079.2343512214393,None,1079.2343512214393,None,c,,,,,,,,,,,,,,,,,,,,,,,,,,,,,,,,,,,,,,,,,,,,,,,73_74Exp,001,2021_May_26_1527,ComputerHuman,2020.1.3,60.03612986823501,
Computer.xlsx,c,Sychronize.jpg,Number6.jpg,6,Computer,,,,,0,4,4,3,0,2,2,0,,,,,,,,,,,,,,,,,,,,,,,,,,,,,1080.284251070796,None,1080.284251070796,None,1080.7340099008616,None,1080.7340099008616,None,v,5.194008348240459,1080.7340099008616,None,t,5.321989129068243,1080.7340099008616,None,5.194008348240459,5.321989129068243,6.306835081258078,False,False,False,1086.1337896464393,None,1086.1337896464393,None,1086.1337896464393,None,1086.1337896464393,None,1086.1337896464393,None,1086.1337896464393,None,1086.1337896464393,None,1086.1337896464393,None,1087.1326832416744,None,1087.1326832416744,None,1088.1158042334027,None,1088.1158042334027,None,c,,,,,,,,,,,,,,,,,,,,,,,,,,,,,,,,,,,,,,,,,,,,,,,73_74Exp,001,2021_May_26_1527,ComputerHuman,2020.1.3,60.03612986823501,
Computer.xlsx,c,Sychronize.jpg,Number9.jpg,9,Computer,,,,,0,4,4,3,0,3,3,6,,,,,,,,,,,,,,,,,,,,,,,,,,,,,1089.182888162337,None,1089.182888162337,None,1089.6156765589767,None,1089.6156765589767,None,v,6.743938672650984,1089.6156765589767,None,t,9.56357191983625,1089.6156765589767,None,6.743938672650984,9.56357191983625,8.734796118873513,False,False,False,1099.2635229031257,None,1099.2635229031257,None,1099.2635229031257,None,1099.2635229031257,None,1099.2635229031257,None,1099.2635229031257,None,1099.2635229031257,None,1099.2635229031257,None,1100.263143729324,None,1100.263143729324,None,1101.2464902364336,None,1101.2464902364336,None,c,,,,,,,,,,,,,,,,,,,,,,,,,,,,,,,,,,,,,,,,,,,,,,,73_74Exp,001,2021_May_26_1527,ComputerHuman,2020.1.3,60.03612986823501,
Computer.xlsx,c,Sychronize.jpg,Number6.jpg,6,Computer,,,,,0,4,4,3,0,4,4,1,,,,,,,,,,,,,,,,,,,,,,,,,,,,,1102.2797824658737,None,1102.2797824658737,None,1102.7299371508198,None,1102.7299371508198,None,None,,1102.7299371508198,None,t,5.992735710085981,1102.7299371508198,None,13,5.992735710085981,5.972850356385654,False,False,True,1115.793702186249,None,1115.793702186249,None,1115.793702186249,None,1115.793702186249,None,1115.793702186249,None,1115.793702186249,None,1115.793702186249,None,1115.793702186249,None,1116.8099678440085,None,1116.8099678440085,None,1117.7929136843886,None,1117.7929136843886,None,c,,,,,,,,,,,,,,,,,,,,,,,,,,,,,,,,,,,,,,,,,,,,,,,73_74Exp,001,2021_May_26_1527,ComputerHuman,2020.1.3,60.03612986823501,
Computer.xlsx,c,Sychronize.jpg,Number8.jpg,8,Computer,,,,,0,4,4,3,0,5,5,5,,,,,,,,,,,,,,,,,,,,,,,,,,,,,1118.8428905233486,None,1118.8428905233486,None,1119.276182239526,None,1119.276182239526,None,v,8.546235144214734,1119.276182239526,None,t,7.34165740653043,1119.276182239526,None,8.546235144214734,7.34165740653043,7.480658084652817,False,False,True,1127.891288754643,None,1127.891288754643,None,1127.891288754643,None,1127.891288754643,None,1127.891288754643,None,1127.891288754643,None,1127.891288754643,None,1127.891288754643,None,1128.9072743627185,None,1128.9072743627185,None,1129.8904672114113,None,1129.8904672114113,None,c,,,,,,,,,,,,,,,,,,,,,,,,,,,,,,,,,,,,,,,,,,,,,,,73_74Exp,001,2021_May_26_1527,ComputerHuman,2020.1.3,60.03612986823501,
Computer.xlsx,c,Sychronize.jpg,Number10.jpg,10,Computer,,,,,0,4,4,3,0,6,6,9,,,,,,,,,,,,,,,,,,,,,,,,,,,,,1130.9406362035916,None,1130.9406362035916,None,1131.3906644972703,None,1131.3906644972703,None,v,10.05928071179369,1131.3906644972703,None,t,10.214510358950065,1131.3906644972703,None,10.05928071179369,10.214510358950065,10.67638007164742,False,False,False,1141.6562167180346,None,1141.6562167180346,None,1141.6562167180346,None,1141.6562167180346,None,1141.6562167180346,None,1141.6562167180346,None,1141.6562167180346,None,1141.6562167180346,None,1142.6712261620924,None,1142.6712261620924,None,1143.6544032920756,None,1143.6544032920756,None,c,,,,,,,,,,,,,,,,,,,,,,,,,,,,,,,,,,,,,,,,,,,,,,,73_74Exp,001,2021_May_26_1527,ComputerHuman,2020.1.3,60.03612986823501,
Computer.xlsx,c,Sychronize.jpg,Number8.jpg,8,Computer,,,,,0,4,4,3,0,7,7,4,,,,,,,,,,,,,,,,,,,,,,,,,,,,,1144.7209434819306,None,1144.7209434819306,None,1145.1707359949505,None,1145.1707359949505,None,v,8.690776388826635,1145.1707359949505,None,t,7.88967582244004,1145.1707359949505,None,8.690776388826635,7.88967582244004,7.759974430045761,False,False,True,1153.9366757300559,None,1153.9366757300559,None,1153.9366757300559,None,1153.9366757300559,None,1153.9366757300559,None,1153.9366757300559,None,1153.9366757300559,None,1153.9366757300559,None,1154.9353614533575,None,1154.9353614533575,None,1155.9184911064185,None,1155.9184911064185,None,c,,,,,,,,,,,,,,,,,,,,,,,,,,,,,,,,,,,,,,,,,,,,,,,73_74Exp,001,2021_May_26_1527,ComputerHuman,2020.1.3,60.03612986823501,
Computer.xlsx,c,Sychronize.jpg,Number7.jpg,7,Computer,,,,,0,4,4,3,0,8,8,3,,,,,,,,,,,,,,,,,,,,,,,,,,,,,1156.9683694628438,None,1156.9683694628438,None,1157.4184410631751,None,1157.4184410631751,None,v,5.994683547065506,1157.4184410631751,None,t,7.109673615403153,1157.4184410631751,None,5.994683547065506,7.109673615403153,6.747772073125709,False,False,False,1164.600976677284,None,1164.600976677284,None,1164.600976677284,None,1164.600976677284,None,1164.600976677284,None,1164.600976677284,None,1164.600976677284,None,1164.600976677284,None,1165.6165808660298,None,1165.6165808660298,None,1166.5997101983012,None,1166.5997101983012,None,c,,,,,,,,,,,,,,,,,,,,,,,,,,,,,,,,,,,,,,,,,,,,,,,73_74Exp,001,2021_May_26_1527,ComputerHuman,2020.1.3,60.03612986823501,
Computer.xlsx,c,Sychronize.jpg,Number9.jpg,9,Computer,,,,,0,4,4,3,0,9,9,7,,,,,,,,,,,,,,,,,,,,,,,,,,,,,1167.6332228104802,None,1167.6332228104802,None,1168.0999831906047,None,1168.0999831906047,None,v,7.196740196013707,1168.0999831906047,None,t,9.991543012805778,1168.0999831906047,None,7.196740196013707,9.991543012805778,8.856020769025138,False,False,False,1178.1642268447358,None,1178.1642268447358,None,1178.1642268447358,None,1178.1642268447358,None,1178.1642268447358,None,1178.1642268447358,None,1178.1642268447358,None,1178.1642268447358,None,1179.1803648280693,None,1179.1803648280693,None,1180.1635098790503,None,1180.1635098790503,None,c,,,,,,,,,,,,,,,,,,,,,,,,,,,,,,,,,,,,,,,,,,,,,,,73_74Exp,001,2021_May_26_1527,ComputerHuman,2020.1.3,60.03612986823501,
Computer.xlsx,c,,,,,,,,,0,4,4,3,,,,,,,,,,,,,,,,,,,,,,,,,,,,,,,,,,,,,,,,,,,,,,,,,,,,,,,,,,,,,,,,,,,,,,,,,,,,,,,c,1181.1641649322628,None,1181.1641649322628,None,q,0,5.696071348829719,1181.1641649322628,None,o,0,2.7564106676763913,1181.1641649322628,None,h,h,1186.9458692511216,None,1186.9458692511216,None,None,None,1188.928250821864,None,1188.928250821864,None,"['space', 'space']",1189.9115546639005,None,"[5.50837069467525, 7.788663858256768]",,,,,,,,,,,,,,,,,73_74Exp,001,2021_May_26_1527,ComputerHuman,2020.1.3,60.03612986823501,
Human.xlsx,h,Sychronize.jpg,Number10.jpg,10,Human,,,,,0,5,5,8,0,0,0,8,,,,,,,,,,,,,,,,,,,,,,,,,1197.7627915018893,None,1197.7627915018893,None,1200.8258251360785,None,1200.8258251360785,None,1201.2760943430621,None,1201.2760943430621,None,v,11.355250883454573,1201.2760943430621,None,t,9.686569869350933,1201.2760943430621,None,11.355250883454573,9.686569869350933,10.712230374533881,False,False,False,1212.7235008199386,None,1212.7235008199386,None,1212.7235008199386,None,1212.7235008199386,None,1212.7235008199386,None,1212.7235008199386,None,1212.7235008199386,None,1212.7235008199386,None,1213.7259211806086,None,1213.7259211806086,None,1214.7230504307554,None,1214.7230504307554,None,h,,,,,,,,,,,,,,,,,,,,,,,,,,,,,,,,,,,,,,,,,,,,,,,73_74Exp,001,2021_May_26_1527,ComputerHuman,2020.1.3,60.03612986823501,
Human.xlsx,h,Sychronize.jpg,Number6.jpg,6,Human,,,,,0,5,5,8,0,1,1,1,,,,,,,,,,,,,,,,,,,,,,,,,,,,,1215.7894077703058,None,1215.7894077703058,None,1216.22329936381,None,1216.22329936381,None,v,5.44364168525135,1216.22329936381,None,t,5.566733947027387,1216.22329936381,None,5.44364168525135,5.566733947027387,6.056687128012338,True,False,False,1221.8721837844496,None,1221.8721837844496,None,1221.8721837844496,None,1221.8721837844496,None,1221.8721837844496,None,1221.8721837844496,None,1221.8721837844496,None,1221.8721837844496,None,1222.855949884899,None,1222.855949884899,None,1223.8545088961473,None,1223.8545088961473,None,h,,,,,,,,,,,,,,,,,,,,,,,,,,,,,,,,,,,,,,,,,,,,,,,73_74Exp,001,2021_May_26_1527,ComputerHuman,2020.1.3,60.03612986823501,
Human.xlsx,h,Sychronize.jpg,Number6.jpg,6,Human,,,,,0,5,5,8,0,2,2,0,,,,,,,,,,,,,,,,,,,,,,,,,,,,,1224.9049633914437,None,1224.9049633914437,None,1225.354484195319,None,1225.354484195319,None,v,5.720256991298811,1225.354484195319,None,t,5.807727125749807,1225.354484195319,None,5.720256991298811,5.807727125749807,6.041730084095996,True,False,False,1231.2368405519628,None,1231.2368405519628,None,1231.2368405519628,None,1231.2368405519628,None,1231.2368405519628,None,1231.2368405519628,None,1231.2368405519628,None,1231.2368405519628,None,1232.2379084619279,None,1232.2379084619279,None,1233.2360244621632,None,1233.2360244621632,None,h,,,,,,,,,,,,,,,,,,,,,,,,,,,,,,,,,,,,,,,,,,,,,,,73_74Exp,001,2021_May_26_1527,ComputerHuman,2020.1.3,60.03612986823501,
Human.xlsx,h,Sychronize.jpg,Number10.jpg,10,Human,,,,,0,5,5,8,0,3,3,9,,,,,,,,,,,,,,,,,,,,,,,,,,,,,1234.2863506414506,None,1234.2863506414506,None,1234.7360623153872,None,1234.7360623153872,None,v,9.294035807866749,1234.7360623153872,None,t,10.917418705394084,1234.7360623153872,None,9.294035807866749,10.917418705394084,10.617253575376155,False,False,False,1245.7340836825679,None,1245.7340836825679,None,1245.7340836825679,None,1245.7340836825679,None,1245.7340836825679,None,1245.7340836825679,None,1245.7340836825679,None,1245.7340836825679,None,1246.735209013943,None,1246.735209013943,None,1247.733050738716,None,1247.733050738716,None,h,,,,,,,,,,,,,,,,,,,,,,,,,,,,,,,,,,,,,,,,,,,,,,,73_74Exp,001,2021_May_26_1527,ComputerHuman,2020.1.3,60.03612986823501,
Human.xlsx,h,Sychronize.jpg,Number9.jpg,9,Human,,,,,0,5,5,8,0,4,4,6,,,,,,,,,,,,,,,,,,,,,,,,,,,,,1248.7669611305173,None,1248.7669611305173,None,1249.232941028531,None,1249.232941028531,None,v,7.992686308425618,1249.232941028531,None,None,,1249.232941028531,None,7.992686308425618,13,9.097879300478164,False,False,False,1262.2984107421034,None,1262.2984107421034,None,1262.2984107421034,None,1262.2984107421034,None,1262.2984107421034,None,1262.2984107421034,None,1262.2984107421034,None,1262.2984107421034,None,1263.298750458729,None,1263.298750458729,None,1264.2962418808056,None,1264.2962418808056,None,h,,,,,,,,,,,,,,,,,,,,,,,,,,,,,,,,,,,,,,,,,,,,,,,73_74Exp,001,2021_May_26_1527,ComputerHuman,2020.1.3,60.03612986823501,
Human.xlsx,h,Sychronize.jpg,Number8.jpg,8,Human,,,,,0,5,5,8,0,5,5,5,,,,,,,,,,,,,,,,,,,,,,,,,,,,,1265.3465837788026,None,1265.3465837788026,None,1265.7960519731168,None,1265.7960519731168,None,v,7.872962341818493,1265.7960519731168,None,t,7.992632415702246,1265.7960519731168,None,7.872962341818493,7.992632415702246,7.619649849247525,True,False,False,1273.8618084729642,None,1273.8618084729642,None,1273.8618084729642,None,1273.8618084729642,None,1273.8618084729642,None,1273.8618084729642,None,1273.8618084729642,None,1273.8618084729642,None,1274.846360188163,None,1274.846360188163,None,1275.8437993214648,None,1275.8437993214648,None,h,,,,,,,,,,,,,,,,,,,,,,,,,,,,,,,,,,,,,,,,,,,,,,,73_74Exp,001,2021_May_26_1527,ComputerHuman,2020.1.3,60.03612986823501,
Human.xlsx,h,Sychronize.jpg,Number7.jpg,7,Human,,,,,0,5,5,8,0,6,6,2,,,,,,,,,,,,,,,,,,,,,,,,,,,,,1276.9111434111,None,1276.9111434111,None,1277.3605782432533,None,1277.3605782432533,None,v,6.436122046485252,1277.3605782432533,None,t,6.891698082701623,1277.3605782432533,None,6.436122046485252,6.891698082701623,6.560154337799189,False,False,False,1284.342163933965,None,1284.342163933965,None,1284.342163933965,None,1284.342163933965,None,1284.342163933965,None,1284.342163933965,None,1284.342163933965,None,1284.342163933965,None,1285.3270197581005,None,1285.3270197581005,None,1286.3083138506881,None,1286.3083138506881,None,h,,,,,,,,,,,,,,,,,,,,,,,,,,,,,,,,,,,,,,,,,,,,,,,73_74Exp,001,2021_May_26_1527,ComputerHuman,2020.1.3,60.03612986823501,
Human.xlsx,h,Sychronize.jpg,Number7.jpg,7,Human,,,,,0,5,5,8,0,7,7,3,,,,,,,,,,,,,,,,,,,,,,,,,,,,,1287.3584363283153,None,1287.3584363283153,None,1287.80837319684,None,1287.80837319684,None,v,5.903856986678875,1287.80837319684,None,t,6.966669275760069,1287.80837319684,None,5.903856986678875,6.966669275760069,7.416227446143204,False,False,False,1294.8567890715822,None,1294.8567890715822,None,1294.8567890715822,None,1294.8567890715822,None,1294.8567890715822,None,1294.8567890715822,None,1294.8567890715822,None,1294.8567890715822,None,1295.8593146513776,None,1295.8593146513776,None,1296.8561494162896,None,1296.8561494162896,None,h,,,,,,,,,,,,,,,,,,,,,,,,,,,,,,,,,,,,,,,,,,,,,,,73_74Exp,001,2021_May_26_1527,ComputerHuman,2020.1.3,60.03612986823501,
Human.xlsx,h,Sychronize.jpg,Number8.jpg,8,Human,,,,,0,5,5,8,0,8,8,4,,,,,,,,,,,,,,,,,,,,,,,,,,,,,1297.9064303641862,None,1297.9064303641862,None,1298.3562588056848,None,1298.3562588056848,None,v,7.8637104369663575,1298.3562588056848,None,t,7.838607335059351,1298.3562588056848,None,7.8637104369663575,7.838607335059351,8.311086051911872,True,False,False,1306.2879831418431,None,1306.2879831418431,None,1306.2879831418431,None,1306.2879831418431,None,1306.2879831418431,None,1306.2879831418431,None,1306.2879831418431,None,1306.2879831418431,None,1307.2729230129626,None,1307.2729230129626,None,1308.2704115479282,None,1308.2704115479282,None,h,,,,,,,,,,,,,,,,,,,,,,,,,,,,,,,,,,,,,,,,,,,,,,,73_74Exp,001,2021_May_26_1527,ComputerHuman,2020.1.3,60.03612986823501,
Human.xlsx,h,Sychronize.jpg,Number9.jpg,9,Human,,,,,0,5,5,8,0,9,9,7,,,,,,,,,,,,,,,,,,,,,,,,,,,,,1309.3377168219704,None,1309.3377168219704,None,1309.770808044388,None,1309.770808044388,None,v,8.40049029545844,1309.770808044388,None,t,9.955577640164847,1309.770808044388,None,8.40049029545844,9.955577640164847,8.893492004721674,False,False,False,1319.8181021164455,None,1319.8181021164455,None,1319.8181021164455,None,1319.8181021164455,None,1319.8181021164455,None,1319.8181021164455,None,1319.8181021164455,None,1319.8181021164455,None,1320.7863057308496,None,1320.7863057308496,None,1321.784295019028,None,1321.784295019028,None,h,,,,,,,,,,,,,,,,,,,,,,,,,,,,,,,,,,,,,,,,,,,,,,,73_74Exp,001,2021_May_26_1527,ComputerHuman,2020.1.3,60.03612986823501,
Human.xlsx,h,,,,,,,,,0,5,5,8,,,,,,,,,,,,,,,,,,,,,,,,,,,,,,,,,,,,,,,,,,,,,,,,,,,,,,,,,,,,,,,,,,,,,,,,,,,,,,,h,1322.785280165168,None,1322.785280165168,None,a,0,3.237754482721357,1322.785280165168,None,o,0,2.6207216235598025,1322.785280165168,None,c,h,1326.0998738012095,None,1326.0998738012095,None,1328.116294721338,None,None,None,None,None,None,None,None,,,,,,,,,,,,,,,,,,73_74Exp,001,2021_May_26_1527,ComputerHuman,2020.1.3,60.03612986823501,
Human.xlsx,h,Sychronize.jpg,Number8.jpg,8,Human,,,,,0,6,6,0,0,0,0,5,,,,,,,,,,,,,,,,,,,,,,,,,1333.1176269622738,None,1333.1176269622738,None,1336.1817650764897,None,1336.1817650764897,None,1336.614907625306,None,1336.614907625306,None,v,6.635445564501424,1336.614907625306,None,t,8.114537433630176,1336.614907625306,None,6.635445564501424,8.114537433630176,7.697236118103597,False,False,False,1344.8129284150673,None,1344.8129284150673,None,1344.8129284150673,None,1344.8129284150673,None,1344.8129284150673,None,1344.8129284150673,None,1344.8129284150673,None,1344.8129284150673,None,1345.7975253616605,None,1345.7975253616605,None,1346.8125059346166,None,1346.8125059346166,None,h,,,,,,,,,,,,,,,,,,,,,,,,,,,,,,,,,,,,,,,,,,,,,,,73_74Exp,001,2021_May_26_1527,ComputerHuman,2020.1.3,60.03612986823501,
Human.xlsx,h,Sychronize.jpg,Number6.jpg,6,Human,,,,,0,6,6,0,0,1,1,0,,,,,,,,,,,,,,,,,,,,,,,,,,,,,1347.862195666512,None,1347.862195666512,None,1348.3126563851329,None,1348.3126563851329,None,v,5.369321375135769,1348.3126563851329,None,t,5.452826544988056,1348.3126563851329,None,5.369321375135769,5.452826544988056,5.913199471040917,True,False,False,1353.8450818399506,None,1353.8450818399506,None,1353.8450818399506,None,1353.8450818399506,None,1353.8450818399506,None,1353.8450818399506,None,1353.8450818399506,None,1353.8450818399506,None,1354.829193752037,None,1354.829193752037,None,1355.8273549836667,None,1355.8273549836667,None,h,,,,,,,,,,,,,,,,,,,,,,,,,,,,,,,,,,,,,,,,,,,,,,,73_74Exp,001,2021_May_26_1527,ComputerHuman,2020.1.3,60.03612986823501,
Human.xlsx,h,Sychronize.jpg,Number10.jpg,10,Human,,,,,0,6,6,0,0,2,2,8,,,,,,,,,,,,,,,,,,,,,,,,,,,,,1356.877036054233,None,1356.877036054233,None,1357.327431010901,None,1357.327431010901,None,v,10.030116729070869,1357.327431010901,None,t,8.78961500065634,1357.327431010901,None,10.030116729070869,8.78961500065634,10.520851180658386,False,False,False,1367.425249189684,None,1367.425249189684,None,1367.425249189684,None,1367.425249189684,None,1367.425249189684,None,1367.425249189684,None,1367.425249189684,None,1367.425249189684,None,1368.4271954227115,None,1368.4271954227115,None,1369.4078966953493,None,1369.4078966953493,None,h,,,,,,,,,,,,,,,,,,,,,,,,,,,,,,,,,,,,,,,,,,,,,,,73_74Exp,001,2021_May_26_1527,ComputerHuman,2020.1.3,60.03612986823501,
Human.xlsx,h,Sychronize.jpg,Number7.jpg,7,Human,,,,,0,6,6,0,0,3,3,3,,,,,,,,,,,,,,,,,,,,,,,,,,,,,1370.4587181744246,None,1370.4587181744246,None,1370.9080763377606,None,1370.9080763377606,None,v,6.2210406813064765,1370.9080763377606,None,None,,1370.9080763377606,None,6.2210406813064765,13,7.518305315528385,False,False,False,1383.9883222810495,None,1383.9883222810495,None,1383.9883222810495,None,1383.9883222810495,None,1383.9883222810495,None,1383.9883222810495,None,1383.9883222810495,None,1383.9883222810495,None,1384.973167839904,None,1384.973167839904,None,1385.9544407603498,None,1385.9544407603498,None,h,,,,,,,,,,,,,,,,,,,,,,,,,,,,,,,,,,,,,,,,,,,,,,,73_74Exp,001,2021_May_26_1527,ComputerHuman,2020.1.3,60.03612986823501,
Human.xlsx,h,Sychronize.jpg,Number10.jpg,10,Human,,,,,0,6,6,0,0,4,4,9,,,,,,,,,,,,,,,,,,,,,,,,,,,,,1387.020895940852,None,1387.020895940852,None,1387.45446353644,None,1387.45446353644,None,v,10.87387819731157,1387.45446353644,None,t,11.065452711700345,1387.45446353644,None,10.87387819731157,11.065452711700345,9.34031065060579,True,False,False,1398.602400343374,None,1398.602400343374,None,1398.602400343374,None,1398.602400343374,None,1398.602400343374,None,1398.602400343374,None,1398.602400343374,None,1398.602400343374,None,1399.603581813004,None,1399.603581813004,None,1400.601567572492,None,1400.601567572492,None,h,,,,,,,,,,,,,,,,,,,,,,,,,,,,,,,,,,,,,,,,,,,,,,,73_74Exp,001,2021_May_26_1527,ComputerHuman,2020.1.3,60.03612986823501,
Human.xlsx,h,Sychronize.jpg,Number6.jpg,6,Human,,,,,0,6,6,0,0,5,5,1,,,,,,,,,,,,,,,,,,,,,,,,,,,,,1401.6354420358111,None,1401.6354420358111,None,1402.1014517672957,None,1402.1014517672957,None,v,5.402508385450346,1402.1014517672957,None,t,5.405826637375867,1402.1014517672957,None,5.402508385450346,5.405826637375867,5.992200977039667,True,False,False,1407.5837008517628,None,1407.5837008517628,None,1407.5837008517628,None,1407.5837008517628,None,1407.5837008517628,None,1407.5837008517628,None,1407.5837008517628,None,1407.5837008517628,None,1408.5852858752296,None,1408.5852858752296,None,1409.582910104371,None,1409.582910104371,None,h,,,,,,,,,,,,,,,,,,,,,,,,,,,,,,,,,,,,,,,,,,,,,,,73_74Exp,001,2021_May_26_1527,ComputerHuman,2020.1.3,60.03612986823501,
Human.xlsx,h,Sychronize.jpg,Number8.jpg,8,Human,,,,,0,6,6,0,0,6,6,4,,,,,,,,,,,,,,,,,,,,,,,,,,,,,1410.6667950896044,None,1410.6667950896044,None,1411.0995584646225,None,1411.0995584646225,None,v,7.572590931140439,1411.0995584646225,None,t,6.807708199135959,1411.0995584646225,None,7.572590931140439,6.807708199135959,8.104010097741384,False,False,False,1418.749130017477,None,1418.749130017477,None,1418.749130017477,None,1418.749130017477,None,1418.749130017477,None,1418.749130017477,None,1418.749130017477,None,1418.749130017477,None,1419.732801164082,None,1419.732801164082,None,1420.730635189895,None,1420.730635189895,None,h,,,,,,,,,,,,,,,,,,,,,,,,,,,,,,,,,,,,,,,,,,,,,,,73_74Exp,001,2021_May_26_1527,ComputerHuman,2020.1.3,60.03612986823501,
Human.xlsx,h,Sychronize.jpg,Number9.jpg,9,Human,,,,,0,6,6,0,0,7,7,6,,,,,,,,,,,,,,,,,,,,,,,,,,,,,1421.7809934481847,None,1421.7809934481847,None,1422.230646738335,None,1422.230646738335,None,v,8.292461691256904,1422.230646738335,None,t,8.935599479551456,1422.230646738335,None,8.292461691256904,8.935599479551456,9.484504832225882,False,False,False,1431.26179801521,None,1431.26179801521,None,1431.26179801521,None,1431.26179801521,None,1431.26179801521,None,1431.26179801521,None,1431.26179801521,None,1431.26179801521,None,1432.246294233737,None,1432.246294233737,None,1433.2447605366688,None,1433.2447605366688,None,h,,,,,,,,,,,,,,,,,,,,,,,,,,,,,,,,,,,,,,,,,,,,,,,73_74Exp,001,2021_May_26_1527,ComputerHuman,2020.1.3,60.03612986823501,
Human.xlsx,h,Sychronize.jpg,Number7.jpg,7,Human,,,,,0,6,6,0,0,8,8,2,,,,,,,,,,,,,,,,,,,,,,,,,,,,,1434.278114678582,None,1434.278114678582,None,1434.744795502782,None,1434.744795502782,None,v,6.065958597559074,1434.744795502782,None,t,7.269701960412931,1434.744795502782,None,6.065958597559074,7.269701960412931,7.198299287267242,False,False,False,1442.093367538102,None,1442.093367538102,None,1442.093367538102,None,1442.093367538102,None,1442.093367538102,None,1442.093367538102,None,1442.093367538102,None,1442.093367538102,None,1443.078019018998,None,1443.078019018998,None,1444.0924276233563,None,1444.0924276233563,None,h,,,,,,,,,,,,,,,,,,,,,,,,,,,,,,,,,,,,,,,,,,,,,,,73_74Exp,001,2021_May_26_1527,ComputerHuman,2020.1.3,60.03612986823501,
Human.xlsx,h,Sychronize.jpg,Number9.jpg,9,Human,,,,,0,6,6,0,0,9,9,7,,,,,,,,,,,,,,,,,,,,,,,,,,,,,1445.1427214028517,None,1445.1427214028517,None,1445.5923836751244,None,1445.5923836751244,None,v,7.53387446331908,1445.5923836751244,None,t,8.925627080323466,1445.5923836751244,None,7.53387446331908,8.925627080323466,9.17187771313415,False,False,False,1454.591940022532,None,1454.591940022532,None,1454.591940022532,None,1454.591940022532,None,1454.591940022532,None,1454.591940022532,None,1454.591940022532,None,1454.591940022532,None,1455.5751229267335,None,1455.5751229267335,None,1456.5732216043107,None,1456.5732216043107,None,h,,,,,,,,,,,,,,,,,,,,,,,,,,,,,,,,,,,,,,,,,,,,,,,73_74Exp,001,2021_May_26_1527,ComputerHuman,2020.1.3,60.03612986823501,
Human.xlsx,h,,,,,,,,,0,6,6,0,,,,,,,,,,,,,,,,,,,,,,,,,,,,,,,,,,,,,,,,,,,,,,,,,,,,,,,,,,,,,,,,,,,,,,,,,,,,,,,h,1457.5740380149,None,1457.5740380149,None,a,0,3.307974775638286,1457.5740380149,None,o,1,32.8016446262518,1457.5740380149,None,c,h,1490.4495698847459,None,1490.4495698847459,None,1492.449137139014,None,None,None,None,None,None,None,None,,,,,,,,,,,,,,,,,,73_74Exp,001,2021_May_26_1527,ComputerHuman,2020.1.3,60.03612986823501,
Computer.xlsx,c,Sychronize.jpg,Number9.jpg,9,Computer,,,,,0,7,7,7,0,0,0,6,,,,,,,,,,,,,,,,,,,,,,,,,1497.467682330629,None,1497.467682330629,None,1500.5312888957887,None,1500.5312888957887,None,1500.9811394718017,None,1500.9811394718017,None,v,8.339110654593242,1500.9811394718017,None,t,7.702715230854665,1500.9811394718017,None,8.339110654593242,7.702715230854665,9.080721668959308,False,False,False,1509.4123794150328,None,1509.4123794150328,None,1509.4123794150328,None,1509.4123794150328,None,1509.4123794150328,None,1509.4123794150328,None,1509.4123794150328,None,1509.4123794150328,None,1510.4287255910895,None,1510.4287255910895,None,1511.4119283842701,None,1511.4119283842701,None,c,,,,,,,,,,,,,,,,,,,,,,,,,,,,,,,,,,,,,,,,,,,,,,,73_74Exp,001,2021_May_26_1527,ComputerHuman,2020.1.3,60.03612986823501,
Computer.xlsx,c,Sychronize.jpg,Number10.jpg,10,Computer,,,,,0,7,7,7,0,1,1,8,,,,,,,,,,,,,,,,,,,,,,,,,,,,,1512.4622199182377,None,1512.4622199182377,None,1512.9117641397825,None,1512.9117641397825,None,v,11.259848895071627,1512.9117641397825,None,None,,1512.9117641397825,None,11.259848895071627,13,10.73106902922209,False,False,False,1525.976330187881,None,1525.976330187881,None,1525.976330187881,None,1525.976330187881,None,1525.976330187881,None,1525.976330187881,None,1525.976330187881,None,1525.976330187881,None,1526.9754156155432,None,1526.9754156155432,None,1527.975184967523,None,1527.975184967523,None,c,,,,,,,,,,,,,,,,,,,,,,,,,,,,,,,,,,,,,,,,,,,,,,,73_74Exp,001,2021_May_26_1527,ComputerHuman,2020.1.3,60.03612986823501,
Computer.xlsx,c,Sychronize.jpg,Number8.jpg,8,Computer,,,,,0,7,7,7,0,2,2,4,,,,,,,,,,,,,,,,,,,,,,,,,,,,,1529.0252772908898,None,1529.0252772908898,None,1529.4751038076502,None,1529.4751038076502,None,v,8.672063744827028,1529.4751038076502,None,t,8.011651734959742,1529.4751038076502,None,8.672063744827028,8.011651734959742,7.888101431093123,False,False,True,1538.2248654606665,None,1538.2248654606665,None,1538.2248654606665,None,1538.2248654606665,None,1538.2248654606665,None,1538.2248654606665,None,1538.2248654606665,None,1538.2248654606665,None,1539.222882015998,None,1539.222882015998,None,1540.2060626746716,None,1540.2060626746716,None,c,,,,,,,,,,,,,,,,,,,,,,,,,,,,,,,,,,,,,,,,,,,,,,,73_74Exp,001,2021_May_26_1527,ComputerHuman,2020.1.3,60.03612986823501,
Computer.xlsx,c,Sychronize.jpg,Number6.jpg,6,Computer,,,,,0,7,7,7,0,3,3,0,,,,,,,,,,,,,,,,,,,,,,,,,,,,,1541.2558951581232,None,1541.2558951581232,None,1541.7061820085546,None,1541.7061820085546,None,v,4.880626656882669,1541.7061820085546,None,t,5.299727585119399,1541.7061820085546,None,4.880626656882669,5.299727585119399,5.71412976121484,False,False,False,1547.0884244847475,None,1547.0884244847475,None,1547.0884244847475,None,1547.0884244847475,None,1547.0884244847475,None,1547.0884244847475,None,1547.0884244847475,None,1547.0884244847475,None,1548.1044299818059,None,1548.1044299818059,None,1549.0875166490005,None,1549.0875166490005,None,c,,,,,,,,,,,,,,,,,,,,,,,,,,,,,,,,,,,,,,,,,,,,,,,73_74Exp,001,2021_May_26_1527,ComputerHuman,2020.1.3,60.03612986823501,
Computer.xlsx,c,Sychronize.jpg,Number8.jpg,8,Computer,,,,,0,7,7,7,0,4,4,5,,,,,,,,,,,,,,,,,,,,,,,,,,,,,1550.1378283927406,None,1550.1378283927406,None,1550.587568296196,None,1550.587568296196,None,v,6.510835324370419,1550.587568296196,None,None,,1550.587568296196,None,6.510835324370419,13,7.849139050359741,False,False,False,1563.6515646212247,None,1563.6515646212247,None,1563.6515646212247,None,1563.6515646212247,None,1563.6515646212247,None,1563.6515646212247,None,1563.6515646212247,None,1563.6515646212247,None,1564.6674270459334,None,1564.6674270459334,None,1565.650813651795,None,1565.650813651795,None,c,,,,,,,,,,,,,,,,,,,,,,,,,,,,,,,,,,,,,,,,,,,,,,,73_74Exp,001,2021_May_26_1527,ComputerHuman,2020.1.3,60.03612986823501,
Computer.xlsx,c,Sychronize.jpg,Number6.jpg,6,Computer,,,,,0,7,7,7,0,5,5,1,,,,,,,,,,,,,,,,,,,,,,,,,,,,,1566.7011539458472,None,1566.7011539458472,None,1567.150726076121,None,1567.150726076121,None,v,6.199072339430131,1567.150726076121,None,t,5.474756071271258,1567.150726076121,None,6.199072339430131,5.474756071271258,5.591962047943326,False,False,True,1573.4327903213816,None,1573.4327903213816,None,1573.4327903213816,None,1573.4327903213816,None,1573.4327903213816,None,1573.4327903213816,None,1573.4327903213816,None,1573.4327903213816,None,1574.4323187600567,None,1574.4323187600567,None,1575.4154689436764,None,1575.4154689436764,None,c,,,,,,,,,,,,,,,,,,,,,,,,,,,,,,,,,,,,,,,,,,,,,,,73_74Exp,001,2021_May_26_1527,ComputerHuman,2020.1.3,60.03612986823501,
Computer.xlsx,c,Sychronize.jpg,Number10.jpg,10,Computer,,,,,0,7,7,7,0,6,6,9,,,,,,,,,,,,,,,,,,,,,,,,,,,,,1576.481770144972,None,1576.481770144972,None,1576.9320419182732,None,1576.9320419182732,None,v,8.893278294322954,1576.9320419182732,None,t,9.192535280486481,1576.9320419182732,None,8.893278294322954,9.192535280486481,10.229637928038906,False,False,False,1586.1980657003623,None,1586.1980657003623,None,1586.1980657003623,None,1586.1980657003623,None,1586.1980657003623,None,1586.1980657003623,None,1586.1980657003623,None,1586.1980657003623,None,1587.196182342177,None,1587.196182342177,None,1588.179524679017,None,1588.179524679017,None,c,,,,,,,,,,,,,,,,,,,,,,,,,,,,,,,,,,,,,,,,,,,,,,,73_74Exp,001,2021_May_26_1527,ComputerHuman,2020.1.3,60.03612986823501,
Computer.xlsx,c,Sychronize.jpg,Number7.jpg,7,Computer,,,,,0,7,7,7,0,7,7,2,,,,,,,,,,,,,,,,,,,,,,,,,,,,,1589.230485701748,None,1589.230485701748,None,1589.6796042349415,None,1589.6796042349415,None,v,5.997369521868677,1589.6796042349415,None,t,6.412717527709901,1589.6796042349415,None,5.997369521868677,6.412717527709901,7.222409780369669,False,False,False,1596.1627646838424,None,1596.1627646838424,None,1596.1627646838424,None,1596.1627646838424,None,1596.1627646838424,None,1596.1627646838424,None,1596.1627646838424,None,1596.1627646838424,None,1597.1776092418331,None,1597.1776092418331,None,1598.1607767481146,None,1598.1607767481146,None,c,,,,,,,,,,,,,,,,,,,,,,,,,,,,,,,,,,,,,,,,,,,,,,,73_74Exp,001,2021_May_26_1527,ComputerHuman,2020.1.3,60.03612986823501,
Computer.xlsx,c,Sychronize.jpg,Number7.jpg,7,Computer,,,,,0,7,7,7,0,8,8,3,,,,,,,,,,,,,,,,,,,,,,,,,,,,,1599.1939874968884,None,1599.1939874968884,None,1599.6608412269052,None,1599.6608412269052,None,None,,1599.6608412269052,None,t,7.434731421766628,1599.6608412269052,None,13,7.434731421766628,6.924789922061077,False,False,False,1612.7250110993336,None,1612.7250110993336,None,1612.7250110993336,None,1612.7250110993336,None,1612.7250110993336,None,1612.7250110993336,None,1612.7250110993336,None,1612.7250110993336,None,1613.7408417658335,None,1613.7408417658335,None,1614.7239775139024,None,1614.7239775139024,None,c,,,,,,,,,,,,,,,,,,,,,,,,,,,,,,,,,,,,,,,,,,,,,,,73_74Exp,001,2021_May_26_1527,ComputerHuman,2020.1.3,60.03612986823501,
Computer.xlsx,c,Sychronize.jpg,Number9.jpg,9,Computer,,,,,0,7,7,7,0,9,9,7,,,,,,,,,,,,,,,,,,,,,,,,,,,,,1615.7741064073307,None,1615.7741064073307,None,1616.223925225131,None,1616.223925225131,None,v,8.791946181700041,1616.223925225131,None,t,8.819668213302066,1616.223925225131,None,8.791946181700041,8.819668213302066,9.050848049815976,False,True,True,1625.1054343753458,None,1625.1054343753458,None,1625.1054343753458,None,1625.1054343753458,None,1625.1054343753458,None,1625.1054343753458,None,1625.1054343753458,None,1625.1054343753458,None,1626.1214238329012,None,1626.1214238329012,None,1627.1214302487024,None,1627.1214302487024,None,c,,,,,,,,,,,,,,,,,,,,,,,,,,,,,,,,,,,,,,,,,,,,,,,73_74Exp,001,2021_May_26_1527,ComputerHuman,2020.1.3,60.03612986823501,
Computer.xlsx,c,,,,,,,,,0,7,7,7,,,,,,,,,,,,,,,,,,,,,,,,,,,,,,,,,,,,,,,,,,,,,,,,,,,,,,,,,,,,,,,,,,,,,,,,,,,,,,,c,1628.1216217603433,None,1628.1216217603433,None,a,1,5.225967695161671,1628.1216217603433,None,o,0,3.092786908175185,1628.1216217603433,None,c,h,1633.4373153853448,None,1633.4373153853448,None,1635.4196453088953,None,None,None,None,None,None,None,None,,,,,,,,,,,,,,,,,,73_74Exp,001,2021_May_26_1527,ComputerHuman,2020.1.3,60.03612986823501,
Computer.xlsx,c,Sychronize.jpg,Number6.jpg,6,Computer,,,,,0,8,8,5,0,0,0,0,,,,,,,,,,,,,,,,,,,,,,,,,1640.4214224855823,None,1640.4214224855823,None,1643.5190526814185,None,1643.5190526814185,None,1643.9518064327385,None,1643.9518064327385,None,v,5.007209755611257,1643.9518064327385,None,t,4.826727518393454,1643.9518064327385,None,5.007209755611257,4.826727518393454,6.158129119757799,False,False,False,1649.0341054321289,None,1649.0341054321289,None,1649.0341054321289,None,1649.0341054321289,None,1649.0341054321289,None,1649.0341054321289,None,1649.0341054321289,None,1649.0341054321289,None,1650.066704113553,None,1650.066704113553,None,1651.049911077007,None,1651.049911077007,None,c,,,,,,,,,,,,,,,,,,,,,,,,,,,,,,,,,,,,,,,,,,,,,,,73_74Exp,001,2021_May_26_1527,ComputerHuman,2020.1.3,60.03612986823501,
Computer.xlsx,c,Sychronize.jpg,Number10.jpg,10,Computer,,,,,0,8,8,5,0,1,1,9,,,,,,,,,,,,,,,,,,,,,,,,,,,,,1652.100289865859,None,1652.100289865859,None,1652.5330994346405,None,1652.5330994346405,None,v,7.033486307398562,1652.5330994346405,None,t,8.992605790132075,1652.5330994346405,None,7.033486307398562,8.992605790132075,9.834144710081233,False,False,False,1661.5981543667222,None,1661.5981543667222,None,1661.5981543667222,None,1661.5981543667222,None,1661.5981543667222,None,1661.5981543667222,None,1661.5981543667222,None,1661.5981543667222,None,1662.6139779758414,None,1662.6139779758414,None,1663.5972975365912,None,1663.5972975365912,None,c,,,,,,,,,,,,,,,,,,,,,,,,,,,,,,,,,,,,,,,,,,,,,,,73_74Exp,001,2021_May_26_1527,ComputerHuman,2020.1.3,60.03612986823501,
Computer.xlsx,c,Sychronize.jpg,Number8.jpg,8,Computer,,,,,0,8,8,5,0,2,2,4,,,,,,,,,,,,,,,,,,,,,,,,,,,,,1664.6471476634943,None,1664.6471476634943,None,1665.0971352168417,None,1665.0971352168417,None,v,5.185041304921469,1665.0971352168417,None,t,8.04467065130666,1665.0971352168417,None,5.185041304921469,8.04467065130666,7.9099352502765266,False,False,True,1673.2127726394356,None,1673.2127726394356,None,1673.2127726394356,None,1673.2127726394356,None,1673.2127726394356,None,1673.2127726394356,None,1673.2127726394356,None,1673.2127726394356,None,1674.2116495535884,None,1674.2116495535884,None,1675.1948488180824,None,1675.1948488180824,None,c,,,,,,,,,,,,,,,,,,,,,,,,,,,,,,,,,,,,,,,,,,,,,,,73_74Exp,001,2021_May_26_1527,ComputerHuman,2020.1.3,60.03612986823501,
Computer.xlsx,c,Sychronize.jpg,Number9.jpg,9,Computer,,,,,0,8,8,5,0,3,3,7,,,,,,,,,,,,,,,,,,,,,,,,,,,,,1676.2452985015261,None,1676.2452985015261,None,1676.711641213049,None,1676.711641213049,None,v,6.978040640246036,1676.711641213049,None,t,9.161620746646804,1676.711641213049,None,6.978040640246036,9.161620746646804,8.790203311352533,False,False,False,1685.9442701128937,None,1685.9442701128937,None,1685.9442701128937,None,1685.9442701128937,None,1685.9442701128937,None,1685.9442701128937,None,1685.9442701128937,None,1685.9442701128937,None,1686.9421910727979,None,1686.9421910727979,None,1687.9256463277234,None,1687.9256463277234,None,c,,,,,,,,,,,,,,,,,,,,,,,,,,,,,,,,,,,,,,,,,,,,,,,73_74Exp,001,2021_May_26_1527,ComputerHuman,2020.1.3,60.03612986823501,
Computer.xlsx,c,Sychronize.jpg,Number8.jpg,8,Computer,,,,,0,8,8,5,0,4,4,5,,,,,,,,,,,,,,,,,,,,,,,,,,,,,1688.9767093616792,None,1688.9767093616792,None,1689.4256402327155,None,1689.4256402327155,None,None,,1689.4256402327155,None,t,7.914536407100968,1689.4256402327155,None,13,7.914536407100968,7.404677824708441,False,False,False,1702.4896410488036,None,1702.4896410488036,None,1702.4896410488036,None,1702.4896410488036,None,1702.4896410488036,None,1702.4896410488036,None,1702.4896410488036,None,1702.4896410488036,None,1703.4890238488115,None,1703.4890238488115,None,1704.4720020889836,None,1704.4720020889836,None,c,,,,,,,,,,,,,,,,,,,,,,,,,,,,,,,,,,,,,,,,,,,,,,,73_74Exp,001,2021_May_26_1527,ComputerHuman,2020.1.3,60.03612986823501,
Computer.xlsx,c,Sychronize.jpg,Number6.jpg,6,Computer,,,,,0,8,8,5,0,5,5,1,,,,,,,,,,,,,,,,,,,,,,,,,,,,,1705.5220090822077,None,1705.5220090822077,None,1705.9724476663177,None,1705.9724476663177,None,v,4.476250952746341,1705.9724476663177,None,t,5.155800974174781,1705.9724476663177,None,4.476250952746341,5.155800974174781,5.813490882916663,False,False,False,1711.2053925443288,None,1711.2053925443288,None,1711.2053925443288,None,1711.2053925443288,None,1711.2053925443288,None,1711.2053925443288,None,1711.2053925443288,None,1711.2053925443288,None,1712.2205617418113,None,1712.2205617418113,None,1713.2038110495487,None,1713.2038110495487,None,c,,,,,,,,,,,,,,,,,,,,,,,,,,,,,,,,,,,,,,,,,,,,,,,73_74Exp,001,2021_May_26_1527,ComputerHuman,2020.1.3,60.03612986823501,
Computer.xlsx,c,Sychronize.jpg,Number10.jpg,10,Computer,,,,,0,8,8,5,0,6,6,8,,,,,,,,,,,,,,,,,,,,,,,,,,,,,1714.254352799726,None,1714.254352799726,None,1714.7036278784508,None,1714.7036278784508,None,v,8.012591008129675,1714.7036278784508,None,t,9.891574257759203,1714.7036278784508,None,8.012591008129675,9.891574257759203,10.359475255720987,False,False,False,1724.6847051169862,None,1724.6847051169862,None,1724.6847051169862,None,1724.6847051169862,None,1724.6847051169862,None,1724.6847051169862,None,1724.6847051169862,None,1724.6847051169862,None,1725.6677924257638,None,1725.6677924257638,None,1726.6509159838133,None,1726.6509159838133,None,c,,,,,,,,,,,,,,,,,,,,,,,,,,,,,,,,,,,,,,,,,,,,,,,73_74Exp,001,2021_May_26_1527,ComputerHuman,2020.1.3,60.03612986823501,
Computer.xlsx,c,Sychronize.jpg,Number7.jpg,7,Computer,,,,,0,8,8,5,0,7,7,2,,,,,,,,,,,,,,,,,,,,,,,,,,,,,1727.7182809248006,None,1727.7182809248006,None,1728.1676791868886,None,1728.1676791868886,None,v,6.560133050868899,1728.1676791868886,None,t,6.327792541247618,1728.1676791868886,None,6.560133050868899,6.327792541247618,6.817983855329253,False,True,False,1734.7994988618375,None,1734.7994988618375,None,1734.7994988618375,None,1734.7994988618375,None,1734.7994988618375,None,1734.7994988618375,None,1734.7994988618375,None,1734.7994988618375,None,1735.815468109624,None,1735.815468109624,None,1736.7822483787277,None,1736.7822483787277,None,c,,,,,,,,,,,,,,,,,,,,,,,,,,,,,,,,,,,,,,,,,,,,,,,73_74Exp,001,2021_May_26_1527,ComputerHuman,2020.1.3,60.03612986823501,
Computer.xlsx,c,Sychronize.jpg,Number7.jpg,7,Computer,,,,,0,8,8,5,0,8,8,3,,,,,,,,,,,,,,,,,,,,,,,,,,,,,1737.8322688451299,None,1737.8322688451299,None,1738.2822512658386,None,1738.2822512658386,None,v,6.157159519891138,1738.2822512658386,None,t,7.044677067107841,1738.2822512658386,None,6.157159519891138,7.044677067107841,6.919042660743847,False,False,True,1745.4137706813308,None,1745.4137706813308,None,1745.4137706813308,None,1745.4137706813308,None,1745.4137706813308,None,1745.4137706813308,None,1745.4137706813308,None,1745.4137706813308,None,1746.4135332967198,None,1746.4135332967198,None,1747.3966943872001,None,1747.3966943872001,None,c,,,,,,,,,,,,,,,,,,,,,,,,,,,,,,,,,,,,,,,,,,,,,,,73_74Exp,001,2021_May_26_1527,ComputerHuman,2020.1.3,60.03612986823501,
Computer.xlsx,c,Sychronize.jpg,Number9.jpg,9,Computer,,,,,0,8,8,5,0,9,9,6,,,,,,,,,,,,,,,,,,,,,,,,,,,,,1748.4464011209675,None,1748.4464011209675,None,1748.8969449242031,None,1748.8969449242031,None,v,7.601986524252425,1748.8969449242031,None,t,9.161585138950613,1748.8969449242031,None,7.601986524252425,9.161585138950613,8.943930035217871,False,False,True,1758.1118071898018,None,1758.1118071898018,None,1758.1118071898018,None,1758.1118071898018,None,1758.1118071898018,None,1758.1118071898018,None,1758.1118071898018,None,1758.1118071898018,None,1759.1274235685705,None,1759.1274235685705,None,1760.127383149029,None,1760.127383149029,None,c,,,,,,,,,,,,,,,,,,,,,,,,,,,,,,,,,,,,,,,,,,,,,,,73_74Exp,001,2021_May_26_1527,ComputerHuman,2020.1.3,60.03612986823501,
Computer.xlsx,c,,,,,,,,,0,8,8,5,,,,,,,,,,,,,,,,,,,,,,,,,,,,,,,,,,,,,,,,,,,,,,,,,,,,,,,,,,,,,,,,,,,,,,,,,,,,,,,c,1761.1275226926846,None,1761.1275226926846,None,a,1,3.5471384889024193,1761.1275226926846,None,o,0,1.6028218614555954,1761.1275226926846,None,c,h,1764.7435287030094,None,1764.7435287030094,None,1766.7593548784462,None,None,None,None,None,None,None,None,,,,,,,,,,,,,,,,,,73_74Exp,001,2021_May_26_1527,ComputerHuman,2020.1.3,60.03612986823501,
Human.xlsx,h,Sychronize.jpg,Number9.jpg,9,Human,,,,,0,9,9,6,0,0,0,6,,,,,,,,,,,,,,,,,,,,,,,,,1771.7444272358407,None,1771.7444272358407,None,1774.8084338261542,None,1774.8084338261542,None,1775.258069472853,None,1775.258069472853,None,v,7.999922689603409,1775.258069472853,None,t,8.759665403180406,1775.258069472853,None,7.999922689603409,8.759665403180406,9.066522705286467,False,False,False,1784.1058080957155,None,1784.1058080957155,None,1784.1058080957155,None,1784.1058080957155,None,1784.1058080957155,None,1784.1058080957155,None,1784.1058080957155,None,1784.1058080957155,None,1785.0909914464537,None,1785.0909914464537,None,1786.0887119126019,None,1786.0887119126019,None,h,,,,,,,,,,,,,,,,,,,,,,,,,,,,,,,,,,,,,,,,,,,,,,,73_74Exp,001,2021_May_26_1527,ComputerHuman,2020.1.3,60.03612986823501,
Human.xlsx,h,Sychronize.jpg,Number6.jpg,6,Human,,,,,0,9,9,6,0,1,1,1,,,,,,,,,,,,,,,,,,,,,,,,,,,,,1787.1222950985866,None,1787.1222950985866,None,1787.5718880802124,None,1787.5718880802124,None,v,5.701660473281663,1787.5718880802124,None,t,5.480777620665322,1787.5718880802124,None,5.701660473281663,5.480777620665322,5.970094385020918,True,False,False,1793.3384889635417,None,1793.3384889635417,None,1793.3384889635417,None,1793.3384889635417,None,1793.3384889635417,None,1793.3384889635417,None,1793.3384889635417,None,1793.3384889635417,None,1794.3562151782426,None,1794.3562151782426,None,1795.3534249466866,None,1795.3534249466866,None,h,,,,,,,,,,,,,,,,,,,,,,,,,,,,,,,,,,,,,,,,,,,,,,,73_74Exp,001,2021_May_26_1527,ComputerHuman,2020.1.3,60.03612986823501,
Human.xlsx,h,Sychronize.jpg,Number10.jpg,10,Human,,,,,0,9,9,6,0,2,2,9,,,,,,,,,,,,,,,,,,,,,,,,,,,,,1796.4036093367868,None,1796.4036093367868,None,1796.8531728057314,None,1796.8531728057314,None,v,10.047977354792238,1796.8531728057314,None,None,,1796.8531728057314,None,10.047977354792238,13,9.28042461182401,False,False,False,1809.9009243243527,None,1809.9009243243527,None,1809.9009243243527,None,1809.9009243243527,None,1809.9009243243527,None,1809.9009243243527,None,1809.9009243243527,None,1809.9009243243527,None,1810.9190095030826,None,1810.9190095030826,None,1811.9167800124742,None,1811.9167800124742,None,h,,,,,,,,,,,,,,,,,,,,,,,,,,,,,,,,,,,,,,,,,,,,,,,73_74Exp,001,2021_May_26_1527,ComputerHuman,2020.1.3,60.03612986823501,
Human.xlsx,h,Sychronize.jpg,Number9.jpg,9,Human,,,,,0,9,9,6,0,3,3,7,,,,,,,,,,,,,,,,,,,,,,,,,,,,,1812.9668845258602,None,1812.9668845258602,None,1813.416452485868,None,1813.416452485868,None,v,9.351973371864005,1813.416452485868,None,t,8.431535070048994,1813.416452485868,None,9.351973371864005,8.431535070048994,8.899655794274425,False,False,False,1822.8484761191066,None,1822.8484761191066,None,1822.8484761191066,None,1822.8484761191066,None,1822.8484761191066,None,1822.8484761191066,None,1822.8484761191066,None,1822.8484761191066,None,1823.8327628617553,None,1823.8327628617553,None,1824.8307033898527,None,1824.8307033898527,None,h,,,,,,,,,,,,,,,,,,,,,,,,,,,,,,,,,,,,,,,,,,,,,,,73_74Exp,001,2021_May_26_1527,ComputerHuman,2020.1.3,60.03612986823501,
Human.xlsx,h,Sychronize.jpg,Number8.jpg,8,Human,,,,,0,9,9,6,0,4,4,4,,,,,,,,,,,,,,,,,,,,,,,,,,,,,1825.8645037506758,None,1825.8645037506758,None,1826.330869879872,None,1826.330869879872,None,v,7.153293037830736,1826.330869879872,None,t,6.552739803366421,1826.330869879872,None,7.153293037830736,6.552739803366421,8.455415639268164,False,False,False,1833.5638186073593,None,1833.5638186073593,None,1833.5638186073593,None,1833.5638186073593,None,1833.5638186073593,None,1833.5638186073593,None,1833.5638186073593,None,1833.5638186073593,None,1834.5643985957104,None,1834.5643985957104,None,1835.545089603067,None,1835.545089603067,None,h,,,,,,,,,,,,,,,,,,,,,,,,,,,,,,,,,,,,,,,,,,,,,,,73_74Exp,001,2021_May_26_1527,ComputerHuman,2020.1.3,60.03612986823501,
Human.xlsx,h,Sychronize.jpg,Number10.jpg,10,Human,,,,,0,9,9,6,0,5,5,8,,,,,,,,,,,,,,,,,,,,,,,,,,,,,1836.6124189363618,None,1836.6124189363618,None,1837.045225618036,None,1837.045225618036,None,v,9.734321067178826,1837.045225618036,None,None,,1837.045225618036,None,9.734321067178826,13,9.439833689976577,False,False,False,1850.1091975630225,None,1850.1091975630225,None,1850.1091975630225,None,1850.1091975630225,None,1850.1091975630225,None,1850.1091975630225,None,1850.1091975630225,None,1850.1091975630225,None,1851.1111258318087,None,1851.1111258318087,None,1852.1084193264433,None,1852.1084193264433,None,h,,,,,,,,,,,,,,,,,,,,,,,,,,,,,,,,,,,,,,,,,,,,,,,73_74Exp,001,2021_May_26_1527,ComputerHuman,2020.1.3,60.03612986823501,
Human.xlsx,h,Sychronize.jpg,Number8.jpg,8,Human,,,,,0,9,9,6,0,6,6,5,,,,,,,,,,,,,,,,,,,,,,,,,,,,,1853.1582954373407,None,1853.1582954373407,None,1853.5921578389534,None,1853.5921578389534,None,v,8.25515188765712,1853.5921578389534,None,t,6.578726040195761,1853.5921578389534,None,8.25515188765712,6.578726040195761,8.206609429047948,False,False,False,1861.9248494853236,None,1861.9248494853236,None,1861.9248494853236,None,1861.9248494853236,None,1861.9248494853236,None,1861.9248494853236,None,1861.9248494853236,None,1861.9248494853236,None,1862.9243570726503,None,1862.9243570726503,None,1863.9226876814064,None,1863.9226876814064,None,h,,,,,,,,,,,,,,,,,,,,,,,,,,,,,,,,,,,,,,,,,,,,,,,73_74Exp,001,2021_May_26_1527,ComputerHuman,2020.1.3,60.03612986823501,
Human.xlsx,h,Sychronize.jpg,Number6.jpg,6,Human,,,,,0,9,9,6,0,7,7,0,,,,,,,,,,,,,,,,,,,,,,,,,,,,,1864.9729179444803,None,1864.9729179444803,None,1865.4228217716336,None,1865.4228217716336,None,v,5.907830291816936,1865.4228217716336,None,t,4.518815296807588,1865.4228217716336,None,5.907830291816936,4.518815296807588,5.822904138341388,False,False,False,1871.4048828731502,None,1871.4048828731502,None,1871.4048828731502,None,1871.4048828731502,None,1871.4048828731502,None,1871.4048828731502,None,1871.4048828731502,None,1871.4048828731502,None,1872.3899635710877,None,1872.3899635710877,None,1873.3873677382762,None,1873.3873677382762,None,h,,,,,,,,,,,,,,,,,,,,,,,,,,,,,,,,,,,,,,,,,,,,,,,73_74Exp,001,2021_May_26_1527,ComputerHuman,2020.1.3,60.03612986823501,
Human.xlsx,h,Sychronize.jpg,Number7.jpg,7,Human,,,,,0,9,9,6,0,8,8,3,,,,,,,,,,,,,,,,,,,,,,,,,,,,,1874.437576187629,None,1874.437576187629,None,1874.8875201135343,None,1874.8875201135343,None,None,,1874.8875201135343,None,t,6.5456955754088995,1874.8875201135343,None,13,6.5456955754088995,7.0482993883284655,False,False,False,1887.9677670191923,None,1887.9677670191923,None,1887.9677670191923,None,1887.9677670191923,None,1887.9677670191923,None,1887.9677670191923,None,1887.9677670191923,None,1887.9677670191923,None,1888.9360415281917,None,1888.9360415281917,None,1889.9339663375795,None,1889.9339663375795,None,h,,,,,,,,,,,,,,,,,,,,,,,,,,,,,,,,,,,,,,,,,,,,,,,73_74Exp,001,2021_May_26_1527,ComputerHuman,2020.1.3,60.03612986823501,
Human.xlsx,h,Sychronize.jpg,Number7.jpg,7,Human,,,,,0,9,9,6,0,9,9,2,,,,,,,,,,,,,,,,,,,,,,,,,,,,,1890.9840047682228,None,1890.9840047682228,None,1891.4337652022405,None,1891.4337652022405,None,v,5.907976251273794,1891.4337652022405,None,t,6.7066859696715255,1891.4337652022405,None,5.907976251273794,6.7066859696715255,7.206492279026622,False,False,False,1898.2321900591014,None,1898.2321900591014,None,1898.2321900591014,None,1898.2321900591014,None,1898.2321900591014,None,1898.2321900591014,None,1898.2321900591014,None,1898.2321900591014,None,1899.2168944703517,None,1899.2168944703517,None,1900.21525330863,None,1900.21525330863,None,h,,,,,,,,,,,,,,,,,,,,,,,,,,,,,,,,,,,,,,,,,,,,,,,73_74Exp,001,2021_May_26_1527,ComputerHuman,2020.1.3,60.03612986823501,
Human.xlsx,h,,,,,,,,,0,9,9,6,,,,,,,,,,,,,,,,,,,,,,,,,,,,,,,,,,,,,,,,,,,,,,,,,,,,,,,,,,,,,,,,,,,,,,,,,,,,,,,h,1901.2153950978172,None,1901.2153950978172,None,a,0,2.8100502870402124,1901.2153950978172,None,l,0,2.461896241107752,1901.2153950978172,None,c,c,1904.0982015228547,None,1904.0982015228547,None,None,None,1906.0972943286906,None,1906.0972943286906,None,"['space', 'space']",1907.0804640805,None,"[102.7570564179805, 110.99667436990421]",,,,,,,,,,,,,,,,,73_74Exp,001,2021_May_26_1527,ComputerHuman,2020.1.3,60.03612986823501,
Human.xlsx,h,Sychronize.jpg,Number8.jpg,8,Human,,,,,1,0,10,6,0,0,0,5,,,,,,,,,,,,,,,,,,,,,,,,,2018.1436019714456,None,2018.1436019714456,None,2021.2072107821368,None,2021.2072107821368,None,2021.640693368372,None,2021.640693368372,None,v,9.695978319727146,2021.640693368372,None,t,7.391646114720061,2021.640693368372,None,9.695978319727146,7.391646114720061,7.862896747923102,False,False,False,2031.4063953980767,None,2031.4063953980767,None,2031.4063953980767,None,2031.4063953980767,None,2031.4063953980767,None,2031.4063953980767,None,2031.4063953980767,None,2031.4063953980767,None,2032.4232968616489,None,2032.4232968616489,None,2033.420919486838,None,2033.420919486838,None,h,,,,,,,,,,,,,,,,,,,,,,,,,,,,,,,,,,,,,,,,,,,,,,,73_74Exp,001,2021_May_26_1527,ComputerHuman,2020.1.3,60.03612986823501,
Human.xlsx,h,Sychronize.jpg,Number10.jpg,10,Human,,,,,1,0,10,6,0,1,1,9,,,,,,,,,,,,,,,,,,,,,,,,,,,,,2034.4718083318148,None,2034.4718083318148,None,2034.9213230406785,None,2034.9213230406785,None,v,8.762883889412478,2034.9213230406785,None,t,10.59853771078997,2034.9213230406785,None,8.762883889412478,10.59853771078997,10.090411355644095,False,False,False,2045.5856871835422,None,2045.5856871835422,None,2045.5856871835422,None,2045.5856871835422,None,2045.5856871835422,None,2045.5856871835422,None,2045.5856871835422,None,2045.5856871835422,None,2046.5877886789349,None,2046.5877886789349,None,2047.584797632826,None,2047.584797632826,None,h,,,,,,,,,,,,,,,,,,,,,,,,,,,,,,,,,,,,,,,,,,,,,,,73_74Exp,001,2021_May_26_1527,ComputerHuman,2020.1.3,60.03612986823501,
Human.xlsx,h,Sychronize.jpg,Number10.jpg,10,Human,,,,,1,0,10,6,0,2,2,8,,,,,,,,,,,,,,,,,,,,,,,,,,,,,2048.6348899561926,None,2048.6348899561926,None,2049.0847491935347,None,2049.0847491935347,None,v,9.52296439487327,2049.0847491935347,None,t,8.770794891996047,2049.0847491935347,None,9.52296439487327,8.770794891996047,10.035905864547649,False,False,False,2058.666487772767,None,2058.666487772767,None,2058.666487772767,None,2058.666487772767,None,2058.666487772767,None,2058.666487772767,None,2058.666487772767,None,2058.666487772767,None,2059.6680538696273,None,2059.6680538696273,None,2060.682144250288,None,2060.682144250288,None,h,,,,,,,,,,,,,,,,,,,,,,,,,,,,,,,,,,,,,,,,,,,,,,,73_74Exp,001,2021_May_26_1527,ComputerHuman,2020.1.3,60.03612986823501,
Human.xlsx,h,Sychronize.jpg,Number7.jpg,7,Human,,,,,1,0,10,6,0,3,3,3,,,,,,,,,,,,,,,,,,,,,,,,,,,,,2061.7325233599295,None,2061.7325233599295,None,2062.1822427328225,None,2062.1822427328225,None,v,6.649032946417719,2062.1822427328225,None,t,7.428676831008488,2062.1822427328225,None,6.649032946417719,7.428676831008488,7.486536536357531,False,False,False,2069.696975014307,None,2069.696975014307,None,2069.696975014307,None,2069.696975014307,None,2069.696975014307,None,2069.696975014307,None,2069.696975014307,None,2069.696975014307,None,2070.665592127043,None,2070.665592127043,None,2071.6626289896667,None,2071.6626289896667,None,h,,,,,,,,,,,,,,,,,,,,,,,,,,,,,,,,,,,,,,,,,,,,,,,73_74Exp,001,2021_May_26_1527,ComputerHuman,2020.1.3,60.03612986823501,
Human.xlsx,h,Sychronize.jpg,Number9.jpg,9,Human,,,,,1,0,10,6,0,4,4,7,,,,,,,,,,,,,,,,,,,,,,,,,,,,,2072.7130273467083,None,2072.7130273467083,None,2073.1631749742737,None,2073.1631749742737,None,v,9.343584712943994,2073.1631749742737,None,t,8.794615154634812,2073.1631749742737,None,9.343584712943994,8.794615154634812,9.5328099412313,False,False,False,2082.578786027927,None,2082.578786027927,None,2082.578786027927,None,2082.578786027927,None,2082.578786027927,None,2082.578786027927,None,2082.578786027927,None,2082.578786027927,None,2083.5789878048454,None,2083.5789878048454,None,2084.5772378953116,None,2084.5772378953116,None,h,,,,,,,,,,,,,,,,,,,,,,,,,,,,,,,,,,,,,,,,,,,,,,,73_74Exp,001,2021_May_26_1527,ComputerHuman,2020.1.3,60.03612986823501,
Human.xlsx,h,Sychronize.jpg,Number6.jpg,6,Human,,,,,1,0,10,6,0,5,5,0,,,,,,,,,,,,,,,,,,,,,,,,,,,,,2085.6108018338928,None,2085.6108018338928,None,2086.0603909660385,None,2086.0603909660385,None,v,5.7060735815321095,2086.0603909660385,None,t,5.365742962509103,2086.0603909660385,None,5.7060735815321095,5.365742962509103,5.632860210587506,False,False,False,2091.8431927075435,None,2091.8431927075435,None,2091.8431927075435,None,2091.8431927075435,None,2091.8431927075435,None,2091.8431927075435,None,2091.8431927075435,None,2091.8431927075435,None,2092.8277518009163,None,2092.8277518009163,None,2093.8419679312647,None,2093.8419679312647,None,h,,,,,,,,,,,,,,,,,,,,,,,,,,,,,,,,,,,,,,,,,,,,,,,73_74Exp,001,2021_May_26_1527,ComputerHuman,2020.1.3,60.03612986823501,
Human.xlsx,h,Sychronize.jpg,Number8.jpg,8,Human,,,,,1,0,10,6,0,6,6,4,,,,,,,,,,,,,,,,,,,,,,,,,,,,,2094.892376874377,None,2094.892376874377,None,2095.3421148530906,None,2095.3421148530906,None,v,7.159934674320539,2095.3421148530906,None,None,,2095.3421148530906,None,7.159934674320539,13,8.365001529058068,False,False,False,2108.406215434876,None,2108.406215434876,None,2108.406215434876,None,2108.406215434876,None,2108.406215434876,None,2108.406215434876,None,2108.406215434876,None,2108.406215434876,None,2109.391293566492,None,2109.391293566492,None,2110.405245365866,None,2110.405245365866,None,h,,,,,,,,,,,,,,,,,,,,,,,,,,,,,,,,,,,,,,,,,,,,,,,73_74Exp,001,2021_May_26_1527,ComputerHuman,2020.1.3,60.03612986823501,
Human.xlsx,h,Sychronize.jpg,Number9.jpg,9,Human,,,,,1,0,10,6,0,7,7,6,,,,,,,,,,,,,,,,,,,,,,,,,,,,,2111.456118812923,None,2111.456118812923,None,2111.9053467355116,None,2111.9053467355116,None,v,8.256027644401911,2111.9053467355116,None,t,9.111608620780316,2111.9053467355116,None,8.256027644401911,9.111608620780316,8.954792225628768,False,False,False,2121.087180781855,None,2121.087180781855,None,2121.087180781855,None,2121.087180781855,None,2121.087180781855,None,2121.087180781855,None,2121.087180781855,None,2121.087180781855,None,2122.071714853606,None,2122.071714853606,None,2123.0692730000046,None,2123.0692730000046,None,h,,,,,,,,,,,,,,,,,,,,,,,,,,,,,,,,,,,,,,,,,,,,,,,73_74Exp,001,2021_May_26_1527,ComputerHuman,2020.1.3,60.03612986823501,
Human.xlsx,h,Sychronize.jpg,Number6.jpg,6,Human,,,,,1,0,10,6,0,8,8,1,,,,,,,,,,,,,,,,,,,,,,,,,,,,,2124.1191311466573,None,2124.1191311466573,None,2124.5692980216227,None,2124.5692980216227,None,v,6.1956331496694474,2124.5692980216227,None,t,5.134742713576998,2124.5692980216227,None,6.1956331496694474,5.134742713576998,5.786694089003315,False,False,False,2130.834607083558,None,2130.834607083558,None,2130.834607083558,None,2130.834607083558,None,2130.834607083558,None,2130.834607083558,None,2130.834607083558,None,2130.834607083558,None,2131.836244716589,None,2131.836244716589,None,2132.8340203586195,None,2132.8340203586195,None,h,,,,,,,,,,,,,,,,,,,,,,,,,,,,,,,,,,,,,,,,,,,,,,,73_74Exp,001,2021_May_26_1527,ComputerHuman,2020.1.3,60.03612986823501,
Human.xlsx,h,Sychronize.jpg,Number7.jpg,7,Human,,,,,1,0,10,6,0,9,9,2,,,,,,,,,,,,,,,,,,,,,,,,,,,,,2133.8680542545735,None,2133.8680542545735,None,2134.333944652175,None,2134.333944652175,None,v,6.714632259154314,2134.333944652175,None,t,6.94966548017328,2134.333944652175,None,6.714632259154314,6.94966548017328,6.668497286557922,True,False,False,2141.3491106417605,None,2141.3491106417605,None,2141.3491106417605,None,2141.3491106417605,None,2141.3491106417605,None,2141.3491106417605,None,2141.3491106417605,None,2141.3491106417605,None,2142.3508980837287,None,2142.3508980837287,None,2143.348409073995,None,2143.348409073995,None,h,,,,,,,,,,,,,,,,,,,,,,,,,,,,,,,,,,,,,,,,,,,,,,,73_74Exp,001,2021_May_26_1527,ComputerHuman,2020.1.3,60.03612986823501,
Human.xlsx,h,,,,,,,,,1,0,10,6,,,,,,,,,,,,,,,,,,,,,,,,,,,,,,,,,,,,,,,,,,,,,,,,,,,,,,,,,,,,,,,,,,,,,,,,,,,,,,,h,2144.365355448168,None,2144.365355448168,None,q,1,3.0989970820919552,2144.365355448168,None,l,0,2.3418710526784707,2144.365355448168,None,h,c,2147.531352412214,None,2147.531352412214,None,2149.547200401372,None,None,None,None,None,None,None,None,,,,,,,,,,,,,,,,,,73_74Exp,001,2021_May_26_1527,ComputerHuman,2020.1.3,60.03612986823501,
Computer.xlsx,c,Sychronize.jpg,Number8.jpg,8,Computer,,,,,1,1,11,9,0,0,0,5,,,,,,,,,,,,,,,,,,,,,,,,,2154.532070019479,None,2154.532070019479,None,2157.6123114717084,None,2157.6123114717084,None,2158.0458922196885,None,2158.0458922196885,None,v,6.757818294270692,2158.0458922196885,None,t,7.700617905727995,2158.0458922196885,None,6.757818294270692,7.700617905727995,8.072811143381475,False,False,False,2165.8437444663723,None,2165.8437444663723,None,2165.8437444663723,None,2165.8437444663723,None,2165.8437444663723,None,2165.8437444663723,None,2165.8437444663723,None,2165.8437444663723,None,2166.8602388474137,None,2166.8602388474137,None,2167.843382615236,None,2167.843382615236,None,c,,,,,,,,,,,,,,,,,,,,,,,,,,,,,,,,,,,,,,,,,,,,,,,73_74Exp,001,2021_May_26_1527,ComputerHuman,2020.1.3,60.03612986823501,
Computer.xlsx,c,Sychronize.jpg,Number10.jpg,10,Computer,,,,,1,1,11,9,0,1,1,9,,,,,,,,,,,,,,,,,,,,,,,,,,,,,2168.893693717393,None,2168.893693717393,None,2169.3266271111206,None,2169.3266271111206,None,v,9.184524512209464,2169.3266271111206,None,None,,2169.3266271111206,None,9.184524512209464,13,9.894594332164546,False,False,False,2182.3919944926784,None,2182.3919944926784,None,2182.3919944926784,None,2182.3919944926784,None,2182.3919944926784,None,2182.3919944926784,None,2182.3919944926784,None,2182.3919944926784,None,2183.4068169161546,None,2183.4068169161546,None,2184.3900068777366,None,2184.3900068777366,None,c,,,,,,,,,,,,,,,,,,,,,,,,,,,,,,,,,,,,,,,,,,,,,,,73_74Exp,001,2021_May_26_1527,ComputerHuman,2020.1.3,60.03612986823501,
Computer.xlsx,c,Sychronize.jpg,Number6.jpg,6,Computer,,,,,1,1,11,9,0,2,2,0,,,,,,,,,,,,,,,,,,,,,,,,,,,,,2185.4400770665925,None,2185.4400770665925,None,2185.873460207924,None,2185.873460207924,None,v,6.041187834103766,2185.873460207924,None,t,5.060770460626372,2185.873460207924,None,6.041187834103766,5.060770460626372,5.982465269368372,False,True,False,2191.9717903675737,None,2191.9717903675737,None,2191.9717903675737,None,2191.9717903675737,None,2191.9717903675737,None,2191.9717903675737,None,2191.9717903675737,None,2191.9717903675737,None,2192.988094199347,None,2192.988094199347,None,2193.988064686666,None,2193.988064686666,None,c,,,,,,,,,,,,,,,,,,,,,,,,,,,,,,,,,,,,,,,,,,,,,,,73_74Exp,001,2021_May_26_1527,ComputerHuman,2020.1.3,60.03612986823501,
Computer.xlsx,c,Sychronize.jpg,Number7.jpg,7,Computer,,,,,1,1,11,9,0,3,3,3,,,,,,,,,,,,,,,,,,,,,,,,,,,,,2195.0377075832184,None,2195.0377075832184,None,2195.488201022421,None,2195.488201022421,None,v,5.898195042896987,2195.488201022421,None,t,6.321887438632984,2195.488201022421,None,5.898195042896987,6.321887438632984,7.184322820622346,False,False,False,2201.8878075413886,None,2201.8878075413886,None,2201.8878075413886,None,2201.8878075413886,None,2201.8878075413886,None,2201.8878075413886,None,2201.8878075413886,None,2201.8878075413886,None,2202.8861545104373,None,2202.8861545104373,None,2203.8693216959255,None,2203.8693216959255,None,c,,,,,,,,,,,,,,,,,,,,,,,,,,,,,,,,,,,,,,,,,,,,,,,73_74Exp,001,2021_May_26_1527,ComputerHuman,2020.1.3,60.03612986823501,
Computer.xlsx,c,Sychronize.jpg,Number10.jpg,10,Computer,,,,,1,1,11,9,0,4,4,8,,,,,,,,,,,,,,,,,,,,,,,,,,,,,2204.9191038153476,None,2204.9191038153476,None,2205.3691192774277,None,2205.3691192774277,None,v,9.340713321507792,2205.3691192774277,None,t,10.419606172516069,2205.3691192774277,None,9.340713321507792,10.419606172516069,9.3799424956244,False,True,False,2215.868085050417,None,2215.868085050417,None,2215.868085050417,None,2215.868085050417,None,2215.868085050417,None,2215.868085050417,None,2215.868085050417,None,2215.868085050417,None,2216.8832908179647,None,2216.8832908179647,None,2217.866467306365,None,2217.866467306365,None,c,,,,,,,,,,,,,,,,,,,,,,,,,,,,,,,,,,,,,,,,,,,,,,,73_74Exp,001,2021_May_26_1527,ComputerHuman,2020.1.3,60.03612986823501,
Computer.xlsx,c,Sychronize.jpg,Number6.jpg,6,Computer,,,,,1,1,11,9,0,5,5,1,,,,,,,,,,,,,,,,,,,,,,,,,,,,,2218.9001345393335,None,2218.9001345393335,None,2219.349847817215,None,2219.349847817215,None,v,6.891541537173907,2219.349847817215,None,t,5.506727287422109,2219.349847817215,None,6.891541537173907,5.506727287422109,5.5632201366577885,False,False,True,2226.314562840198,None,2226.314562840198,None,2226.314562840198,None,2226.314562840198,None,2226.314562840198,None,2226.314562840198,None,2226.314562840198,None,2226.314562840198,None,2227.3311162466016,None,2227.3311162466016,None,2228.3143116616156,None,2228.3143116616156,None,c,,,,,,,,,,,,,,,,,,,,,,,,,,,,,,,,,,,,,,,,,,,,,,,73_74Exp,001,2021_May_26_1527,ComputerHuman,2020.1.3,60.03612986823501,
Computer.xlsx,c,Sychronize.jpg,Number9.jpg,9,Computer,,,,,1,1,11,9,0,6,6,7,,,,,,,,,,,,,,,,,,,,,,,,,,,,,2229.3644209868544,None,2229.3644209868544,None,2229.814257127313,None,2229.814257127313,None,v,8.650674428929051,2229.814257127313,None,t,8.925595963690284,2229.814257127313,None,8.650674428929051,8.925595963690284,9.580652839043793,False,False,False,2238.812878371824,None,2238.812878371824,None,2238.812878371824,None,2238.812878371824,None,2238.812878371824,None,2238.812878371824,None,2238.812878371824,None,2238.812878371824,None,2239.811892904894,None,2239.811892904894,None,2240.79495519205,None,2240.79495519205,None,c,,,,,,,,,,,,,,,,,,,,,,,,,,,,,,,,,,,,,,,,,,,,,,,73_74Exp,001,2021_May_26_1527,ComputerHuman,2020.1.3,60.03612986823501,
Computer.xlsx,c,Sychronize.jpg,Number9.jpg,9,Computer,,,,,1,1,11,9,0,7,7,6,,,,,,,,,,,,,,,,,,,,,,,,,,,,,2241.844898668849,None,2241.844898668849,None,2242.2950578448545,None,2242.2950578448545,None,v,7.237464809335506,2242.2950578448545,None,None,,2242.2950578448545,None,7.237464809335506,13,9.486795573922475,False,False,False,2255.360199390241,None,2255.360199390241,None,2255.360199390241,None,2255.360199390241,None,2255.360199390241,None,2255.360199390241,None,2255.360199390241,None,2255.360199390241,None,2256.358240325615,None,2256.358240325615,None,2257.3416041553864,None,2257.3416041553864,None,c,,,,,,,,,,,,,,,,,,,,,,,,,,,,,,,,,,,,,,,,,,,,,,,73_74Exp,001,2021_May_26_1527,ComputerHuman,2020.1.3,60.03612986823501,
Computer.xlsx,c,Sychronize.jpg,Number8.jpg,8,Computer,,,,,1,1,11,9,0,8,8,4,,,,,,,,,,,,,,,,,,,,,,,,,,,,,2258.391398464828,None,2258.391398464828,None,2258.8417706454056,None,2258.8417706454056,None,v,7.262166602933576,2258.8417706454056,None,t,7.957632941797783,2258.8417706454056,None,7.262166602933576,7.957632941797783,7.785478605370764,False,False,True,2266.874641677554,None,2266.874641677554,None,2266.874641677554,None,2266.874641677554,None,2266.874641677554,None,2266.874641677554,None,2266.874641677554,None,2266.874641677554,None,2267.88941084989,None,2267.88941084989,None,2268.8558940674375,None,2268.8558940674375,None,c,,,,,,,,,,,,,,,,,,,,,,,,,,,,,,,,,,,,,,,,,,,,,,,73_74Exp,001,2021_May_26_1527,ComputerHuman,2020.1.3,60.03612986823501,
Computer.xlsx,c,Sychronize.jpg,Number7.jpg,7,Computer,,,,,1,1,11,9,0,9,9,2,,,,,,,,,,,,,,,,,,,,,,,,,,,,,2269.922766916541,None,2269.922766916541,None,2270.355755486151,None,2270.355755486151,None,v,6.195764352785773,2270.355755486151,None,t,6.758716827102035,2270.355755486151,None,6.195764352785773,6.758716827102035,7.207113107816352,False,False,False,2277.1893033210763,None,2277.1893033210763,None,2277.1893033210763,None,2277.1893033210763,None,2277.1893033210763,None,2277.1893033210763,None,2277.1893033210763,None,2277.1893033210763,None,2278.203983313786,None,2278.203983313786,None,2279.1871594813965,None,2279.1871594813965,None,c,,,,,,,,,,,,,,,,,,,,,,,,,,,,,,,,,,,,,,,,,,,,,,,73_74Exp,001,2021_May_26_1527,ComputerHuman,2020.1.3,60.03612986823501,
Computer.xlsx,c,,,,,,,,,1,1,11,9,,,,,,,,,,,,,,,,,,,,,,,,,,,,,,,,,,,,,,,,,,,,,,,,,,,,,,,,,,,,,,,,,,,,,,,,,,,,,,,c,2280.188363406327,None,2280.188363406327,None,a,0,4.214872530879802,2280.188363406327,None,o,0,17.001815671490476,2280.188363406327,None,c,h,2297.2844323171557,None,2297.2844323171557,None,2299.2829948570943,None,None,None,None,None,None,None,None,,,,,,,,,,,,,,,,,,73_74Exp,001,2021_May_26_1527,ComputerHuman,2020.1.3,60.03612986823501,
