Condition,CorrectTuringReply,Sychronize,NumberImage,Number,Partner,trials.thisRepN,trials.thisTrialN,trials.thisN,trials.thisIndex,Block.thisRepN,Block.thisTrialN,Block.thisN,Block.thisIndex,trials_loop.thisRepN,trials_loop.thisTrialN,trials_loop.thisN,trials_loop.thisIndex,key_resp_Istr.keys,key_resp_Istr.rt,key_resp_Istr.started,key_resp_Istr.stopped,key_respPrLeft.keys,key_respPrLeft.rt,key_respPrRight.keys,key_respPrRight.rt,RTPrLeft,RTPrRight,CompPr,SychronizedRTsPr,SychronizedRTsLeftCPr,SychronizedRTsRightCPr,CreditLeftPr.started,CreditLeftPr.stopped,CreditRightPr.started,CreditRightPr.stopped,text_StartExp.started,text_StartExp.stopped,key_startExp.keys,key_startExp.rt,key_startExp.started,key_startExp.stopped,SychroLeft.started,SychroLeft.stopped,SychroRight.started,SychroRight.stopped,NumberLeft.started,NumberLeft.stopped,NumberRight.started,NumberRight.stopped,CrossLeft.started,CrossLeft.stopped,CrossRight.started,CrossRight.stopped,key_respLeft.keys,key_respLeft.rt,key_respLeft.started,key_respLeft.stopped,key_respRight.keys,key_respRight.rt,key_respRight.started,key_respRight.stopped,RTLeft,RTRight,Comp,SychronizedRTs,SychronizedRTsLeftC,SychronizedRTsRightC,FeedbackLeftLeft.started,FeedbackLeftLeft.stopped,FeedbackLeftRight.started,FeedbackLeftRight.stopped,FeedbackRightLeft.started,FeedbackRightLeft.stopped,FeedbackRightRight.started,FeedbackRightRight.stopped,textLeftLeft.started,textLeftLeft.stopped,textLeftRight.started,textLeftRight.stopped,textRightLeft.started,textRightLeft.stopped,textRightRight.started,textRightRight.stopped,CreditLeft.started,CreditLeft.stopped,CreditRight.started,CreditRight.stopped,BlankLeft.started,BlankLeft.stopped,BlankRight.started,BlankRight.stopped,CorrectTuringReply,TuringtextLeft.started,TuringtextLeft.stopped,TuringtextRight.started,TuringtextRight.stopped,keyTuringLeft.keys,keyTuringLeft.corr,keyTuringLeft.rt,keyTuringLeft.started,keyTuringLeft.stopped,keyTuringRight.keys,keyTuringRight.corr,keyTuringRight.rt,keyTuringRight.started,keyTuringRight.stopped,RespTuringLeft,RespTuringRight,ScoreLeft.started,ScoreLeft.stopped,ScoreRight.started,ScoreRight.stopped,BlockText.started,BlockText.stopped,text_Pause.started,text_Pause.stopped,text_LongPause.started,text_LongPause.stopped,key_respPause.keys,key_respPause.started,key_respPause.stopped,key_respPause.rt,QuestImageLeft.started,QuestImageLeft.stopped,QuestImageRight.started,QuestImageRight.stopped,respQuestLeft.keys,respQuestLeft.rt,respQuestLeft.started,respQuestLeft.stopped,respQuestRight.keys,respQuestRight.rt,respQuestRight.started,respQuestRight.stopped,RespInclusionLeft,RespInclusionRight,EndText.started,EndText.stopped,participant,session,date,expName,psychopyVersion,frameRate,
,,,,,,,,,,,,,,,,,,"['v', 't']","[271.7687946661431, 271.92081529685674]",21.353224944455064,None,,,,,,,,,,,,,,,,,,,,,,,,,,,,,,,,,,,,,,,,,,,,,,,,,,,,,,,,,,,,,,,,,,,,,,,,,,,,,,,,,,,,,,,,,,,,,,,,,,,,,,,,,,,,,,,,,,,,,,75_76Exp,001,2021_May_27_1039,ComputerHuman,2020.1.3,60.01559449685405,
,,,,,,,,,,,,,,,,,,,,,,v,7.717990667546928,t,5.597345325785909,7.717990667546928,5.597345325785909,9,False,False,False,352.51935717324056,None,352.51935717324056,None,353.5190986156582,None,"['space', 'space']","[87.07446297975093, 94.80221852670934]",354.5022849946139,None,,,,,,,,,,,,,,,,,,,,,,,,,,,,,,,,,,,,,,,,,,,,,,,,,,,,,,,,,,,,,,,,,,,,,,,,,,,,,,,,,,,,,,,,,,,,,,,,,,75_76Exp,001,2021_May_27_1039,ComputerHuman,2020.1.3,60.01559449685405,
Human.xlsx,h,Sychronize.jpg,Number6.jpg,6,Human,,,,,0,0,0,8,0,0,0,1,,,,,,,,,,,,,,,,,,,,,,,,,449.38606304057305,None,449.38606304057305,None,452.4327686127775,None,452.4327686127775,None,452.86589362440634,None,452.86589362440634,None,v,5.474316827350776,452.86589362440634,None,t,5.397412627746917,452.86589362440634,None,5.474316827350776,5.397412627746917,5.8386521610243065,True,False,False,458.4477617446413,None,458.4477617446413,None,458.4477617446413,None,458.4477617446413,None,458.4477617446413,None,458.4477617446413,None,458.4477617446413,None,458.4477617446413,None,459.43270766247895,None,459.43270766247895,None,460.4307710469401,None,460.4307710469401,None,h,,,,,,,,,,,,,,,,,,,,,,,,,,,,,,,,,,,,,,,,,,,,,,,75_76Exp,001,2021_May_27_1039,ComputerHuman,2020.1.3,60.01559449685405,
Human.xlsx,h,Sychronize.jpg,Number9.jpg,9,Human,,,,,0,0,0,8,0,1,1,7,,,,,,,,,,,,,,,,,,,,,,,,,,,,,461.480583801207,None,461.480583801207,None,461.930692773925,None,461.930692773925,None,v,8.757081622715077,461.930692773925,None,t,8.312249021106027,461.930692773925,None,8.757081622715077,8.312249021106027,9.533382538119005,False,False,False,470.7786407056889,None,470.7786407056889,None,470.7786407056889,None,470.7786407056889,None,470.7786407056889,None,470.7786407056889,None,470.7786407056889,None,470.7786407056889,None,471.7475172377068,None,471.7475172377068,None,472.7449210757792,None,472.7449210757792,None,h,,,,,,,,,,,,,,,,,,,,,,,,,,,,,,,,,,,,,,,,,,,,,,,75_76Exp,001,2021_May_27_1039,ComputerHuman,2020.1.3,60.01559449685405,
Human.xlsx,h,Sychronize.jpg,Number9.jpg,9,Human,,,,,0,0,0,8,0,2,2,6,,,,,,,,,,,,,,,,,,,,,,,,,,,,,473.79508734177773,None,473.79508734177773,None,474.24476035946566,None,474.24476035946566,None,v,9.222598830909192,474.24476035946566,None,t,7.466267538448392,474.24476035946566,None,9.222598830909192,7.466267538448392,8.756071204753649,False,False,False,483.5441928159486,None,483.5441928159486,None,483.5441928159486,None,483.5441928159486,None,483.5441928159486,None,483.5441928159486,None,483.5441928159486,None,483.5441928159486,None,484.54402825014256,None,484.54402825014256,None,485.5256559054102,None,485.5256559054102,None,h,,,,,,,,,,,,,,,,,,,,,,,,,,,,,,,,,,,,,,,,,,,,,,,75_76Exp,001,2021_May_27_1039,ComputerHuman,2020.1.3,60.01559449685405,
Human.xlsx,h,Sychronize.jpg,Number8.jpg,8,Human,,,,,0,0,0,8,0,3,3,4,,,,,,,,,,,,,,,,,,,,,,,,,,,,,486.5767149328873,None,486.5767149328873,None,487.02549968017127,None,487.02549968017127,None,v,7.561528043232329,487.02549968017127,None,t,6.216329932306735,487.02549968017127,None,7.561528043232329,6.216329932306735,7.755179461072268,False,False,False,494.6738719543297,None,494.6738719543297,None,494.6738719543297,None,494.6738719543297,None,494.6738719543297,None,494.6738719543297,None,494.6738719543297,None,494.6738719543297,None,495.6585782412566,None,495.6585782412566,None,496.65680522915056,None,496.65680522915056,None,h,,,,,,,,,,,,,,,,,,,,,,,,,,,,,,,,,,,,,,,,,,,,,,,75_76Exp,001,2021_May_27_1039,ComputerHuman,2020.1.3,60.01559449685405,
Human.xlsx,h,Sychronize.jpg,Number10.jpg,10,Human,,,,,0,0,0,8,0,4,4,8,,,,,,,,,,,,,,,,,,,,,,,,,,,,,497.7063815604175,None,497.7063815604175,None,498.1570313868375,None,498.1570313868375,None,v,9.577480340321017,498.1570313868375,None,t,7.9652442150147635,498.1570313868375,None,9.577480340321017,7.9652442150147635,9.372423548578842,False,False,False,507.8057170738467,None,507.8057170738467,None,507.8057170738467,None,507.8057170738467,None,507.8057170738467,None,507.8057170738467,None,507.8057170738467,None,507.8057170738467,None,508.8062569651755,None,508.8062569651755,None,509.8040739821139,None,509.8040739821139,None,h,,,,,,,,,,,,,,,,,,,,,,,,,,,,,,,,,,,,,,,,,,,,,,,75_76Exp,001,2021_May_27_1039,ComputerHuman,2020.1.3,60.01559449685405,
Human.xlsx,h,Sychronize.jpg,Number10.jpg,10,Human,,,,,0,0,0,8,0,5,5,9,,,,,,,,,,,,,,,,,,,,,,,,,,,,,510.85394415797793,None,510.85394415797793,None,511.30430142296484,None,511.30430142296484,None,v,8.585777921492308,511.30430142296484,None,t,6.861293160029163,511.30430142296484,None,8.585777921492308,6.861293160029163,10.15427301019074,False,False,False,519.969006452391,None,519.969006452391,None,519.969006452391,None,519.969006452391,None,519.969006452391,None,519.969006452391,None,519.969006452391,None,519.969006452391,None,520.9538882120197,None,520.9538882120197,None,521.9515993679132,None,521.9515993679132,None,h,,,,,,,,,,,,,,,,,,,,,,,,,,,,,,,,,,,,,,,,,,,,,,,75_76Exp,001,2021_May_27_1039,ComputerHuman,2020.1.3,60.01559449685405,
Human.xlsx,h,Sychronize.jpg,Number7.jpg,7,Human,,,,,0,0,0,8,0,6,6,3,,,,,,,,,,,,,,,,,,,,,,,,,,,,,523.0184817344788,None,523.0184817344788,None,523.4517562347343,None,523.4517562347343,None,v,6.453986374079477,523.4517562347343,None,t,4.357371489503294,523.4517562347343,None,6.453986374079477,4.357371489503294,7.470258119255089,False,False,False,529.9850399096139,None,529.9850399096139,None,529.9850399096139,None,529.9850399096139,None,529.9850399096139,None,529.9850399096139,None,529.9850399096139,None,529.9850399096139,None,530.9854428231664,None,530.9854428231664,None,531.982939690642,None,531.982939690642,None,h,,,,,,,,,,,,,,,,,,,,,,,,,,,,,,,,,,,,,,,,,,,,,,,75_76Exp,001,2021_May_27_1039,ComputerHuman,2020.1.3,60.01559449685405,
Human.xlsx,h,Sychronize.jpg,Number8.jpg,8,Human,,,,,0,0,0,8,0,7,7,5,,,,,,,,,,,,,,,,,,,,,,,,,,,,,533.033208609775,None,533.033208609775,None,533.4831979274333,None,533.4831979274333,None,v,6.818143235768048,533.4831979274333,None,t,6.225301495463782,533.4831979274333,None,6.818143235768048,6.225301495463782,7.8556795084071585,False,False,False,540.3978963806429,None,540.3978963806429,None,540.3978963806429,None,540.3978963806429,None,540.3978963806429,None,540.3978963806429,None,540.3978963806429,None,540.3978963806429,None,541.3661541067348,None,541.3661541067348,None,542.3808405623596,None,542.3808405623596,None,h,,,,,,,,,,,,,,,,,,,,,,,,,,,,,,,,,,,,,,,,,,,,,,,75_76Exp,001,2021_May_27_1039,ComputerHuman,2020.1.3,60.01559449685405,
Human.xlsx,h,Sychronize.jpg,Number6.jpg,6,Human,,,,,0,0,0,8,0,8,8,0,,,,,,,,,,,,,,,,,,,,,,,,,,,,,543.4306690353877,None,543.4306690353877,None,543.8809066453149,None,543.8809066453149,None,v,4.724207277208961,543.8809066453149,None,t,5.059373931364917,543.8809066453149,None,4.724207277208961,5.059373931364917,6.270299135603677,False,False,False,549.0132470662055,None,549.0132470662055,None,549.0132470662055,None,549.0132470662055,None,549.0132470662055,None,549.0132470662055,None,549.0132470662055,None,549.0132470662055,None,550.0151544897593,None,550.0151544897593,None,550.9956827941156,None,550.9956827941156,None,h,,,,,,,,,,,,,,,,,,,,,,,,,,,,,,,,,,,,,,,,,,,,,,,75_76Exp,001,2021_May_27_1039,ComputerHuman,2020.1.3,60.01559449685405,
Human.xlsx,h,Sychronize.jpg,Number7.jpg,7,Human,,,,,0,0,0,8,0,9,9,2,,,,,,,,,,,,,,,,,,,,,,,,,,,,,552.0624339571435,None,552.0624339571435,None,552.495920179489,None,552.495920179489,None,v,6.280824971914626,552.495920179489,None,t,5.224351312388308,552.495920179489,None,6.280824971914626,5.224351312388308,6.4973974607327065,False,False,False,558.8448369002089,None,558.8448369002089,None,558.8448369002089,None,558.8448369002089,None,558.8448369002089,None,558.8448369002089,None,558.8448369002089,None,558.8448369002089,None,559.8464925027926,None,559.8464925027926,None,560.8436839771931,None,560.8436839771931,None,h,,,,,,,,,,,,,,,,,,,,,,,,,,,,,,,,,,,,,,,,,,,,,,,75_76Exp,001,2021_May_27_1039,ComputerHuman,2020.1.3,60.01559449685405,
Human.xlsx,h,,,,,,,,,0,0,0,8,,,,,,,,,,,,,,,,,,,,,,,,,,,,,,,,,,,,,,,,,,,,,,,,,,,,,,,,,,,,,,,,,,,,,,,,,,,,,,,h,561.8447605519401,None,561.8447605519401,None,q,1,35.818732528917735,561.8447605519401,None,o,0,9.599179288190498,561.8447605519401,None,h,h,597.7527259219054,None,597.7527259219054,None,599.7524933483977,None,None,None,None,None,None,None,None,,,,,,,,,,,,,,,,,,75_76Exp,001,2021_May_27_1039,ComputerHuman,2020.1.3,60.01559449685405,
Computer.xlsx,c,Sychronize.jpg,Number6.jpg,6,Computer,,,,,0,1,1,3,0,0,0,0,,,,,,,,,,,,,,,,,,,,,,,,,604.7374546642055,None,604.7374546642055,None,607.8343088589014,None,607.8343088589014,None,608.251257661292,None,608.251257661292,None,v,4.975643619113043,608.251257661292,None,t,4.971292730169125,608.251257661292,None,4.975643619113043,4.971292730169125,5.976083574460019,False,False,False,613.3169960869908,None,613.3169960869908,None,613.3169960869908,None,613.3169960869908,None,613.3169960869908,None,613.3169960869908,None,613.3169960869908,None,613.3169960869908,None,614.3328896793181,None,614.3328896793181,None,615.3160378841393,None,615.3160378841393,None,c,,,,,,,,,,,,,,,,,,,,,,,,,,,,,,,,,,,,,,,,,,,,,,,75_76Exp,001,2021_May_27_1039,ComputerHuman,2020.1.3,60.01559449685405,
Computer.xlsx,c,Sychronize.jpg,Number7.jpg,7,Computer,,,,,0,1,1,3,0,1,1,2,,,,,,,,,,,,,,,,,,,,,,,,,,,,,616.349771949646,None,616.349771949646,None,616.8163172931394,None,616.8163172931394,None,v,6.23025418840848,616.8163172931394,None,t,4.325370658013071,616.8163172931394,None,6.23025418840848,4.325370658013071,6.590378257142783,False,False,False,623.1149439225175,None,623.1149439225175,None,623.1149439225175,None,623.1149439225175,None,623.1149439225175,None,623.1149439225175,None,623.1149439225175,None,623.1149439225175,None,624.1141143568749,None,624.1141143568749,None,625.1140524442031,None,625.1140524442031,None,c,,,,,,,,,,,,,,,,,,,,,,,,,,,,,,,,,,,,,,,,,,,,,,,75_76Exp,001,2021_May_27_1039,ComputerHuman,2020.1.3,60.01559449685405,
Computer.xlsx,c,Sychronize.jpg,Number9.jpg,9,Computer,,,,,0,1,1,3,0,2,2,7,,,,,,,,,,,,,,,,,,,,,,,,,,,,,626.1638337609478,None,626.1638337609478,None,626.6138641398599,None,626.6138641398599,None,v,8.300271645857038,626.6138641398599,None,t,8.02722810232217,626.6138641398599,None,8.300271645857038,8.02722810232217,8.56286104688153,False,True,False,634.9972120050273,None,634.9972120050273,None,634.9972120050273,None,634.9972120050273,None,634.9972120050273,None,634.9972120050273,None,634.9972120050273,None,634.9972120050273,None,635.9951486770257,None,635.9951486770257,None,636.9782869373245,None,636.9782869373245,None,c,,,,,,,,,,,,,,,,,,,,,,,,,,,,,,,,,,,,,,,,,,,,,,,75_76Exp,001,2021_May_27_1039,ComputerHuman,2020.1.3,60.01559449685405,
Computer.xlsx,c,Sychronize.jpg,Number10.jpg,10,Computer,,,,,0,1,1,3,0,3,3,9,,,,,,,,,,,,,,,,,,,,,,,,,,,,,638.0286459987411,None,638.0286459987411,None,638.4782365731304,None,638.4782365731304,None,v,8.771544166190324,638.4782365731304,None,t,8.44727157592456,638.4782365731304,None,8.771544166190324,8.44727157592456,10.16550893311981,False,False,False,647.3428556947148,None,647.3428556947148,None,647.3428556947148,None,647.3428556947148,None,647.3428556947148,None,647.3428556947148,None,647.3428556947148,None,647.3428556947148,None,648.3425506224308,None,648.3425506224308,None,649.3258306723716,None,649.3258306723716,None,c,,,,,,,,,,,,,,,,,,,,,,,,,,,,,,,,,,,,,,,,,,,,,,,75_76Exp,001,2021_May_27_1039,ComputerHuman,2020.1.3,60.01559449685405,
Computer.xlsx,c,Sychronize.jpg,Number8.jpg,8,Computer,,,,,0,1,1,3,0,4,4,5,,,,,,,,,,,,,,,,,,,,,,,,,,,,,650.3601642963416,None,650.3601642963416,None,650.8090151265809,None,650.8090151265809,None,v,6.564396556757174,650.8090151265809,None,t,6.4474002131335055,650.8090151265809,None,6.564396556757174,6.4474002131335055,7.86251311466154,False,False,False,657.4262485347869,None,657.4262485347869,None,657.4262485347869,None,657.4262485347869,None,657.4262485347869,None,657.4262485347869,None,657.4262485347869,None,657.4262485347869,None,658.4405805163068,None,658.4405805163068,None,659.4404307068886,None,659.4404307068886,None,c,,,,,,,,,,,,,,,,,,,,,,,,,,,,,,,,,,,,,,,,,,,,,,,75_76Exp,001,2021_May_27_1039,ComputerHuman,2020.1.3,60.01559449685405,
Computer.xlsx,c,Sychronize.jpg,Number10.jpg,10,Computer,,,,,0,1,1,3,0,5,5,8,,,,,,,,,,,,,,,,,,,,,,,,,,,,,660.4908587383801,None,660.4908587383801,None,660.9404124217991,None,660.9404124217991,None,v,9.084520420595709,660.9404124217991,None,t,10.012204174518047,660.9404124217991,None,9.084520420595709,10.012204174518047,9.669173308002012,False,False,False,671.0218503612429,None,671.0218503612429,None,671.0218503612429,None,671.0218503612429,None,671.0218503612429,None,671.0218503612429,None,671.0218503612429,None,671.0218503612429,None,672.0211587357497,None,672.0211587357497,None,673.0042982792125,None,673.0042982792125,None,c,,,,,,,,,,,,,,,,,,,,,,,,,,,,,,,,,,,,,,,,,,,,,,,75_76Exp,001,2021_May_27_1039,ComputerHuman,2020.1.3,60.01559449685405,
Computer.xlsx,c,Sychronize.jpg,Number7.jpg,7,Computer,,,,,0,1,1,3,0,6,6,3,,,,,,,,,,,,,,,,,,,,,,,,,,,,,674.0712249149423,None,674.0712249149423,None,674.5045096805114,None,674.5045096805114,None,v,6.52806985802431,674.5045096805114,None,t,5.723320931551598,674.5045096805114,None,6.52806985802431,5.723320931551598,6.649954361547442,False,True,False,681.1030037590295,None,681.1030037590295,None,681.1030037590295,None,681.1030037590295,None,681.1030037590295,None,681.1030037590295,None,681.1030037590295,None,681.1030037590295,None,682.1189749827896,None,682.1189749827896,None,683.1023377968198,None,683.1023377968198,None,c,,,,,,,,,,,,,,,,,,,,,,,,,,,,,,,,,,,,,,,,,,,,,,,75_76Exp,001,2021_May_27_1039,ComputerHuman,2020.1.3,60.01559449685405,
Computer.xlsx,c,Sychronize.jpg,Number6.jpg,6,Computer,,,,,0,1,1,3,0,7,7,1,,,,,,,,,,,,,,,,,,,,,,,,,,,,,684.1530648055654,None,684.1530648055654,None,684.5855463103577,None,684.5855463103577,None,v,4.66673563674135,684.5855463103577,None,t,6.278298742434799,684.5855463103577,None,4.66673563674135,6.278298742434799,6.089955272329764,False,False,True,690.9342994276445,None,690.9342994276445,None,690.9342994276445,None,690.9342994276445,None,690.9342994276445,None,690.9342994276445,None,690.9342994276445,None,690.9342994276445,None,691.9504390667033,None,691.9504390667033,None,692.9336071605693,None,692.9336071605693,None,c,,,,,,,,,,,,,,,,,,,,,,,,,,,,,,,,,,,,,,,,,,,,,,,75_76Exp,001,2021_May_27_1039,ComputerHuman,2020.1.3,60.01559449685405,
Computer.xlsx,c,Sychronize.jpg,Number9.jpg,9,Computer,,,,,0,1,1,3,0,8,8,6,,,,,,,,,,,,,,,,,,,,,,,,,,,,,693.983879929195,None,693.983879929195,None,694.4337277780022,None,694.4337277780022,None,v,8.414129369895818,694.4337277780022,None,t,7.417164373973037,694.4337277780022,None,8.414129369895818,7.417164373973037,8.680906316837362,False,True,False,702.9155928186434,None,702.9155928186434,None,702.9155928186434,None,702.9155928186434,None,702.9155928186434,None,702.9155928186434,None,702.9155928186434,None,702.9155928186434,None,703.9147731975232,None,703.9147731975232,None,704.8978479411952,None,704.8978479411952,None,c,,,,,,,,,,,,,,,,,,,,,,,,,,,,,,,,,,,,,,,,,,,,,,,75_76Exp,001,2021_May_27_1039,ComputerHuman,2020.1.3,60.01559449685405,
Computer.xlsx,c,Sychronize.jpg,Number8.jpg,8,Computer,,,,,0,1,1,3,0,9,9,4,,,,,,,,,,,,,,,,,,,,,,,,,,,,,705.9474014962976,None,705.9474014962976,None,706.3978723213146,None,706.3978723213146,None,v,7.905797464082525,706.3978723213146,None,t,6.9412878605612605,706.3978723213146,None,7.905797464082525,6.9412878605612605,7.523489642850756,False,False,False,714.3959068345815,None,714.3959068345815,None,714.3959068345815,None,714.3959068345815,None,714.3959068345815,None,714.3959068345815,None,714.3959068345815,None,714.3959068345815,None,715.3957278331783,None,715.3957278331783,None,716.3788340143727,None,716.3788340143727,None,c,,,,,,,,,,,,,,,,,,,,,,,,,,,,,,,,,,,,,,,,,,,,,,,75_76Exp,001,2021_May_27_1039,ComputerHuman,2020.1.3,60.01559449685405,
Computer.xlsx,c,,,,,,,,,0,1,1,3,,,,,,,,,,,,,,,,,,,,,,,,,,,,,,,,,,,,,,,,,,,,,,,,,,,,,,,,,,,,,,,,,,,,,,,,,,,,,,,c,717.3795346220151,None,717.3795346220151,None,a,1,16.375240833877115,717.3795346220151,None,o,0,4.051272995104,717.3795346220151,None,c,h,733.8431091196402,None,733.8431091196402,None,735.8248987743858,None,None,None,None,None,None,None,None,,,,,,,,,,,,,,,,,,75_76Exp,001,2021_May_27_1039,ComputerHuman,2020.1.3,60.01559449685405,
Human.xlsx,h,Sychronize.jpg,Number6.jpg,6,Human,,,,,0,2,2,6,0,0,0,0,,,,,,,,,,,,,,,,,,,,,,,,,740.8273868297312,None,740.8273868297312,None,743.9245444927554,None,743.9245444927554,None,744.3566076860251,None,744.3566076860251,None,v,4.993640638322859,744.3566076860251,None,t,5.5453255291288315,744.3566076860251,None,4.993640638322859,5.5453255291288315,6.13090015972584,False,False,False,749.9723080338268,None,749.9723080338268,None,749.9723080338268,None,749.9723080338268,None,749.9723080338268,None,749.9723080338268,None,749.9723080338268,None,749.9723080338268,None,750.9909094233652,None,750.9909094233652,None,751.9716241073187,None,751.9716241073187,None,h,,,,,,,,,,,,,,,,,,,,,,,,,,,,,,,,,,,,,,,,,,,,,,,75_76Exp,001,2021_May_27_1039,ComputerHuman,2020.1.3,60.01559449685405,
Human.xlsx,h,Sychronize.jpg,Number8.jpg,8,Human,,,,,0,2,2,6,0,1,1,5,,,,,,,,,,,,,,,,,,,,,,,,,,,,,753.0225358917061,None,753.0225358917061,None,753.4714957909006,None,753.4714957909006,None,v,6.930369737342744,753.4714957909006,None,t,5.773331934684165,753.4714957909006,None,6.930369737342744,5.773331934684165,7.68596221792694,False,False,False,760.4864051963017,None,760.4864051963017,None,760.4864051963017,None,760.4864051963017,None,760.4864051963017,None,760.4864051963017,None,760.4864051963017,None,760.4864051963017,None,761.4718419244383,None,761.4718419244383,None,762.4694690330781,None,762.4694690330781,None,h,,,,,,,,,,,,,,,,,,,,,,,,,,,,,,,,,,,,,,,,,,,,,,,75_76Exp,001,2021_May_27_1039,ComputerHuman,2020.1.3,60.01559449685405,
Human.xlsx,h,Sychronize.jpg,Number9.jpg,9,Human,,,,,0,2,2,6,0,2,2,6,,,,,,,,,,,,,,,,,,,,,,,,,,,,,763.5193164327778,None,763.5193164327778,None,763.969334300839,None,763.969334300839,None,v,7.676115887689775,763.969334300839,None,t,7.735237677293071,763.969334300839,None,7.676115887689775,7.735237677293071,9.409779640495625,True,False,False,771.7847707017689,None,771.7847707017689,None,771.7847707017689,None,771.7847707017689,None,771.7847707017689,None,771.7847707017689,None,771.7847707017689,None,771.7847707017689,None,772.7692768150838,None,772.7692768150838,None,773.7672449246044,None,773.7672449246044,None,h,,,,,,,,,,,,,,,,,,,,,,,,,,,,,,,,,,,,,,,,,,,,,,,75_76Exp,001,2021_May_27_1039,ComputerHuman,2020.1.3,60.01559449685405,
Human.xlsx,h,Sychronize.jpg,Number7.jpg,7,Human,,,,,0,2,2,6,0,3,3,3,,,,,,,,,,,,,,,,,,,,,,,,,,,,,774.8509742744828,None,774.8509742744828,None,775.2838914135144,None,775.2838914135144,None,v,5.785227829008136,775.2838914135144,None,t,5.7283150065409245,775.2838914135144,None,5.785227829008136,5.7283150065409245,6.650664289967382,True,False,False,781.1656981985017,None,781.1656981985017,None,781.1656981985017,None,781.1656981985017,None,781.1656981985017,None,781.1656981985017,None,781.1656981985017,None,781.1656981985017,None,782.1505950353095,None,782.1505950353095,None,783.148654891069,None,783.148654891069,None,h,,,,,,,,,,,,,,,,,,,,,,,,,,,,,,,,,,,,,,,,,,,,,,,75_76Exp,001,2021_May_27_1039,ComputerHuman,2020.1.3,60.01559449685405,
Human.xlsx,h,Sychronize.jpg,Number7.jpg,7,Human,,,,,0,2,2,6,0,4,4,2,,,,,,,,,,,,,,,,,,,,,,,,,,,,,784.1823613685459,None,784.1823613685459,None,784.6320619742636,None,784.6320619742636,None,v,5.744758113928128,784.6320619742636,None,t,5.864437874643954,784.6320619742636,None,5.744758113928128,5.864437874643954,6.940514334963438,True,False,False,790.5642788264437,None,790.5642788264437,None,790.5642788264437,None,790.5642788264437,None,790.5642788264437,None,790.5642788264437,None,790.5642788264437,None,790.5642788264437,None,791.5495801807593,None,791.5495801807593,None,792.5634300133385,None,792.5634300133385,None,h,,,,,,,,,,,,,,,,,,,,,,,,,,,,,,,,,,,,,,,,,,,,,,,75_76Exp,001,2021_May_27_1039,ComputerHuman,2020.1.3,60.01559449685405,
Human.xlsx,h,Sychronize.jpg,Number6.jpg,6,Human,,,,,0,2,2,6,0,5,5,1,,,,,,,,,,,,,,,,,,,,,,,,,,,,,793.6144447716514,None,793.6144447716514,None,794.0633270394129,None,794.0633270394129,None,v,5.033221441416799,794.0633270394129,None,t,4.9283349597440065,794.0633270394129,None,5.033221441416799,4.9283349597440065,5.68734340528858,True,False,False,799.1800632214992,None,799.1800632214992,None,799.1800632214992,None,799.1800632214992,None,799.1800632214992,None,799.1800632214992,None,799.1800632214992,None,799.1800632214992,None,800.17998366532,None,800.17998366532,None,801.1616661758563,None,801.1616661758563,None,h,,,,,,,,,,,,,,,,,,,,,,,,,,,,,,,,,,,,,,,,,,,,,,,75_76Exp,001,2021_May_27_1039,ComputerHuman,2020.1.3,60.01559449685405,
Human.xlsx,h,Sychronize.jpg,Number8.jpg,8,Human,,,,,0,2,2,6,0,6,6,4,,,,,,,,,,,,,,,,,,,,,,,,,,,,,802.2116255316308,None,802.2116255316308,None,802.6618977869908,None,802.6618977869908,None,v,6.750280531769022,802.6618977869908,None,t,6.245298005257155,802.6618977869908,None,6.750280531769022,6.245298005257155,8.193983493104719,False,False,False,809.4934305201883,None,809.4934305201883,None,809.4934305201883,None,809.4934305201883,None,809.4934305201883,None,809.4934305201883,None,809.4934305201883,None,809.4934305201883,None,810.4949882815032,None,810.4949882815032,None,811.492922387173,None,811.492922387173,None,h,,,,,,,,,,,,,,,,,,,,,,,,,,,,,,,,,,,,,,,,,,,,,,,75_76Exp,001,2021_May_27_1039,ComputerHuman,2020.1.3,60.01559449685405,
Human.xlsx,h,Sychronize.jpg,Number10.jpg,10,Human,,,,,0,2,2,6,0,7,7,8,,,,,,,,,,,,,,,,,,,,,,,,,,,,,812.5437783539186,None,812.5437783539186,None,812.9930927272179,None,812.9930927272179,None,v,9.294655236240033,812.9930927272179,None,t,7.286238962381958,812.9930927272179,None,9.294655236240033,7.286238962381958,10.696611290225295,False,False,False,822.3408308616382,None,822.3408308616382,None,822.3408308616382,None,822.3408308616382,None,822.3408308616382,None,822.3408308616382,None,822.3408308616382,None,822.3408308616382,None,823.3424665751771,None,823.3424665751771,None,824.3402842336976,None,824.3402842336976,None,h,,,,,,,,,,,,,,,,,,,,,,,,,,,,,,,,,,,,,,,,,,,,,,,75_76Exp,001,2021_May_27_1039,ComputerHuman,2020.1.3,60.01559449685405,
Human.xlsx,h,Sychronize.jpg,Number10.jpg,10,Human,,,,,0,2,2,6,0,8,8,9,,,,,,,,,,,,,,,,,,,,,,,,,,,,,825.4073369403078,None,825.4073369403078,None,825.8572569671004,None,825.8572569671004,None,v,9.918093384839494,825.8572569671004,None,t,9.489196078393661,825.8572569671004,None,9.918093384839494,9.489196078393661,9.56296417021289,False,False,False,835.8712925376946,None,835.8712925376946,None,835.8712925376946,None,835.8712925376946,None,835.8712925376946,None,835.8712925376946,None,835.8712925376946,None,835.8712925376946,None,836.8400115613093,None,836.8400115613093,None,837.8375347336504,None,837.8375347336504,None,h,,,,,,,,,,,,,,,,,,,,,,,,,,,,,,,,,,,,,,,,,,,,,,,75_76Exp,001,2021_May_27_1039,ComputerHuman,2020.1.3,60.01559449685405,
Human.xlsx,h,Sychronize.jpg,Number9.jpg,9,Human,,,,,0,2,2,6,0,9,9,7,,,,,,,,,,,,,,,,,,,,,,,,,,,,,838.8877439856491,None,838.8877439856491,None,839.337553981113,None,839.337553981113,None,v,7.505614164079361,839.337553981113,None,t,8.264228205616746,839.337553981113,None,7.505614164079361,8.264228205616746,9.018979341306569,False,False,False,847.6855628631755,None,847.6855628631755,None,847.6855628631755,None,847.6855628631755,None,847.6855628631755,None,847.6855628631755,None,847.6855628631755,None,847.6855628631755,None,848.6707217862671,None,848.6707217862671,None,849.668520518116,None,849.668520518116,None,h,,,,,,,,,,,,,,,,,,,,,,,,,,,,,,,,,,,,,,,,,,,,,,,75_76Exp,001,2021_May_27_1039,ComputerHuman,2020.1.3,60.01559449685405,
Human.xlsx,h,,,,,,,,,0,2,2,6,,,,,,,,,,,,,,,,,,,,,,,,,,,,,,,,,,,,,,,,,,,,,,,,,,,,,,,,,,,,,,,,,,,,,,,,,,,,,,,h,850.6689529444446,None,850.6689529444446,None,q,0,3.069680626851323,850.6689529444446,None,l,0,303.2711868049662,850.6689529444446,None,h,c,1154.007241537051,None,1154.007241537051,None,1156.0063343399756,None,None,None,None,None,None,None,None,,,,,,,,,,,,,,,,,,75_76Exp,001,2021_May_27_1039,ComputerHuman,2020.1.3,60.01559449685405,
Computer.xlsx,c,Sychronize.jpg,Number8.jpg,8,Computer,,,,,0,3,3,5,0,0,0,5,,,,,,,,,,,,,,,,,,,,,,,,,1161.024637073051,None,1161.024637073051,None,1164.0887272743603,None,1164.0887272743603,None,1164.5386036735708,None,1164.5386036735708,None,v,6.825230151535152,1164.5386036735708,None,t,7.140271979479621,1164.5386036735708,None,6.825230151535152,7.140271979479621,7.956873964065159,False,False,False,1171.7540790185335,None,1171.7540790185335,None,1171.7540790185335,None,1171.7540790185335,None,1171.7540790185335,None,1171.7540790185335,None,1171.7540790185335,None,1171.7540790185335,None,1172.752730733771,None,1172.752730733771,None,1173.7360540905029,None,1173.7360540905029,None,c,,,,,,,,,,,,,,,,,,,,,,,,,,,,,,,,,,,,,,,,,,,,,,,75_76Exp,001,2021_May_27_1039,ComputerHuman,2020.1.3,60.01559449685405,
Computer.xlsx,c,Sychronize.jpg,Number7.jpg,7,Computer,,,,,0,3,3,5,0,1,1,2,,,,,,,,,,,,,,,,,,,,,,,,,,,,,1174.803219073979,None,1174.803219073979,None,1175.2695847744872,None,1175.2695847744872,None,v,5.7060533911783295,1175.2695847744872,None,t,5.685267735414072,1175.2695847744872,None,5.7060533911783295,5.685267735414072,7.466228333065594,False,False,False,1181.0525507058364,None,1181.0525507058364,None,1181.0525507058364,None,1181.0525507058364,None,1181.0525507058364,None,1181.0525507058364,None,1181.0525507058364,None,1181.0525507058364,None,1182.0676628511778,None,1182.0676628511778,None,1183.0509942276858,None,1183.0509942276858,None,c,,,,,,,,,,,,,,,,,,,,,,,,,,,,,,,,,,,,,,,,,,,,,,,75_76Exp,001,2021_May_27_1039,ComputerHuman,2020.1.3,60.01559449685405,
Computer.xlsx,c,Sychronize.jpg,Number9.jpg,9,Computer,,,,,0,3,3,5,0,2,2,7,,,,,,,,,,,,,,,,,,,,,,,,,,,,,1184.085085012835,None,1184.085085012835,None,1184.534461298806,None,1184.534461298806,None,v,8.184585092070165,1184.534461298806,None,t,8.22428330468665,1184.534461298806,None,8.184585092070165,8.22428330468665,8.570639859066098,False,False,False,1192.848888811899,None,1192.848888811899,None,1192.848888811899,None,1192.848888811899,None,1192.848888811899,None,1192.848888811899,None,1192.848888811899,None,1192.848888811899,None,1193.8486857511675,None,1193.8486857511675,None,1194.831864431138,None,1194.831864431138,None,c,,,,,,,,,,,,,,,,,,,,,,,,,,,,,,,,,,,,,,,,,,,,,,,75_76Exp,001,2021_May_27_1039,ComputerHuman,2020.1.3,60.01559449685405,
Computer.xlsx,c,Sychronize.jpg,Number10.jpg,10,Computer,,,,,0,3,3,5,0,3,3,8,,,,,,,,,,,,,,,,,,,,,,,,,,,,,1195.8815578511362,None,1195.8815578511362,None,1196.331998201004,None,1196.331998201004,None,v,9.166643569711368,1196.331998201004,None,t,9.670204350311451,1196.331998201004,None,9.166643569711368,9.670204350311451,9.910013077453886,False,False,True,1206.0797881110989,None,1206.0797881110989,None,1206.0797881110989,None,1206.0797881110989,None,1206.0797881110989,None,1206.0797881110989,None,1206.0797881110989,None,1206.0797881110989,None,1207.0793101324416,None,1207.0793101324416,None,1208.0624490343225,None,1208.0624490343225,None,c,,,,,,,,,,,,,,,,,,,,,,,,,,,,,,,,,,,,,,,,,,,,,,,75_76Exp,001,2021_May_27_1039,ComputerHuman,2020.1.3,60.01559449685405,
Computer.xlsx,c,Sychronize.jpg,Number8.jpg,8,Computer,,,,,0,3,3,5,0,4,4,4,,,,,,,,,,,,,,,,,,,,,,,,,,,,,1209.1292624308135,None,1209.1292624308135,None,1209.5792976215912,None,1209.5792976215912,None,v,6.859012335698708,1209.5792976215912,None,t,8.390241985516923,1209.5792976215912,None,6.859012335698708,8.390241985516923,7.9120085558464535,False,False,False,1218.0443830450386,None,1218.0443830450386,None,1218.0443830450386,None,1218.0443830450386,None,1218.0443830450386,None,1218.0443830450386,None,1218.0443830450386,None,1218.0443830450386,None,1219.043353626575,None,1219.043353626575,None,1220.0266910981127,None,1220.0266910981127,None,c,,,,,,,,,,,,,,,,,,,,,,,,,,,,,,,,,,,,,,,,,,,,,,,75_76Exp,001,2021_May_27_1039,ComputerHuman,2020.1.3,60.01559449685405,
Computer.xlsx,c,Sychronize.jpg,Number9.jpg,9,Computer,,,,,0,3,3,5,0,5,5,6,,,,,,,,,,,,,,,,,,,,,,,,,,,,,1221.0767014596636,None,1221.0767014596636,None,1221.526550591635,None,1221.526550591635,None,v,7.96328450252031,1221.526550591635,None,t,7.894252835953239,1221.526550591635,None,7.96328450252031,7.894252835953239,9.09778057855046,False,False,False,1229.574832210244,None,1229.574832210244,None,1229.574832210244,None,1229.574832210244,None,1229.574832210244,None,1229.574832210244,None,1229.574832210244,None,1229.574832210244,None,1230.5745608210195,None,1230.5745608210195,None,1231.557757465289,None,1231.557757465289,None,c,,,,,,,,,,,,,,,,,,,,,,,,,,,,,,,,,,,,,,,,,,,,,,,75_76Exp,001,2021_May_27_1039,ComputerHuman,2020.1.3,60.01559449685405,
Computer.xlsx,c,Sychronize.jpg,Number6.jpg,6,Computer,,,,,0,3,3,5,0,6,6,1,,,,,,,,,,,,,,,,,,,,,,,,,,,,,1232.591308359109,None,1232.591308359109,None,1233.0578921975275,None,1233.0578921975275,None,v,5.423666166874227,1233.0578921975275,None,t,6.071355797688511,1233.0578921975275,None,5.423666166874227,6.071355797688511,5.575979386079896,False,True,False,1239.190121624717,None,1239.190121624717,None,1239.190121624717,None,1239.190121624717,None,1239.190121624717,None,1239.190121624717,None,1239.190121624717,None,1239.190121624717,None,1240.2059687023425,None,1240.2059687023425,None,1241.189054994492,None,1241.189054994492,None,c,,,,,,,,,,,,,,,,,,,,,,,,,,,,,,,,,,,,,,,,,,,,,,,75_76Exp,001,2021_May_27_1039,ComputerHuman,2020.1.3,60.01559449685405,
Computer.xlsx,c,Sychronize.jpg,Number6.jpg,6,Computer,,,,,0,3,3,5,0,7,7,0,,,,,,,,,,,,,,,,,,,,,,,,,,,,,1242.2557493775048,None,1242.2557493775048,None,1242.7055378799687,None,1242.7055378799687,None,v,5.291686315118113,1242.7055378799687,None,t,6.231414489618146,1242.7055378799687,None,5.291686315118113,6.231414489618146,5.797432391320859,False,False,False,1249.0044339738247,None,1249.0044339738247,None,1249.0044339738247,None,1249.0044339738247,None,1249.0044339738247,None,1249.0044339738247,None,1249.0044339738247,None,1249.0044339738247,None,1250.0207003253463,None,1250.0207003253463,None,1250.9870888020187,None,1250.9870888020187,None,c,,,,,,,,,,,,,,,,,,,,,,,,,,,,,,,,,,,,,,,,,,,,,,,75_76Exp,001,2021_May_27_1039,ComputerHuman,2020.1.3,60.01559449685405,
Computer.xlsx,c,Sychronize.jpg,Number7.jpg,7,Computer,,,,,0,3,3,5,0,8,8,3,,,,,,,,,,,,,,,,,,,,,,,,,,,,,1252.0535717837329,None,1252.0535717837329,None,1252.4871237682423,None,1252.4871237682423,None,v,6.885747382184945,1252.4871237682423,None,t,6.461323827653359,1252.4871237682423,None,6.885747382184945,6.461323827653359,6.985171983801151,False,True,False,1259.4521912273913,None,1259.4521912273913,None,1259.4521912273913,None,1259.4521912273913,None,1259.4521912273913,None,1259.4521912273913,None,1259.4521912273913,None,1259.4521912273913,None,1260.4682914091513,None,1260.4682914091513,None,1261.4517100408239,None,1261.4517100408239,None,c,,,,,,,,,,,,,,,,,,,,,,,,,,,,,,,,,,,,,,,,,,,,,,,75_76Exp,001,2021_May_27_1039,ComputerHuman,2020.1.3,60.01559449685405,
Computer.xlsx,c,Sychronize.jpg,Number10.jpg,10,Computer,,,,,0,3,3,5,0,9,9,9,,,,,,,,,,,,,,,,,,,,,,,,,,,,,1262.5012077782844,None,1262.5012077782844,None,1262.9518470186,None,1262.9518470186,None,v,9.092536026438665,1262.9518470186,None,t,10.280282514257578,1262.9518470186,None,9.092536026438665,10.280282514257578,10.257500001045774,False,False,True,1273.283164501006,None,1273.283164501006,None,1273.283164501006,None,1273.283164501006,None,1273.283164501006,None,1273.283164501006,None,1273.283164501006,None,1273.283164501006,None,1274.2988040268256,None,1274.2988040268256,None,1275.2816070604827,None,1275.2816070604827,None,c,,,,,,,,,,,,,,,,,,,,,,,,,,,,,,,,,,,,,,,,,,,,,,,75_76Exp,001,2021_May_27_1039,ComputerHuman,2020.1.3,60.01559449685405,
Computer.xlsx,c,,,,,,,,,0,3,3,5,,,,,,,,,,,,,,,,,,,,,,,,,,,,,,,,,,,,,,,,,,,,,,,,,,,,,,,,,,,,,,,,,,,,,,,,,,,,,,,c,1276.2993172924976,None,1276.2993172924976,None,q,0,4.2488177246036685,1276.2993172924976,None,o,0,2.5004202362688375,1276.2993172924976,None,h,h,1280.63091290074,None,1280.63091290074,None,1282.6306873846352,None,None,None,None,None,None,None,None,,,,,,,,,,,,,,,,,,75_76Exp,001,2021_May_27_1039,ComputerHuman,2020.1.3,60.01559449685405,
Human.xlsx,h,Sychronize.jpg,Number6.jpg,6,Human,,,,,0,4,4,4,0,0,0,1,,,,,,,,,,,,,,,,,,,,,,,,,1287.616600166683,None,1287.616600166683,None,1290.6960148770054,None,1290.6960148770054,None,1291.1291880072908,None,1291.1291880072908,None,v,5.414373171090119,1291.1291880072908,None,t,5.405684545634813,1291.1291880072908,None,5.414373171090119,5.405684545634813,6.25663771397535,True,False,False,1296.6445137994683,None,1296.6445137994683,None,1296.6445137994683,None,1296.6445137994683,None,1296.6445137994683,None,1296.6445137994683,None,1296.6445137994683,None,1296.6445137994683,None,1297.6291437381265,None,1297.6291437381265,None,1298.6274775494385,None,1298.6274775494385,None,h,,,,,,,,,,,,,,,,,,,,,,,,,,,,,,,,,,,,,,,,,,,,,,,75_76Exp,001,2021_May_27_1039,ComputerHuman,2020.1.3,60.01559449685405,
Human.xlsx,h,Sychronize.jpg,Number10.jpg,10,Human,,,,,0,4,4,4,0,1,1,9,,,,,,,,,,,,,,,,,,,,,,,,,,,,,1299.6780602022136,None,1299.6780602022136,None,1300.1275423492298,None,1300.1275423492298,None,v,8.991593029082196,1300.1275423492298,None,t,9.395190508178075,1300.1275423492298,None,8.991593029082196,9.395190508178075,9.563604148479701,False,False,False,1309.6086589843626,None,1309.6086589843626,None,1309.6086589843626,None,1309.6086589843626,None,1309.6086589843626,None,1309.6086589843626,None,1309.6086589843626,None,1309.6086589843626,None,1310.594088334305,None,1310.594088334305,None,1311.5911489259593,None,1311.5911489259593,None,h,,,,,,,,,,,,,,,,,,,,,,,,,,,,,,,,,,,,,,,,,,,,,,,75_76Exp,001,2021_May_27_1039,ComputerHuman,2020.1.3,60.01559449685405,
Human.xlsx,h,Sychronize.jpg,Number7.jpg,7,Human,,,,,0,4,4,4,0,2,2,2,,,,,,,,,,,,,,,,,,,,,,,,,,,,,1312.6415567476151,None,1312.6415567476151,None,1313.0915341960044,None,1313.0915341960044,None,v,6.391227776398409,1313.0915341960044,None,t,6.574278845691424,1313.0915341960044,None,6.391227776398409,6.574278845691424,7.305233664197396,True,False,False,1319.7399751194466,None,1319.7399751194466,None,1319.7399751194466,None,1319.7399751194466,None,1319.7399751194466,None,1319.7399751194466,None,1319.7399751194466,None,1319.7399751194466,None,1320.7254657404787,None,1320.7254657404787,None,1321.7227316384015,None,1321.7227316384015,None,h,,,,,,,,,,,,,,,,,,,,,,,,,,,,,,,,,,,,,,,,,,,,,,,75_76Exp,001,2021_May_27_1039,ComputerHuman,2020.1.3,60.01559449685405,
Human.xlsx,h,Sychronize.jpg,Number9.jpg,9,Human,,,,,0,4,4,4,0,3,3,7,,,,,,,,,,,,,,,,,,,,,,,,,,,,,1322.7900871717584,None,1322.7900871717584,None,1323.2230197087601,None,1323.2230197087601,None,v,8.127340250871384,1323.2230197087601,None,t,9.030171360160693,1323.2230197087601,None,8.127340250871384,9.030171360160693,9.434079313998044,False,False,False,1332.3219019444427,None,1332.3219019444427,None,1332.3219019444427,None,1332.3219019444427,None,1332.3219019444427,None,1332.3219019444427,None,1332.3219019444427,None,1332.3219019444427,None,1333.3233968307127,None,1333.3233968307127,None,1334.3035745104567,None,1334.3035745104567,None,h,,,,,,,,,,,,,,,,,,,,,,,,,,,,,,,,,,,,,,,,,,,,,,,75_76Exp,001,2021_May_27_1039,ComputerHuman,2020.1.3,60.01559449685405,
Human.xlsx,h,Sychronize.jpg,Number8.jpg,8,Human,,,,,0,4,4,4,0,4,4,4,,,,,,,,,,,,,,,,,,,,,,,,,,,,,1335.3707853670521,None,1335.3707853670521,None,1335.803370808143,None,1335.803370808143,None,v,7.739014350266643,1335.803370808143,None,t,7.262286457420942,1335.803370808143,None,7.739014350266643,7.262286457420942,8.264623333171194,False,False,False,1343.6188816325953,None,1343.6188816325953,None,1343.6188816325953,None,1343.6188816325953,None,1343.6188816325953,None,1343.6188816325953,None,1343.6188816325953,None,1343.6188816325953,None,1344.6206976307012,None,1344.6206976307012,None,1345.617945885117,None,1345.617945885117,None,h,,,,,,,,,,,,,,,,,,,,,,,,,,,,,,,,,,,,,,,,,,,,,,,75_76Exp,001,2021_May_27_1039,ComputerHuman,2020.1.3,60.01559449685405,
Human.xlsx,h,Sychronize.jpg,Number8.jpg,8,Human,,,,,0,4,4,4,0,5,5,5,,,,,,,,,,,,,,,,,,,,,,,,,,,,,1346.6681079808318,None,1346.6681079808318,None,1347.1182602603412,None,1347.1182602603412,None,v,7.34731918131547,1347.1182602603412,None,t,7.0142610866987525,1347.1182602603412,None,7.34731918131547,7.0142610866987525,8.193879110233295,False,False,False,1354.5493687794606,None,1354.5493687794606,None,1354.5493687794606,None,1354.5493687794606,None,1354.5493687794606,None,1354.5493687794606,None,1354.5493687794606,None,1354.5493687794606,None,1355.518314281553,None,1355.518314281553,None,1356.5158252638344,None,1356.5158252638344,None,h,,,,,,,,,,,,,,,,,,,,,,,,,,,,,,,,,,,,,,,,,,,,,,,75_76Exp,001,2021_May_27_1039,ComputerHuman,2020.1.3,60.01559449685405,
Human.xlsx,h,Sychronize.jpg,Number9.jpg,9,Human,,,,,0,4,4,4,0,6,6,6,,,,,,,,,,,,,,,,,,,,,,,,,,,,,1357.5829636216536,None,1357.5829636216536,None,1358.0156340723715,None,1358.0156340723715,None,v,8.733510538306746,1358.0156340723715,None,t,8.117209669668682,1358.0156340723715,None,8.733510538306746,8.117209669668682,9.401257010544988,False,False,False,1366.846932628106,None,1366.846932628106,None,1366.846932628106,None,1366.846932628106,None,1366.846932628106,None,1366.846932628106,None,1366.846932628106,None,1366.846932628106,None,1367.8144676119737,None,1367.8144676119737,None,1368.8131770695995,None,1368.8131770695995,None,h,,,,,,,,,,,,,,,,,,,,,,,,,,,,,,,,,,,,,,,,,,,,,,,75_76Exp,001,2021_May_27_1039,ComputerHuman,2020.1.3,60.01559449685405,
Human.xlsx,h,Sychronize.jpg,Number7.jpg,7,Human,,,,,0,4,4,4,0,7,7,3,,,,,,,,,,,,,,,,,,,,,,,,,,,,,1369.8636971681208,None,1369.8636971681208,None,1370.313500747764,None,1370.313500747764,None,v,6.531405122519573,1370.313500747764,None,t,5.846360978463963,1370.313500747764,None,6.531405122519573,5.846360978463963,6.735682760154089,False,False,False,1376.9130444545813,None,1376.9130444545813,None,1376.9130444545813,None,1376.9130444545813,None,1376.9130444545813,None,1376.9130444545813,None,1376.9130444545813,None,1376.9130444545813,None,1377.9132651588202,None,1377.9132651588202,None,1378.911197981326,None,1378.911197981326,None,h,,,,,,,,,,,,,,,,,,,,,,,,,,,,,,,,,,,,,,,,,,,,,,,75_76Exp,001,2021_May_27_1039,ComputerHuman,2020.1.3,60.01559449685405,
Human.xlsx,h,Sychronize.jpg,Number10.jpg,10,Human,,,,,0,4,4,4,0,8,8,8,,,,,,,,,,,,,,,,,,,,,,,,,,,,,1379.9618412636087,None,1379.9618412636087,None,1380.4111954149976,None,1380.4111954149976,None,v,9.421171374916867,1380.4111954149976,None,t,9.5841527940579,1380.4111954149976,None,9.421171374916867,9.5841527940579,10.165007881564835,True,False,False,1390.0606580579179,None,1390.0606580579179,None,1390.0606580579179,None,1390.0606580579179,None,1390.0606580579179,None,1390.0606580579179,None,1390.0606580579179,None,1390.0606580579179,None,1391.0608470038437,None,1391.0608470038437,None,1392.0751626250203,None,1392.0751626250203,None,h,,,,,,,,,,,,,,,,,,,,,,,,,,,,,,,,,,,,,,,,,,,,,,,75_76Exp,001,2021_May_27_1039,ComputerHuman,2020.1.3,60.01559449685405,
Human.xlsx,h,Sychronize.jpg,Number6.jpg,6,Human,,,,,0,4,4,4,0,9,9,0,,,,,,,,,,,,,,,,,,,,,,,,,,,,,1393.1257305214071,None,1393.1257305214071,None,1393.5753502877815,None,1393.5753502877815,None,v,6.348631537481197,1393.5753502877815,None,t,6.064372497428849,1393.5753502877815,None,6.348631537481197,6.064372497428849,5.556563737092869,True,False,False,1399.9903406608423,None,1399.9903406608423,None,1399.9903406608423,None,1399.9903406608423,None,1399.9903406608423,None,1399.9903406608423,None,1399.9903406608423,None,1399.9903406608423,None,1400.9921239382616,None,1400.9921239382616,None,1401.973136316305,None,1401.973136316305,None,h,,,,,,,,,,,,,,,,,,,,,,,,,,,,,,,,,,,,,,,,,,,,,,,75_76Exp,001,2021_May_27_1039,ComputerHuman,2020.1.3,60.01559449685405,
Human.xlsx,h,,,,,,,,,0,4,4,4,,,,,,,,,,,,,,,,,,,,,,,,,,,,,,,,,,,,,,,,,,,,,,,,,,,,,,,,,,,,,,,,,,,,,,,,,,,,,,,h,1402.9736806987084,None,1402.9736806987084,None,a,0,2.6141740240091167,1402.9736806987084,None,o,1,3.0014028192399564,1402.9736806987084,None,c,h,1406.0557672776454,None,1406.0557672776454,None,None,None,1408.07195182745,None,1408.07195182745,None,"['space', 'space']",1409.0550374780178,None,"[4.500560742746529, 13.52424378322985]",,,,,,,,,,,,,,,,,75_76Exp,001,2021_May_27_1039,ComputerHuman,2020.1.3,60.01559449685405,
Computer.xlsx,c,Sychronize.jpg,Number9.jpg,9,Computer,,,,,0,5,5,7,0,0,0,6,,,,,,,,,,,,,,,,,,,,,,,,,1422.6216818176276,None,1422.6216818176276,None,1425.7191410242344,None,1425.7191410242344,None,1426.1520684285792,None,1426.1520684285792,None,v,8.770791911189463,1426.1520684285792,None,t,7.494254311592158,1426.1520684285792,None,8.770791911189463,7.494254311592158,8.37805259931674,False,False,False,1435.0001042570893,None,1435.0001042570893,None,1435.0001042570893,None,1435.0001042570893,None,1435.0001042570893,None,1435.0001042570893,None,1435.0001042570893,None,1435.0001042570893,None,1436.0328727415508,None,1436.0328727415508,None,1436.999381194074,None,1436.999381194074,None,c,,,,,,,,,,,,,,,,,,,,,,,,,,,,,,,,,,,,,,,,,,,,,,,75_76Exp,001,2021_May_27_1039,ComputerHuman,2020.1.3,60.01559449685405,
Computer.xlsx,c,Sychronize.jpg,Number7.jpg,7,Computer,,,,,0,5,5,7,0,1,1,3,,,,,,,,,,,,,,,,,,,,,,,,,,,,,1438.0676413581778,None,1438.0676413581778,None,1438.499573027119,None,1438.499573027119,None,v,6.262916491033593,1438.499573027119,None,t,6.150307285742201,1438.499573027119,None,6.262916491033593,6.150307285742201,6.5547156118483105,False,True,False,1444.832619894049,None,1444.832619894049,None,1444.832619894049,None,1444.832619894049,None,1444.832619894049,None,1444.832619894049,None,1444.832619894049,None,1444.832619894049,None,1445.8475613785545,None,1445.8475613785545,None,1446.8307410208981,None,1446.8307410208981,None,c,,,,,,,,,,,,,,,,,,,,,,,,,,,,,,,,,,,,,,,,,,,,,,,75_76Exp,001,2021_May_27_1039,ComputerHuman,2020.1.3,60.01559449685405,
Computer.xlsx,c,Sychronize.jpg,Number8.jpg,8,Computer,,,,,0,5,5,7,0,2,2,5,,,,,,,,,,,,,,,,,,,,,,,,,,,,,1447.8811257455986,None,1447.8811257455986,None,1448.3308844144954,None,1448.3308844144954,None,v,7.643009610258105,1448.3308844144954,None,t,6.334305330199641,1448.3308844144954,None,7.643009610258105,6.334305330199641,7.704532613938035,False,True,False,1456.0292840521297,None,1456.0292840521297,None,1456.0292840521297,None,1456.0292840521297,None,1456.0292840521297,None,1456.0292840521297,None,1456.0292840521297,None,1456.0292840521297,None,1457.0450830110985,None,1457.0450830110985,None,1458.0284217658004,None,1458.0284217658004,None,c,,,,,,,,,,,,,,,,,,,,,,,,,,,,,,,,,,,,,,,,,,,,,,,75_76Exp,001,2021_May_27_1039,ComputerHuman,2020.1.3,60.01559449685405,
Computer.xlsx,c,Sychronize.jpg,Number8.jpg,8,Computer,,,,,0,5,5,7,0,3,3,4,,,,,,,,,,,,,,,,,,,,,,,,,,,,,1459.0955274029334,None,1459.0955274029334,None,1459.54544871289,None,1459.54544871289,None,v,7.320270721978886,1459.54544871289,None,t,8.091227840556712,1459.54544871289,None,7.320270721978886,8.091227840556712,7.7816885638583155,False,False,False,1467.726456343226,None,1467.726456343226,None,1467.726456343226,None,1467.726456343226,None,1467.726456343226,None,1467.726456343226,None,1467.726456343226,None,1467.726456343226,None,1468.7095394274647,None,1468.7095394274647,None,1469.6927161826893,None,1469.6927161826893,None,c,,,,,,,,,,,,,,,,,,,,,,,,,,,,,,,,,,,,,,,,,,,,,,,75_76Exp,001,2021_May_27_1039,ComputerHuman,2020.1.3,60.01559449685405,
Computer.xlsx,c,Sychronize.jpg,Number6.jpg,6,Computer,,,,,0,5,5,7,0,4,4,0,,,,,,,,,,,,,,,,,,,,,,,,,,,,,1470.742743546165,None,1470.742743546165,None,1471.1929734571072,None,1471.1929734571072,None,v,5.528397385681274,1471.1929734571072,None,t,5.719325158293941,1471.1929734571072,None,5.528397385681274,5.719325158293941,6.43866030231782,False,False,False,1477.007896592365,None,1477.007896592365,None,1477.007896592365,None,1477.007896592365,None,1477.007896592365,None,1477.007896592365,None,1477.007896592365,None,1477.007896592365,None,1478.007697060335,None,1478.007697060335,None,1478.990843981992,None,1478.990843981992,None,c,,,,,,,,,,,,,,,,,,,,,,,,,,,,,,,,,,,,,,,,,,,,,,,75_76Exp,001,2021_May_27_1039,ComputerHuman,2020.1.3,60.01559449685405,
Computer.xlsx,c,Sychronize.jpg,Number10.jpg,10,Computer,,,,,0,5,5,7,0,5,5,9,,,,,,,,,,,,,,,,,,,,,,,,,,,,,1480.0407186489306,None,1480.0407186489306,None,1480.4908244137382,None,1480.4908244137382,None,v,10.066080709743801,1480.4908244137382,None,t,9.537534477017289,1480.4908244137382,None,10.066080709743801,9.537534477017289,9.350596006914518,False,False,True,1490.6222730355234,None,1490.6222730355234,None,1490.6222730355234,None,1490.6222730355234,None,1490.6222730355234,None,1490.6222730355234,None,1490.6222730355234,None,1490.6222730355234,None,1491.6381124141644,None,1491.6381124141644,None,1492.638109527045,None,1492.638109527045,None,c,,,,,,,,,,,,,,,,,,,,,,,,,,,,,,,,,,,,,,,,,,,,,,,75_76Exp,001,2021_May_27_1039,ComputerHuman,2020.1.3,60.01559449685405,
Computer.xlsx,c,Sychronize.jpg,Number6.jpg,6,Computer,,,,,0,5,5,7,0,6,6,1,,,,,,,,,,,,,,,,,,,,,,,,,,,,,1493.688607490984,None,1493.688607490984,None,1494.138196461418,None,1494.138196461418,None,v,5.726412715644074,1494.138196461418,None,t,5.025341530186324,1494.138196461418,None,5.726412715644074,5.025341530186324,5.779750476689193,False,True,False,1499.9378740022594,None,1499.9378740022594,None,1499.9378740022594,None,1499.9378740022594,None,1499.9378740022594,None,1499.9378740022594,None,1499.9378740022594,None,1499.9378740022594,None,1500.9530483810636,None,1500.9530483810636,None,1501.9195452851095,None,1501.9195452851095,None,c,,,,,,,,,,,,,,,,,,,,,,,,,,,,,,,,,,,,,,,,,,,,,,,75_76Exp,001,2021_May_27_1039,ComputerHuman,2020.1.3,60.01559449685405,
Computer.xlsx,c,Sychronize.jpg,Number9.jpg,9,Computer,,,,,0,5,5,7,0,7,7,7,,,,,,,,,,,,,,,,,,,,,,,,,,,,,1502.9876643011535,None,1502.9876643011535,None,1503.4196312571094,None,1503.4196312571094,None,v,8.348562246615074,1503.4196312571094,None,t,7.580237218562161,1503.4196312571094,None,8.348562246615074,7.580237218562161,9.000409604275758,False,False,False,1511.8347765722451,None,1511.8347765722451,None,1511.8347765722451,None,1511.8347765722451,None,1511.8347765722451,None,1511.8347765722451,None,1511.8347765722451,None,1511.8347765722451,None,1512.8505354323333,None,1512.8505354323333,None,1513.833801688259,None,1513.833801688259,None,c,,,,,,,,,,,,,,,,,,,,,,,,,,,,,,,,,,,,,,,,,,,,,,,75_76Exp,001,2021_May_27_1039,ComputerHuman,2020.1.3,60.01559449685405,
Computer.xlsx,c,Sychronize.jpg,Number10.jpg,10,Computer,,,,,0,5,5,7,0,8,8,8,,,,,,,,,,,,,,,,,,,,,,,,,,,,,1514.8675357537659,None,1514.8675357537659,None,1515.3336493125125,None,1515.3336493125125,None,v,9.566045101938016,1515.3336493125125,None,t,9.357189280189687,1515.3336493125125,None,9.566045101938016,9.357189280189687,9.537131663372678,False,True,True,1525.0148850252813,None,1525.0148850252813,None,1525.0148850252813,None,1525.0148850252813,None,1525.0148850252813,None,1525.0148850252813,None,1525.0148850252813,None,1525.0148850252813,None,1525.9979661847742,None,1525.9979661847742,None,1526.9811483934463,None,1526.9811483934463,None,c,,,,,,,,,,,,,,,,,,,,,,,,,,,,,,,,,,,,,,,,,,,,,,,75_76Exp,001,2021_May_27_1039,ComputerHuman,2020.1.3,60.01559449685405,
Computer.xlsx,c,Sychronize.jpg,Number7.jpg,7,Computer,,,,,0,5,5,7,0,9,9,2,,,,,,,,,,,,,,,,,,,,,,,,,,,,,1528.0641453773687,None,1528.0641453773687,None,1528.4980242479533,None,1528.4980242479533,None,v,6.797370090854201,1528.4980242479533,None,t,6.092313718244441,1528.4980242479533,None,6.797370090854201,6.092313718244441,7.370324942127454,False,False,False,1535.3794338936268,None,1535.3794338936268,None,1535.3794338936268,None,1535.3794338936268,None,1535.3794338936268,None,1535.3794338936268,None,1535.3794338936268,None,1535.3794338936268,None,1536.3623075013134,None,1536.3623075013134,None,1537.3456661450605,None,1537.3456661450605,None,c,,,,,,,,,,,,,,,,,,,,,,,,,,,,,,,,,,,,,,,,,,,,,,,75_76Exp,001,2021_May_27_1039,ComputerHuman,2020.1.3,60.01559449685405,
Computer.xlsx,c,,,,,,,,,0,5,5,7,,,,,,,,,,,,,,,,,,,,,,,,,,,,,,,,,,,,,,,,,,,,,,,,,,,,,,,,,,,,,,,,,,,,,,,,,,,,,,,c,1538.3468476184794,None,1538.3468476184794,None,q,0,1.4123788131632864,1538.3468476184794,None,l,1,8.37162038614224,1538.3468476184794,None,h,c,1546.810860316672,None,1546.810860316672,None,1548.810083681552,None,None,None,None,None,None,None,None,,,,,,,,,,,,,,,,,,75_76Exp,001,2021_May_27_1039,ComputerHuman,2020.1.3,60.01559449685405,
Human.xlsx,h,Sychronize.jpg,Number9.jpg,9,Human,,,,,0,6,6,2,0,0,0,6,,,,,,,,,,,,,,,,,,,,,,,,,1553.7955018038078,None,1553.7955018038078,None,1556.8921061022797,None,1556.8921061022797,None,1557.308875903267,None,1557.308875903267,None,v,8.781386997825848,1557.308875903267,None,t,8.089185684763834,1557.308875903267,None,8.781386997825848,8.089185684763834,8.517255140832107,False,False,False,1566.156849819106,None,1566.156849819106,None,1566.156849819106,None,1566.156849819106,None,1566.156849819106,None,1566.156849819106,None,1566.156849819106,None,1566.156849819106,None,1567.1749992140617,None,1567.1749992140617,None,1568.1560452751646,None,1568.1560452751646,None,h,,,,,,,,,,,,,,,,,,,,,,,,,,,,,,,,,,,,,,,,,,,,,,,75_76Exp,001,2021_May_27_1039,ComputerHuman,2020.1.3,60.01559449685405,
Human.xlsx,h,Sychronize.jpg,Number7.jpg,7,Human,,,,,0,6,6,2,0,1,1,2,,,,,,,,,,,,,,,,,,,,,,,,,,,,,1569.2241992574327,None,1569.2241992574327,None,1569.6564250917622,None,1569.6564250917622,None,v,6.749512558007154,1569.6564250917622,None,t,7.177315325407108,1569.6564250917622,None,6.749512558007154,7.177315325407108,6.9658602120830055,False,False,False,1576.9055183758733,None,1576.9055183758733,None,1576.9055183758733,None,1576.9055183758733,None,1576.9055183758733,None,1576.9055183758733,None,1576.9055183758733,None,1576.9055183758733,None,1577.9066806018295,None,1577.9066806018295,None,1578.9039856362601,None,1578.9039856362601,None,h,,,,,,,,,,,,,,,,,,,,,,,,,,,,,,,,,,,,,,,,,,,,,,,75_76Exp,001,2021_May_27_1039,ComputerHuman,2020.1.3,60.01559449685405,
Human.xlsx,h,Sychronize.jpg,Number6.jpg,6,Human,,,,,0,6,6,2,0,2,2,1,,,,,,,,,,,,,,,,,,,,,,,,,,,,,1579.9377094364536,None,1579.9377094364536,None,1580.4042522136183,None,1580.4042522136183,None,v,5.981418499506162,1580.4042522136183,None,t,5.196356840259341,1580.4042522136183,None,5.981418499506162,5.196356840259341,6.35836496911903,False,False,False,1586.4690872917345,None,1586.4690872917345,None,1586.4690872917345,None,1586.4690872917345,None,1586.4690872917345,None,1586.4690872917345,None,1586.4690872917345,None,1586.4690872917345,None,1587.4374370848564,None,1587.4374370848564,None,1588.4353015788693,None,1588.4353015788693,None,h,,,,,,,,,,,,,,,,,,,,,,,,,,,,,,,,,,,,,,,,,,,,,,,75_76Exp,001,2021_May_27_1039,ComputerHuman,2020.1.3,60.01559449685405,
Human.xlsx,h,Sychronize.jpg,Number10.jpg,10,Human,,,,,0,6,6,2,0,3,3,9,,,,,,,,,,,,,,,,,,,,,,,,,,,,,1589.5036566971226,None,1589.5036566971226,None,1589.9354869960935,None,1589.9354869960935,None,v,9.825705563863721,1589.9354869960935,None,t,3.9973775332068726,1589.9354869960935,None,9.825705563863721,3.9973775332068726,10.202687578456475,False,False,False,1599.8343422211701,None,1599.8343422211701,None,1599.8343422211701,None,1599.8343422211701,None,1599.8343422211701,None,1599.8343422211701,None,1599.8343422211701,None,1599.8343422211701,None,1600.8349372885586,None,1600.8349372885586,None,1601.8157658533328,None,1601.8157658533328,None,h,,,,,,,,,,,,,,,,,,,,,,,,,,,,,,,,,,,,,,,,,,,,,,,75_76Exp,001,2021_May_27_1039,ComputerHuman,2020.1.3,60.01559449685405,
Human.xlsx,h,Sychronize.jpg,Number9.jpg,9,Human,,,,,0,6,6,2,0,4,4,7,,,,,,,,,,,,,,,,,,,,,,,,,,,,,1602.8826485406894,None,1602.8826485406894,None,1603.3160763790647,None,1603.3160763790647,None,v,8.904957633126287,1603.3160763790647,None,t,8.724220750432778,1603.3160763790647,None,8.904957633126287,8.724220750432778,8.496127110634973,True,False,False,1612.3138414278537,None,1612.3138414278537,None,1612.3138414278537,None,1612.3138414278537,None,1612.3138414278537,None,1612.3138414278537,None,1612.3138414278537,None,1612.3138414278537,None,1613.2984017548551,None,1613.2984017548551,None,1614.2967875343165,None,1614.2967875343165,None,h,,,,,,,,,,,,,,,,,,,,,,,,,,,,,,,,,,,,,,,,,,,,,,,75_76Exp,001,2021_May_27_1039,ComputerHuman,2020.1.3,60.01559449685405,
Human.xlsx,h,Sychronize.jpg,Number7.jpg,7,Human,,,,,0,6,6,2,0,5,5,3,,,,,,,,,,,,,,,,,,,,,,,,,,,,,1615.347416060211,None,1615.347416060211,None,1615.797090361063,None,1615.797090361063,None,v,7.251242904903847,1615.797090361063,None,t,6.0303625516235115,1615.797090361063,None,7.251242904903847,6.0303625516235115,6.892688244331234,False,False,False,1623.128599034932,None,1623.128599034932,None,1623.128599034932,None,1623.128599034932,None,1623.128599034932,None,1623.128599034932,None,1623.128599034932,None,1623.128599034932,None,1624.1143398729796,None,1624.1143398729796,None,1625.127879821409,None,1625.127879821409,None,h,,,,,,,,,,,,,,,,,,,,,,,,,,,,,,,,,,,,,,,,,,,,,,,75_76Exp,001,2021_May_27_1039,ComputerHuman,2020.1.3,60.01559449685405,
Human.xlsx,h,Sychronize.jpg,Number6.jpg,6,Human,,,,,0,6,6,2,0,6,6,0,,,,,,,,,,,,,,,,,,,,,,,,,,,,,1626.1787210317666,None,1626.1787210317666,None,1626.627906447066,None,1626.627906447066,None,v,6.244144119867997,1626.627906447066,None,t,6.447429725909387,1626.627906447066,None,6.244144119867997,6.447429725909387,5.832905280774085,True,False,False,1633.1433130785867,None,1633.1433130785867,None,1633.1433130785867,None,1633.1433130785867,None,1633.1433130785867,None,1633.1433130785867,None,1633.1433130785867,None,1633.1433130785867,None,1634.1451287559016,None,1634.1451287559016,None,1635.1258614041535,None,1635.1258614041535,None,h,,,,,,,,,,,,,,,,,,,,,,,,,,,,,,,,,,,,,,,,,,,,,,,75_76Exp,001,2021_May_27_1039,ComputerHuman,2020.1.3,60.01559449685405,
Human.xlsx,h,Sychronize.jpg,Number8.jpg,8,Human,,,,,0,6,6,2,0,7,7,4,,,,,,,,,,,,,,,,,,,,,,,,,,,,,1636.192367162032,None,1636.192367162032,None,1636.6261385676166,None,1636.6261385676166,None,v,8.417474578913698,1636.6261385676166,None,t,7.885216473004675,1636.6261385676166,None,8.417474578913698,7.885216473004675,7.995307727022971,False,False,False,1645.1235148176588,None,1645.1235148176588,None,1645.1235148176588,None,1645.1235148176588,None,1645.1235148176588,None,1645.1235148176588,None,1645.1235148176588,None,1645.1235148176588,None,1646.1257359748552,None,1646.1257359748552,None,1647.123528932465,None,1647.123528932465,None,h,,,,,,,,,,,,,,,,,,,,,,,,,,,,,,,,,,,,,,,,,,,,,,,75_76Exp,001,2021_May_27_1039,ComputerHuman,2020.1.3,60.01559449685405,
Human.xlsx,h,Sychronize.jpg,Number10.jpg,10,Human,,,,,0,6,6,2,0,8,8,8,,,,,,,,,,,,,,,,,,,,,,,,,,,,,1648.1571385310463,None,1648.1571385310463,None,1648.6235889203904,None,1648.6235889203904,None,v,9.855593665531615,1648.6235889203904,None,t,9.307207789833228,1648.6235889203904,None,9.855593665531615,9.307207789833228,10.53773671533765,False,False,False,1658.5555372704657,None,1658.5555372704657,None,1658.5555372704657,None,1658.5555372704657,None,1658.5555372704657,None,1658.5555372704657,None,1658.5555372704657,None,1658.5555372704657,None,1659.5570305527804,None,1659.5570305527804,None,1660.554043346569,None,1660.554043346569,None,h,,,,,,,,,,,,,,,,,,,,,,,,,,,,,,,,,,,,,,,,,,,,,,,75_76Exp,001,2021_May_27_1039,ComputerHuman,2020.1.3,60.01559449685405,
Human.xlsx,h,Sychronize.jpg,Number8.jpg,8,Human,,,,,0,6,6,2,0,9,9,5,,,,,,,,,,,,,,,,,,,,,,,,,,,,,1661.6044319207617,None,1661.6044319207617,None,1662.0542338964497,None,1662.0542338964497,None,v,7.716538125695024,1662.0542338964497,None,t,8.512231762547799,1662.0542338964497,None,7.716538125695024,8.512231762547799,7.448173554659585,False,False,False,1670.6371179619246,None,1670.6371179619246,None,1670.6371179619246,None,1670.6371179619246,None,1670.6371179619246,None,1670.6371179619246,None,1670.6371179619246,None,1670.6371179619246,None,1671.6204140514174,None,1671.6204140514174,None,1672.6182336346842,None,1672.6182336346842,None,h,,,,,,,,,,,,,,,,,,,,,,,,,,,,,,,,,,,,,,,,,,,,,,,75_76Exp,001,2021_May_27_1039,ComputerHuman,2020.1.3,60.01559449685405,
Human.xlsx,h,,,,,,,,,0,6,6,2,,,,,,,,,,,,,,,,,,,,,,,,,,,,,,,,,,,,,,,,,,,,,,,,,,,,,,,,,,,,,,,,,,,,,,,,,,,,,,,h,1673.6189380918195,None,1673.6189380918195,None,q,0,1.4316968498960705,1673.6189380918195,None,o,1,2.1624444149315423,1673.6189380918195,None,h,h,1675.8678466002884,None,1675.8678466002884,None,1677.8672765546012,None,None,None,None,None,None,None,None,,,,,,,,,,,,,,,,,,75_76Exp,001,2021_May_27_1039,ComputerHuman,2020.1.3,60.01559449685405,
Human.xlsx,h,Sychronize.jpg,Number7.jpg,7,Human,,,,,0,7,7,0,0,0,0,3,,,,,,,,,,,,,,,,,,,,,,,,,1682.86881089817,None,1682.86881089817,None,1685.948815543224,None,1685.948815543224,None,1686.365614215406,None,1686.365614215406,None,v,6.424374152710698,1686.365614215406,None,t,6.067267315819208,1686.365614215406,None,6.424374152710698,6.067267315819208,7.083236099878728,False,False,False,1692.8643868688678,None,1692.8643868688678,None,1692.8643868688678,None,1692.8643868688678,None,1692.8643868688678,None,1692.8643868688678,None,1692.8643868688678,None,1692.8643868688678,None,1693.865793858391,None,1693.865793858391,None,1694.8803981915084,None,1694.8803981915084,None,h,,,,,,,,,,,,,,,,,,,,,,,,,,,,,,,,,,,,,,,,,,,,,,,75_76Exp,001,2021_May_27_1039,ComputerHuman,2020.1.3,60.01559449685405,
Human.xlsx,h,Sychronize.jpg,Number9.jpg,9,Human,,,,,0,7,7,0,0,1,1,6,,,,,,,,,,,,,,,,,,,,,,,,,,,,,1695.9303238642233,None,1695.9303238642233,None,1696.380169467493,None,1696.380169467493,None,v,8.709442869360373,1696.380169467493,None,t,8.608246447078727,1696.380169467493,None,8.709442869360373,8.608246447078727,9.279605816426896,True,False,False,1705.1783197221694,None,1705.1783197221694,None,1705.1783197221694,None,1705.1783197221694,None,1705.1783197221694,None,1705.1783197221694,None,1705.1783197221694,None,1705.1783197221694,None,1706.1462486374398,None,1706.1462486374398,None,1707.1445609557518,None,1707.1445609557518,None,h,,,,,,,,,,,,,,,,,,,,,,,,,,,,,,,,,,,,,,,,,,,,,,,75_76Exp,001,2021_May_27_1039,ComputerHuman,2020.1.3,60.01559449685405,
Human.xlsx,h,Sychronize.jpg,Number8.jpg,8,Human,,,,,0,7,7,0,0,2,2,4,,,,,,,,,,,,,,,,,,,,,,,,,,,,,1708.2115851119593,None,1708.2115851119593,None,1708.661280905811,None,1708.661280905811,None,v,8.619872235342427,1708.661280905811,None,t,7.315257399526672,1708.661280905811,None,8.619872235342427,7.315257399526672,8.48772590010708,False,False,False,1717.3599711801326,None,1717.3599711801326,None,1717.3599711801326,None,1717.3599711801326,None,1717.3599711801326,None,1717.3599711801326,None,1717.3599711801326,None,1717.3599711801326,None,1718.3447788370295,None,1718.3447788370295,None,1719.342111780281,None,1719.342111780281,None,h,,,,,,,,,,,,,,,,,,,,,,,,,,,,,,,,,,,,,,,,,,,,,,,75_76Exp,001,2021_May_27_1039,ComputerHuman,2020.1.3,60.01559449685405,
Human.xlsx,h,Sychronize.jpg,Number9.jpg,9,Human,,,,,0,7,7,0,0,3,3,7,,,,,,,,,,,,,,,,,,,,,,,,,,,,,1720.3923479787277,None,1720.3923479787277,None,1720.8421284614155,None,1720.8421284614155,None,v,9.378641539745786,1720.8421284614155,None,t,8.60217258943203,1720.8421284614155,None,9.378641539745786,8.60217258943203,8.96781522212733,False,False,False,1730.2916372340883,None,1730.2916372340883,None,1730.2916372340883,None,1730.2916372340883,None,1730.2916372340883,None,1730.2916372340883,None,1730.2916372340883,None,1730.2916372340883,None,1731.291472668282,None,1731.291472668282,None,1732.2895187300264,None,1732.2895187300264,None,h,,,,,,,,,,,,,,,,,,,,,,,,,,,,,,,,,,,,,,,,,,,,,,,75_76Exp,001,2021_May_27_1039,ComputerHuman,2020.1.3,60.01559449685405,
Human.xlsx,h,Sychronize.jpg,Number8.jpg,8,Human,,,,,0,7,7,0,0,4,4,5,,,,,,,,,,,,,,,,,,,,,,,,,,,,,1733.3229746696975,None,1733.3229746696975,None,1733.789656670176,None,1733.789656670176,None,v,8.170647362744603,1733.789656670176,None,t,8.370203772887635,1733.789656670176,None,8.170647362744603,8.370203772887635,7.607164609323427,True,False,False,1742.2541226461153,None,1742.2541226461153,None,1742.2541226461153,None,1742.2541226461153,None,1742.2541226461153,None,1742.2541226461153,None,1742.2541226461153,None,1742.2541226461153,None,1743.2388706358784,None,1743.2388706358784,None,1744.2370799802648,None,1744.2370799802648,None,h,,,,,,,,,,,,,,,,,,,,,,,,,,,,,,,,,,,,,,,,,,,,,,,75_76Exp,001,2021_May_27_1039,ComputerHuman,2020.1.3,60.01559449685405,
Human.xlsx,h,Sychronize.jpg,Number6.jpg,6,Human,,,,,0,7,7,0,0,5,5,1,,,,,,,,,,,,,,,,,,,,,,,,,,,,,1745.2875490730098,None,1745.2875490730098,None,1745.7371787839065,None,1745.7371787839065,None,v,6.430788369656511,1745.7371787839065,None,t,5.766316234528858,1745.7371787839065,None,6.430788369656511,5.766316234528858,6.303806012716236,False,False,False,1752.2360925854282,None,1752.2360925854282,None,1752.2360925854282,None,1752.2360925854282,None,1752.2360925854282,None,1752.2360925854282,None,1752.2360925854282,None,1752.2360925854282,None,1753.2204562675192,None,1753.2204562675192,None,1754.2183518782635,None,1754.2183518782635,None,h,,,,,,,,,,,,,,,,,,,,,,,,,,,,,,,,,,,,,,,,,,,,,,,75_76Exp,001,2021_May_27_1039,ComputerHuman,2020.1.3,60.01559449685405,
Human.xlsx,h,Sychronize.jpg,Number7.jpg,7,Human,,,,,0,7,7,0,0,6,6,2,,,,,,,,,,,,,,,,,,,,,,,,,,,,,1755.2684344177992,None,1755.2684344177992,None,1755.7181581204723,None,1755.7181581204723,None,v,6.701408336845816,1755.7181581204723,None,t,7.124268997406034,1755.7181581204723,None,6.701408336845816,7.124268997406034,7.343369799857088,False,False,False,1762.917007827943,None,1762.917007827943,None,1762.917007827943,None,1762.917007827943,None,1762.917007827943,None,1762.917007827943,None,1762.917007827943,None,1762.917007827943,None,1763.9186294266756,None,1763.9186294266756,None,1764.9162552521511,None,1764.9162552521511,None,h,,,,,,,,,,,,,,,,,,,,,,,,,,,,,,,,,,,,,,,,,,,,,,,75_76Exp,001,2021_May_27_1039,ComputerHuman,2020.1.3,60.01559449685405,
Human.xlsx,h,Sychronize.jpg,Number6.jpg,6,Human,,,,,0,7,7,0,0,7,7,0,,,,,,,,,,,,,,,,,,,,,,,,,,,,,1765.9665087733142,None,1765.9665087733142,None,1766.4163271093453,None,1766.4163271093453,None,v,5.662985268633747,1766.4163271093453,None,t,6.918267895167901,1766.4163271093453,None,5.662985268633747,6.918267895167901,5.957705871903105,False,False,False,1773.398145635285,None,1773.398145635285,None,1773.398145635285,None,1773.398145635285,None,1773.398145635285,None,1773.398145635285,None,1773.398145635285,None,1773.398145635285,None,1774.400088987436,None,1774.400088987436,None,1775.4141203877466,None,1775.4141203877466,None,h,,,,,,,,,,,,,,,,,,,,,,,,,,,,,,,,,,,,,,,,,,,,,,,75_76Exp,001,2021_May_27_1039,ComputerHuman,2020.1.3,60.01559449685405,
Human.xlsx,h,Sychronize.jpg,Number10.jpg,10,Human,,,,,0,7,7,0,0,8,8,8,,,,,,,,,,,,,,,,,,,,,,,,,,,,,1776.4644322928793,None,1776.4644322928793,None,1776.9139779565226,None,1776.9139779565226,None,v,9.532818848655097,1776.9139779565226,None,t,9.104254523314012,1776.9139779565226,None,9.532818848655097,9.104254523314012,9.934523333702382,False,False,False,1786.5300035864439,None,1786.5300035864439,None,1786.5300035864439,None,1786.5300035864439,None,1786.5300035864439,None,1786.5300035864439,None,1786.5300035864439,None,1786.5300035864439,None,1787.5138803077284,None,1787.5138803077284,None,1788.5112571993527,None,1788.5112571993527,None,h,,,,,,,,,,,,,,,,,,,,,,,,,,,,,,,,,,,,,,,,,,,,,,,75_76Exp,001,2021_May_27_1039,ComputerHuman,2020.1.3,60.01559449685405,
Human.xlsx,h,Sychronize.jpg,Number10.jpg,10,Human,,,,,0,7,7,0,0,9,9,9,,,,,,,,,,,,,,,,,,,,,,,,,,,,,1789.561256654008,None,1789.561256654008,None,1790.0115661211294,None,1790.0115661211294,None,v,9.262812233943805,1790.0115661211294,None,t,9.586230878448077,1790.0115661211294,None,9.262812233943805,9.586230878448077,9.362883738975407,False,False,False,1799.6924977239873,None,1799.6924977239873,None,1799.6924977239873,None,1799.6924977239873,None,1799.6924977239873,None,1799.6924977239873,None,1799.6924977239873,None,1799.6924977239873,None,1800.6784788345276,None,1800.6784788345276,None,1801.658729333839,None,1801.658729333839,None,h,,,,,,,,,,,,,,,,,,,,,,,,,,,,,,,,,,,,,,,,,,,,,,,75_76Exp,001,2021_May_27_1039,ComputerHuman,2020.1.3,60.01559449685405,
Human.xlsx,h,,,,,,,,,0,7,7,0,,,,,,,,,,,,,,,,,,,,,,,,,,,,,,,,,,,,,,,,,,,,,,,,,,,,,,,,,,,,,,,,,,,,,,,,,,,,,,,h,1802.6592454866304,None,1802.6592454866304,None,q,0,1.8949903345655912,1802.6592454866304,None,o,1,2.7304072057368103,1802.6592454866304,None,h,h,1805.4583985341133,None,1805.4583985341133,None,1807.4575676853065,None,None,None,None,None,None,None,None,,,,,,,,,,,,,,,,,,75_76Exp,001,2021_May_27_1039,ComputerHuman,2020.1.3,60.01559449685405,
Computer.xlsx,c,Sychronize.jpg,Number9.jpg,9,Computer,,,,,0,8,8,9,0,0,0,6,,,,,,,,,,,,,,,,,,,,,,,,,1812.4761491858003,None,1812.4761491858003,None,1815.539384158183,None,1815.539384158183,None,1815.9896939460955,None,1815.9896939460955,None,v,8.283794213827605,1815.9896939460955,None,t,8.339285611174091,1815.9896939460955,None,8.283794213827605,8.339285611174091,9.034961060979274,False,False,False,1824.3879919571268,None,1824.3879919571268,None,1824.3879919571268,None,1824.3879919571268,None,1824.3879919571268,None,1824.3879919571268,None,1824.3879919571268,None,1824.3879919571268,None,1825.4205724580356,None,1825.4205724580356,None,1826.4038448089914,None,1826.4038448089914,None,c,,,,,,,,,,,,,,,,,,,,,,,,,,,,,,,,,,,,,,,,,,,,,,,75_76Exp,001,2021_May_27_1039,ComputerHuman,2020.1.3,60.01559449685405,
Computer.xlsx,c,Sychronize.jpg,Number10.jpg,10,Computer,,,,,0,8,8,9,0,1,1,9,,,,,,,,,,,,,,,,,,,,,,,,,,,,,1827.4541342587513,None,1827.4541342587513,None,1827.9037553082899,None,1827.9037553082899,None,v,10.513282032429743,1827.9037553082899,None,t,10.212196218900317,1827.9037553082899,None,10.513282032429743,10.212196218900317,9.464962759965907,False,False,False,1838.4852753702407,None,1838.4852753702407,None,1838.4852753702407,None,1838.4852753702407,None,1838.4852753702407,None,1838.4852753702407,None,1838.4852753702407,None,1838.4852753702407,None,1839.4841975123295,None,1839.4841975123295,None,1840.4674836573,None,1840.4674836573,None,c,,,,,,,,,,,,,,,,,,,,,,,,,,,,,,,,,,,,,,,,,,,,,,,75_76Exp,001,2021_May_27_1039,ComputerHuman,2020.1.3,60.01559449685405,
Computer.xlsx,c,Sychronize.jpg,Number7.jpg,7,Computer,,,,,0,8,8,9,0,2,2,2,,,,,,,,,,,,,,,,,,,,,,,,,,,,,1841.5345090966716,None,1841.5345090966716,None,1841.9841195601057,None,1841.9841195601057,None,v,6.940579874724335,1841.9841195601057,None,t,6.064345230190156,1841.9841195601057,None,6.940579874724335,6.064345230190156,7.500271654320516,False,False,False,1849.015786127327,None,1849.015786127327,None,1849.015786127327,None,1849.015786127327,None,1849.015786127327,None,1849.015786127327,None,1849.015786127327,None,1849.015786127327,None,1850.0156103338345,None,1850.0156103338345,None,1850.9820623271335,None,1850.9820623271335,None,c,,,,,,,,,,,,,,,,,,,,,,,,,,,,,,,,,,,,,,,,,,,,,,,75_76Exp,001,2021_May_27_1039,ComputerHuman,2020.1.3,60.01559449685405,
Computer.xlsx,c,Sychronize.jpg,Number7.jpg,7,Computer,,,,,0,8,8,9,0,3,3,3,,,,,,,,,,,,,,,,,,,,,,,,,,,,,1852.0320964272219,None,1852.0320964272219,None,1852.4819978481337,None,1852.4819978481337,None,v,6.902336770288912,1852.4819978481337,None,t,6.137307228641021,1852.4819978481337,None,6.902336770288912,6.137307228641021,6.878973473609002,False,True,False,1859.480343528714,None,1859.480343528714,None,1859.480343528714,None,1859.480343528714,None,1859.480343528714,None,1859.480343528714,None,1859.480343528714,None,1859.480343528714,None,1860.47994318149,None,1860.47994318149,None,1861.4633265261473,None,1861.4633265261473,None,c,,,,,,,,,,,,,,,,,,,,,,,,,,,,,,,,,,,,,,,,,,,,,,,75_76Exp,001,2021_May_27_1039,ComputerHuman,2020.1.3,60.01559449685405,
Computer.xlsx,c,Sychronize.jpg,Number8.jpg,8,Computer,,,,,0,8,8,9,0,4,4,4,,,,,,,,,,,,,,,,,,,,,,,,,,,,,1862.5134475606087,None,1862.5134475606087,None,1862.9634218010874,None,1862.9634218010874,None,v,7.588766090077115,1862.9634218010874,None,t,7.608198970004196,1862.9634218010874,None,7.588766090077115,7.608198970004196,7.448716412568822,False,True,True,1870.644875010185,None,1870.644875010185,None,1870.644875010185,None,1870.644875010185,None,1870.644875010185,None,1870.644875010185,None,1870.644875010185,None,1870.644875010185,None,1871.6444881361845,None,1871.6444881361845,None,1872.627609073767,None,1872.627609073767,None,c,,,,,,,,,,,,,,,,,,,,,,,,,,,,,,,,,,,,,,,,,,,,,,,75_76Exp,001,2021_May_27_1039,ComputerHuman,2020.1.3,60.01559449685405,
Computer.xlsx,c,Sychronize.jpg,Number10.jpg,10,Computer,,,,,0,8,8,9,0,5,5,8,,,,,,,,,,,,,,,,,,,,,,,,,,,,,1873.6944558325263,None,1873.6944558325263,None,1874.1277948117822,None,1874.1277948117822,None,v,10.083671607490487,1874.1277948117822,None,t,6.967268727300052,1874.1277948117822,None,10.083671607490487,6.967268727300052,10.494389463899301,False,False,False,1884.2927702680595,None,1884.2927702680595,None,1884.2927702680595,None,1884.2927702680595,None,1884.2927702680595,None,1884.2927702680595,None,1884.2927702680595,None,1884.2927702680595,None,1885.2915695471775,None,1885.2915695471775,None,1886.274904131596,None,1886.274904131596,None,c,,,,,,,,,,,,,,,,,,,,,,,,,,,,,,,,,,,,,,,,,,,,,,,75_76Exp,001,2021_May_27_1039,ComputerHuman,2020.1.3,60.01559449685405,
Computer.xlsx,c,Sychronize.jpg,Number6.jpg,6,Computer,,,,,0,8,8,9,0,6,6,1,,,,,,,,,,,,,,,,,,,,,,,,,,,,,1887.3413678658476,None,1887.3413678658476,None,1887.7748184803872,None,1887.7748184803872,None,v,5.632301605174234,1887.7748184803872,None,t,6.371518695381383,1887.7748184803872,None,5.632301605174234,6.371518695381383,6.191613681818447,False,False,True,1894.2234296797155,None,1894.2234296797155,None,1894.2234296797155,None,1894.2234296797155,None,1894.2234296797155,None,1894.2234296797155,None,1894.2234296797155,None,1894.2234296797155,None,1895.239581508834,None,1895.239581508834,None,1896.2229658158644,None,1896.2229658158644,None,c,,,,,,,,,,,,,,,,,,,,,,,,,,,,,,,,,,,,,,,,,,,,,,,75_76Exp,001,2021_May_27_1039,ComputerHuman,2020.1.3,60.01559449685405,
Computer.xlsx,c,Sychronize.jpg,Number6.jpg,6,Computer,,,,,0,8,8,9,0,7,7,0,,,,,,,,,,,,,,,,,,,,,,,,,,,,,1897.2731753886542,None,1897.2731753886542,None,1897.723019387969,None,1897.723019387969,None,v,5.363804953912222,1897.723019387969,None,t,5.587359421344445,1897.723019387969,None,5.363804953912222,5.587359421344445,6.2310503156881065,False,False,False,1903.404824504843,None,1903.404824504843,None,1903.404824504843,None,1903.404824504843,None,1903.404824504843,None,1903.404824504843,None,1903.404824504843,None,1903.404824504843,None,1904.3878941158582,None,1904.3878941158582,None,1905.3710291682464,None,1905.3710291682464,None,c,,,,,,,,,,,,,,,,,,,,,,,,,,,,,,,,,,,,,,,,,,,,,,,75_76Exp,001,2021_May_27_1039,ComputerHuman,2020.1.3,60.01559449685405,
Computer.xlsx,c,Sychronize.jpg,Number9.jpg,9,Computer,,,,,0,8,8,9,0,8,8,7,,,,,,,,,,,,,,,,,,,,,,,,,,,,,1906.4213186180064,None,1906.4213186180064,None,1906.8709082300225,None,1906.8709082300225,None,v,8.65949634522758,1906.8709082300225,None,t,8.63130683214331,1906.8709082300225,None,8.65949634522758,8.63130683214331,8.732163394454423,False,True,True,1915.60367004203,None,1915.60367004203,None,1915.60367004203,None,1915.60367004203,None,1915.60367004203,None,1915.60367004203,None,1915.60367004203,None,1915.60367004203,None,1916.618806567491,None,1916.618806567491,None,1917.5852816577453,None,1917.5852816577453,None,c,,,,,,,,,,,,,,,,,,,,,,,,,,,,,,,,,,,,,,,,,,,,,,,75_76Exp,001,2021_May_27_1039,ComputerHuman,2020.1.3,60.01559449685405,
Computer.xlsx,c,Sychronize.jpg,Number8.jpg,8,Computer,,,,,0,8,8,9,0,9,9,5,,,,,,,,,,,,,,,,,,,,,,,,,,,,,1918.6523218535049,None,1918.6523218535049,None,1919.0853397209244,None,1919.0853397209244,None,v,7.768715109963978,1919.0853397209244,None,t,7.596264259963846,1919.0853397209244,None,7.768715109963978,7.596264259963846,7.567510285333201,False,True,True,1926.9348165428091,None,1926.9348165428091,None,1926.9348165428091,None,1926.9348165428091,None,1926.9348165428091,None,1926.9348165428091,None,1926.9348165428091,None,1926.9348165428091,None,1927.9497766331951,None,1927.9497766331951,None,1928.9329562755388,None,1928.9329562755388,None,c,,,,,,,,,,,,,,,,,,,,,,,,,,,,,,,,,,,,,,,,,,,,,,,75_76Exp,001,2021_May_27_1039,ComputerHuman,2020.1.3,60.01559449685405,
Computer.xlsx,c,,,,,,,,,0,8,8,9,,,,,,,,,,,,,,,,,,,,,,,,,,,,,,,,,,,,,,,,,,,,,,,,,,,,,,,,,,,,,,,,,,,,,,,,,,,,,,,c,1929.933484297599,None,1929.933484297599,None,a,1,8.088260523389636,1929.933484297599,None,l,0,1.675487458032876,1929.933484297599,None,c,c,1938.0981777785473,None,1938.0981777785473,None,1940.0973151714275,None,None,None,None,None,None,None,None,,,,,,,,,,,,,,,,,,75_76Exp,001,2021_May_27_1039,ComputerHuman,2020.1.3,60.01559449685405,
Computer.xlsx,c,Sychronize.jpg,Number10.jpg,10,Computer,,,,,0,9,9,1,0,0,0,8,,,,,,,,,,,,,,,,,,,,,,,,,1945.1160192141,None,1945.1160192141,None,1948.1958897684976,None,1948.1958897684976,None,1948.629564936769,None,1948.629564936769,None,v,8.907399815352619,1948.629564936769,None,t,9.818182372275714,1948.629564936769,None,8.907399815352619,9.818182372275714,10.575020322749635,False,False,False,1958.5434472975599,None,1958.5434472975599,None,1958.5434472975599,None,1958.5434472975599,None,1958.5434472975599,None,1958.5434472975599,None,1958.5434472975599,None,1958.5434472975599,None,1959.5599805472307,None,1959.5599805472307,None,1960.54321408247,None,1960.54321408247,None,c,,,,,,,,,,,,,,,,,,,,,,,,,,,,,,,,,,,,,,,,,,,,,,,75_76Exp,001,2021_May_27_1039,ComputerHuman,2020.1.3,60.01559449685405,
Computer.xlsx,c,Sychronize.jpg,Number8.jpg,8,Computer,,,,,0,9,9,1,0,1,1,5,,,,,,,,,,,,,,,,,,,,,,,,,,,,,1961.593417239439,None,1961.593417239439,None,1962.043305507918,None,1962.043305507918,None,v,7.4412750289193355,1962.043305507918,None,t,7.360286517729946,1962.043305507918,None,7.4412750289193355,7.360286517729946,7.632018720738782,False,True,True,1969.5587400482596,None,1969.5587400482596,None,1969.5587400482596,None,1969.5587400482596,None,1969.5587400482596,None,1969.5587400482596,None,1969.5587400482596,None,1969.5587400482596,None,1970.5578257937814,None,1970.5578257937814,None,1971.5409403155427,None,1971.5409403155427,None,c,,,,,,,,,,,,,,,,,,,,,,,,,,,,,,,,,,,,,,,,,,,,,,,75_76Exp,001,2021_May_27_1039,ComputerHuman,2020.1.3,60.01559449685405,
Computer.xlsx,c,Sychronize.jpg,Number7.jpg,7,Computer,,,,,0,9,9,1,0,2,2,3,,,,,,,,,,,,,,,,,,,,,,,,,,,,,1972.59067640075,None,1972.59067640075,None,1973.040734367692,None,1973.040734367692,None,v,7.015443522491296,1973.040734367692,None,t,6.710292003256654,1973.040734367692,None,7.015443522491296,6.710292003256654,7.505016779124801,False,False,False,1980.13927143221,None,1980.13927143221,None,1980.13927143221,None,1980.13927143221,None,1980.13927143221,None,1980.13927143221,None,1980.13927143221,None,1980.13927143221,None,1981.1391094327323,None,1981.1391094327323,None,1982.1221812892845,None,1982.1221812892845,None,c,,,,,,,,,,,,,,,,,,,,,,,,,,,,,,,,,,,,,,,,,,,,,,,75_76Exp,001,2021_May_27_1039,ComputerHuman,2020.1.3,60.01559449685405,
Computer.xlsx,c,Sychronize.jpg,Number10.jpg,10,Computer,,,,,0,9,9,1,0,3,3,9,,,,,,,,,,,,,,,,,,,,,,,,,,,,,1983.1727276926717,None,1983.1727276926717,None,1983.6221453606877,None,1983.6221453606877,None,v,9.213650364707519,1983.6221453606877,None,t,10.04516385044235,1983.6221453606877,None,9.213650364707519,10.04516385044235,9.782610525655649,False,False,True,1993.7367858148764,None,1993.7367858148764,None,1993.7367858148764,None,1993.7367858148764,None,1993.7367858148764,None,1993.7367858148764,None,1993.7367858148764,None,1993.7367858148764,None,1994.7526874269797,None,1994.7526874269797,None,1995.7361160031746,None,1995.7361160031746,None,c,,,,,,,,,,,,,,,,,,,,,,,,,,,,,,,,,,,,,,,,,,,,,,,75_76Exp,001,2021_May_27_1039,ComputerHuman,2020.1.3,60.01559449685405,
Computer.xlsx,c,Sychronize.jpg,Number8.jpg,8,Computer,,,,,0,9,9,1,0,4,4,4,,,,,,,,,,,,,,,,,,,,,,,,,,,,,1996.7861847486952,None,1996.7861847486952,None,1997.2361169655474,None,1997.2361169655474,None,v,6.879261628836048,1997.2361169655474,None,t,8.766195296304886,1997.2361169655474,None,6.879261628836048,8.766195296304886,8.577378286642297,False,False,True,2006.0674524122524,None,2006.0674524122524,None,2006.0674524122524,None,2006.0674524122524,None,2006.0674524122524,None,2006.0674524122524,None,2006.0674524122524,None,2006.0674524122524,None,2007.083526609938,None,2007.083526609938,None,2008.0668554201175,None,2008.0668554201175,None,c,,,,,,,,,,,,,,,,,,,,,,,,,,,,,,,,,,,,,,,,,,,,,,,75_76Exp,001,2021_May_27_1039,ComputerHuman,2020.1.3,60.01559449685405,
Computer.xlsx,c,Sychronize.jpg,Number6.jpg,6,Computer,,,,,0,9,9,1,0,5,5,1,,,,,,,,,,,,,,,,,,,,,,,,,,,,,2009.133787830086,None,2009.133787830086,None,2009.5838804424607,None,2009.5838804424607,None,v,5.887097912484478,2009.5838804424607,None,t,6.606245994121764,2009.5838804424607,None,5.887097912484478,6.606245994121764,6.299777111429972,False,False,False,2016.2664994062156,None,2016.2664994062156,None,2016.2664994062156,None,2016.2664994062156,None,2016.2664994062156,None,2016.2664994062156,None,2016.2664994062156,None,2016.2664994062156,None,2017.2815393735718,None,2017.2815393735718,None,2018.2481347604685,None,2018.2481347604685,None,c,,,,,,,,,,,,,,,,,,,,,,,,,,,,,,,,,,,,,,,,,,,,,,,75_76Exp,001,2021_May_27_1039,ComputerHuman,2020.1.3,60.01559449685405,
Computer.xlsx,c,Sychronize.jpg,Number7.jpg,7,Computer,,,,,0,9,9,1,0,6,6,2,,,,,,,,,,,,,,,,,,,,,,,,,,,,,2019.315409775273,None,2019.315409775273,None,2019.7480526379609,None,2019.7480526379609,None,v,6.666552465054792,2019.7480526379609,None,t,7.782242868333924,2019.7480526379609,None,6.666552465054792,7.782242868333924,7.210494575362068,False,False,False,2027.596457696964,None,2027.596457696964,None,2027.596457696964,None,2027.596457696964,None,2027.596457696964,None,2027.596457696964,None,2027.596457696964,None,2027.596457696964,None,2028.6127182742466,None,2028.6127182742466,None,2029.595895991844,None,2029.595895991844,None,c,,,,,,,,,,,,,,,,,,,,,,,,,,,,,,,,,,,,,,,,,,,,,,,75_76Exp,001,2021_May_27_1039,ComputerHuman,2020.1.3,60.01559449685405,
Computer.xlsx,c,Sychronize.jpg,Number9.jpg,9,Computer,,,,,0,9,9,1,0,7,7,6,,,,,,,,,,,,,,,,,,,,,,,,,,,,,2030.6460391608875,None,2030.6460391608875,None,2031.0960721061278,None,2031.0960721061278,None,v,9.250032881082006,2031.0960721061278,None,t,9.469203418092548,2031.0960721061278,None,9.250032881082006,9.469203418092548,9.308684880816763,False,True,True,2040.64449904308,None,2040.64449904308,None,2040.64449904308,None,2040.64449904308,None,2040.64449904308,None,2040.64449904308,None,2040.64449904308,None,2040.64449904308,None,2041.6600593335115,None,2041.6600593335115,None,2042.6432396174373,None,2042.6432396174373,None,c,,,,,,,,,,,,,,,,,,,,,,,,,,,,,,,,,,,,,,,,,,,,,,,75_76Exp,001,2021_May_27_1039,ComputerHuman,2020.1.3,60.01559449685405,
Computer.xlsx,c,Sychronize.jpg,Number9.jpg,9,Computer,,,,,0,9,9,1,0,8,8,7,,,,,,,,,,,,,,,,,,,,,,,,,,,,,2043.6937840960782,None,2043.6937840960782,None,2044.143635473587,None,2044.143635473587,None,v,8.758100134282813,2044.143635473587,None,t,8.833106854855487,2044.143635473587,None,8.758100134282813,8.833106854855487,9.1605567790405,False,False,False,2053.0744174274223,None,2053.0744174274223,None,2053.0744174274223,None,2053.0744174274223,None,2053.0744174274223,None,2053.0744174274223,None,2053.0744174274223,None,2053.0744174274223,None,2054.0573933674527,None,2054.0573933674527,None,2055.040671171856,None,2055.040671171856,None,c,,,,,,,,,,,,,,,,,,,,,,,,,,,,,,,,,,,,,,,,,,,,,,,75_76Exp,001,2021_May_27_1039,ComputerHuman,2020.1.3,60.01559449685405,
Computer.xlsx,c,Sychronize.jpg,Number6.jpg,6,Computer,,,,,0,9,9,1,0,9,9,0,,,,,,,,,,,,,,,,,,,,,,,,,,,,,2056.091125187422,None,2056.091125187422,None,2056.540707421244,None,2056.540707421244,None,v,6.756655612207396,2056.540707421244,None,t,5.492350416739555,2056.540707421244,None,6.756655612207396,5.492350416739555,6.442870847643884,False,False,False,2063.389078155605,None,2063.389078155605,None,2063.389078155605,None,2063.389078155605,None,2063.389078155605,None,2063.389078155605,None,2063.389078155605,None,2063.389078155605,None,2064.388782386262,None,2064.388782386262,None,2065.3720030898594,None,2065.3720030898594,None,c,,,,,,,,,,,,,,,,,,,,,,,,,,,,,,,,,,,,,,,,,,,,,,,75_76Exp,001,2021_May_27_1039,ComputerHuman,2020.1.3,60.01559449685405,
Computer.xlsx,c,,,,,,,,,0,9,9,1,,,,,,,,,,,,,,,,,,,,,,,,,,,,,,,,,,,,,,,,,,,,,,,,,,,,,,,,,,,,,,,,,,,,,,,,,,,,,,,c,2066.372894247382,None,2066.372894247382,None,q,0,16.295807838464953,2066.372894247382,None,o,0,1.8634908994786201,2066.372894247382,None,h,h,2082.7520814526956,None,2082.7520814526956,None,None,None,2084.751321819501,None,2084.751321819501,None,"['space', 'space']",2085.734479648054,None,"[409.29214247998425, 409.5921728909757]",,,,,,,,,,,,,,,,,75_76Exp,001,2021_May_27_1039,ComputerHuman,2020.1.3,60.01559449685405,
Computer.xlsx,c,Sychronize.jpg,Number6.jpg,6,Computer,,,,,1,0,10,5,0,0,0,0,,,,,,,,,,,,,,,,,,,,,,,,,2495.3869432912006,None,2495.3869432912006,None,2498.4510193777037,None,2498.4510193777037,None,2498.90091598675,None,2498.90091598675,None,v,5.381359923061609,2498.90091598675,None,t,5.79635061691306,2498.90091598675,None,5.381359923061609,5.79635061691306,6.176408129004069,False,False,False,2504.7664981230514,None,2504.7664981230514,None,2504.7664981230514,None,2504.7664981230514,None,2504.7664981230514,None,2504.7664981230514,None,2504.7664981230514,None,2504.7664981230514,None,2505.7823686184233,None,2505.7823686184233,None,2506.7657218087224,None,2506.7657218087224,None,c,,,,,,,,,,,,,,,,,,,,,,,,,,,,,,,,,,,,,,,,,,,,,,,75_76Exp,001,2021_May_27_1039,ComputerHuman,2020.1.3,60.01559449685405,
Computer.xlsx,c,Sychronize.jpg,Number6.jpg,6,Computer,,,,,1,0,10,5,0,1,1,1,,,,,,,,,,,,,,,,,,,,,,,,,,,,,2507.815571774751,None,2507.815571774751,None,2508.265881562663,None,2508.265881562663,None,v,5.55206310344829,2508.265881562663,None,t,6.283297308499186,2508.265881562663,None,5.55206310344829,6.283297308499186,6.156935444345364,False,False,True,2514.6311034506207,None,2514.6311034506207,None,2514.6311034506207,None,2514.6311034506207,None,2514.6311034506207,None,2514.6311034506207,None,2514.6311034506207,None,2514.6311034506207,None,2515.647314626083,None,2515.647314626083,None,2516.630492664471,None,2516.630492664471,None,c,,,,,,,,,,,,,,,,,,,,,,,,,,,,,,,,,,,,,,,,,,,,,,,75_76Exp,001,2021_May_27_1039,ComputerHuman,2020.1.3,60.01559449685405,
Computer.xlsx,c,Sychronize.jpg,Number9.jpg,9,Computer,,,,,1,0,10,5,0,2,2,7,,,,,,,,,,,,,,,,,,,,,,,,,,,,,2517.680341026544,None,2517.680341026544,None,2518.1139639058747,None,2518.1139639058747,None,v,8.7555742255945,2518.1139639058747,None,t,9.263208731675604,2518.1139639058747,None,8.7555742255945,9.263208731675604,8.478410973144799,False,True,False,2527.445348433609,None,2527.445348433609,None,2527.445348433609,None,2527.445348433609,None,2527.445348433609,None,2527.445348433609,None,2527.445348433609,None,2527.445348433609,None,2528.46131677025,None,2528.46131677025,None,2529.4445256045788,None,2529.4445256045788,None,c,,,,,,,,,,,,,,,,,,,,,,,,,,,,,,,,,,,,,,,,,,,,,,,75_76Exp,001,2021_May_27_1039,ComputerHuman,2020.1.3,60.01559449685405,
Computer.xlsx,c,Sychronize.jpg,Number10.jpg,10,Computer,,,,,1,0,10,5,0,3,3,9,,,,,,,,,,,,,,,,,,,,,,,,,,,,,2530.4951531681,None,2530.4951531681,None,2530.944778067131,None,2530.944778067131,None,v,9.6640910353658,2530.944778067131,None,t,10.331151633436093,2530.944778067131,None,9.6640910353658,10.331151633436093,9.804061304322534,False,True,False,2541.326972688492,None,2541.326972688492,None,2541.326972688492,None,2541.326972688492,None,2541.326972688492,None,2541.326972688492,None,2541.326972688492,None,2541.326972688492,None,2542.3583486190264,None,2542.3583486190264,None,2543.341620007609,None,2543.341620007609,None,c,,,,,,,,,,,,,,,,,,,,,,,,,,,,,,,,,,,,,,,,,,,,,,,75_76Exp,001,2021_May_27_1039,ComputerHuman,2020.1.3,60.01559449685405,
Computer.xlsx,c,Sychronize.jpg,Number8.jpg,8,Computer,,,,,1,0,10,5,0,4,4,4,,,,,,,,,,,,,,,,,,,,,,,,,,,,,2544.3921128388915,None,2544.3921128388915,None,2544.8417739873107,None,2544.8417739873107,None,v,8.374854280667478,2544.8417739873107,None,t,8.19426784897405,2544.8417739873107,None,8.374854280667478,8.19426784897405,8.546103882556801,False,True,False,2553.3063416540112,None,2553.3063416540112,None,2553.3063416540112,None,2553.3063416540112,None,2553.3063416540112,None,2553.3063416540112,None,2553.3063416540112,None,2553.3063416540112,None,2554.2892823070265,None,2554.2892823070265,None,2555.272553374818,None,2555.272553374818,None,c,,,,,,,,,,,,,,,,,,,,,,,,,,,,,,,,,,,,,,,,,,,,,,,75_76Exp,001,2021_May_27_1039,ComputerHuman,2020.1.3,60.01559449685405,
Computer.xlsx,c,Sychronize.jpg,Number8.jpg,8,Computer,,,,,1,0,10,5,0,5,5,5,,,,,,,,,,,,,,,,,,,,,,,,,,,,,2556.322980764727,None,2556.322980764727,None,2556.7725915489523,None,2556.7725915489523,None,v,7.879663900806463,2556.7725915489523,None,t,8.5792360297105,2556.7725915489523,None,7.879663900806463,8.5792360297105,7.9553514293755665,False,True,False,2565.4207274001105,None,2565.4207274001105,None,2565.4207274001105,None,2565.4207274001105,None,2565.4207274001105,None,2565.4207274001105,None,2565.4207274001105,None,2565.4207274001105,None,2566.4369103459603,None,2566.4369103459603,None,2567.4034277806327,None,2567.4034277806327,None,c,,,,,,,,,,,,,,,,,,,,,,,,,,,,,,,,,,,,,,,,,,,,,,,75_76Exp,001,2021_May_27_1039,ComputerHuman,2020.1.3,60.01559449685405,
Computer.xlsx,c,Sychronize.jpg,Number9.jpg,9,Computer,,,,,1,0,10,5,0,6,6,6,,,,,,,,,,,,,,,,,,,,,,,,,,,,,2568.4865104157643,None,2568.4865104157643,None,2568.9028381666917,None,2568.9028381666917,None,v,9.248914603499088,2568.9028381666917,None,t,9.868291858259454,2568.9028381666917,None,9.248914603499088,9.868291858259454,8.690921744936862,False,False,False,2578.8677692896467,None,2578.8677692896467,None,2578.8677692896467,None,2578.8677692896467,None,2578.8677692896467,None,2578.8677692896467,None,2578.8677692896467,None,2578.8677692896467,None,2579.8676002327657,None,2579.8676002327657,None,2580.8507603068556,None,2580.8507603068556,None,c,,,,,,,,,,,,,,,,,,,,,,,,,,,,,,,,,,,,,,,,,,,,,,,75_76Exp,001,2021_May_27_1039,ComputerHuman,2020.1.3,60.01559449685405,
Computer.xlsx,c,Sychronize.jpg,Number7.jpg,7,Computer,,,,,1,0,10,5,0,7,7,3,,,,,,,,,,,,,,,,,,,,,,,,,,,,,2581.90139492778,None,2581.90139492778,None,2582.35105928411,None,2582.35105928411,None,v,6.660324627705904,2582.35105928411,None,t,7.135267639177073,2582.35105928411,None,6.660324627705904,7.135267639177073,6.874050389261933,False,True,True,2589.5495827470877,None,2589.5495827470877,None,2589.5495827470877,None,2589.5495827470877,None,2589.5495827470877,None,2589.5495827470877,None,2589.5495827470877,None,2589.5495827470877,None,2590.565235746131,None,2590.565235746131,None,2591.5652537104297,None,2591.5652537104297,None,c,,,,,,,,,,,,,,,,,,,,,,,,,,,,,,,,,,,,,,,,,,,,,,,75_76Exp,001,2021_May_27_1039,ComputerHuman,2020.1.3,60.01559449685405,
Computer.xlsx,c,Sychronize.jpg,Number7.jpg,7,Computer,,,,,1,0,10,5,0,8,8,2,,,,,,,,,,,,,,,,,,,,,,,,,,,,,2592.6155072315923,None,2592.6155072315923,None,2593.065461903818,None,2593.065461903818,None,v,7.289564282355514,2593.065461903818,None,t,7.345267401791261,2593.065461903818,None,7.289564282355514,7.345267401791261,7.495702616019585,False,True,True,2600.4966782087286,None,2600.4966782087286,None,2600.4966782087286,None,2600.4966782087286,None,2600.4966782087286,None,2600.4966782087286,None,2600.4966782087286,None,2600.4966782087286,None,2601.496470336131,None,2601.496470336131,None,2602.4630137548784,None,2602.4630137548784,None,c,,,,,,,,,,,,,,,,,,,,,,,,,,,,,,,,,,,,,,,,,,,,,,,75_76Exp,001,2021_May_27_1039,ComputerHuman,2020.1.3,60.01559449685405,
Computer.xlsx,c,Sychronize.jpg,Number10.jpg,10,Computer,,,,,1,0,10,5,0,9,9,8,,,,,,,,,,,,,,,,,,,,,,,,,,,,,2603.530547327265,None,2603.530547327265,None,2603.9631016516246,None,2603.9631016516246,None,v,10.643416373303353,2603.9631016516246,None,t,10.07917219229239,2603.9631016516246,None,10.643416373303353,10.07917219229239,9.64670038604333,False,False,False,2614.6778597078105,None,2614.6778597078105,None,2614.6778597078105,None,2614.6778597078105,None,2614.6778597078105,None,2614.6778597078105,None,2614.6778597078105,None,2614.6778597078105,None,2615.6936798389884,None,2615.6936798389884,None,2616.6769117702725,None,2616.6769117702725,None,c,,,,,,,,,,,,,,,,,,,,,,,,,,,,,,,,,,,,,,,,,,,,,,,75_76Exp,001,2021_May_27_1039,ComputerHuman,2020.1.3,60.01559449685405,
Computer.xlsx,c,,,,,,,,,1,0,10,5,,,,,,,,,,,,,,,,,,,,,,,,,,,,,,,,,,,,,,,,,,,,,,,,,,,,,,,,,,,,,,,,,,,,,,,,,,,,,,,c,2617.678021386497,None,2617.678021386497,None,q,0,2.768260869844198,2617.678021386497,None,o,0,1.9434464635032782,2617.678021386497,None,h,h,2620.52609474756,None,2620.52609474756,None,2622.525584369007,None,None,None,None,None,None,None,None,,,,,,,,,,,,,,,,,,75_76Exp,001,2021_May_27_1039,ComputerHuman,2020.1.3,60.01559449685405,
Computer.xlsx,c,Sychronize.jpg,Number9.jpg,9,Computer,,,,,1,1,11,7,0,0,0,7,,,,,,,,,,,,,,,,,,,,,,,,,2627.5444988506056,None,2627.5444988506056,None,2630.6074415823464,None,2630.6074415823464,None,2631.0574539969602,None,2631.0574539969602,None,v,8.53223372578941,2631.0574539969602,None,t,8.515211590565286,2631.0574539969602,None,8.53223372578941,8.515211590565286,9.00356882316764,False,False,False,2639.6391639672097,None,2639.6391639672097,None,2639.6391639672097,None,2639.6391639672097,None,2639.6391639672097,None,2639.6391639672097,None,2639.6391639672097,None,2639.6391639672097,None,2640.6550771277907,None,2640.6550771277907,None,2641.638465284314,None,2641.638465284314,None,c,,,,,,,,,,,,,,,,,,,,,,,,,,,,,,,,,,,,,,,,,,,,,,,75_76Exp,001,2021_May_27_1039,ComputerHuman,2020.1.3,60.01559449685405,
Computer.xlsx,c,Sychronize.jpg,Number8.jpg,8,Computer,,,,,1,1,11,7,0,1,1,5,,,,,,,,,,,,,,,,,,,,,,,,,,,,,2642.705109944715,None,2642.705109944715,None,2643.171931810089,None,2643.171931810089,None,v,7.617311039638935,2643.171931810089,None,t,7.752208165158663,2643.171931810089,None,7.617311039638935,7.752208165158663,7.827182430813206,False,True,True,2651.003498867928,None,2651.003498867928,None,2651.003498867928,None,2651.003498867928,None,2651.003498867928,None,2651.003498867928,None,2651.003498867928,None,2651.003498867928,None,2652.002727044674,None,2652.002727044674,None,2652.98609467057,None,2652.98609467057,None,c,,,,,,,,,,,,,,,,,,,,,,,,,,,,,,,,,,,,,,,,,,,,,,,75_76Exp,001,2021_May_27_1039,ComputerHuman,2020.1.3,60.01559449685405,
Computer.xlsx,c,Sychronize.jpg,Number9.jpg,9,Computer,,,,,1,1,11,7,0,2,2,6,,,,,,,,,,,,,,,,,,,,,,,,,,,,,2654.0379004996,None,2654.0379004996,None,2654.4862059850625,None,2654.4862059850625,None,v,10.20255484404106,2654.4862059850625,None,t,9.762182200331608,2654.4862059850625,None,10.20255484404106,9.762182200331608,9.054730224398586,False,False,False,2664.7837483407084,None,2664.7837483407084,None,2664.7837483407084,None,2664.7837483407084,None,2664.7837483407084,None,2664.7837483407084,None,2664.7837483407084,None,2664.7837483407084,None,2665.783361787499,None,2665.783361787499,None,2666.7666614056934,None,2666.7666614056934,None,c,,,,,,,,,,,,,,,,,,,,,,,,,,,,,,,,,,,,,,,,,,,,,,,75_76Exp,001,2021_May_27_1039,ComputerHuman,2020.1.3,60.01559449685405,
Computer.xlsx,c,Sychronize.jpg,Number8.jpg,8,Computer,,,,,1,1,11,7,0,3,3,4,,,,,,,,,,,,,,,,,,,,,,,,,,,,,2667.8167510026324,None,2667.8167510026324,None,2668.249852917306,None,2668.249852917306,None,v,8.226542956808316,2668.249852917306,None,t,8.698165780962881,2668.249852917306,None,8.226542956808316,8.698165780962881,7.530248791454437,False,False,False,2677.0147583128187,None,2677.0147583128187,None,2677.0147583128187,None,2677.0147583128187,None,2677.0147583128187,None,2677.0147583128187,None,2677.0147583128187,None,2677.0147583128187,None,2678.031044553385,None,2678.031044553385,None,2679.014203665102,None,2679.014203665102,None,c,,,,,,,,,,,,,,,,,,,,,,,,,,,,,,,,,,,,,,,,,,,,,,,75_76Exp,001,2021_May_27_1039,ComputerHuman,2020.1.3,60.01559449685405,
Computer.xlsx,c,Sychronize.jpg,Number10.jpg,10,Computer,,,,,1,1,11,7,0,4,4,8,,,,,,,,,,,,,,,,,,,,,,,,,,,,,2680.064849513713,None,2680.064849513713,None,2680.5143008647883,None,2680.5143008647883,None,v,9.461631466265317,2680.5143008647883,None,t,10.109171287661866,2680.5143008647883,None,9.461631466265317,10.109171287661866,10.275204979650704,False,False,True,2690.695421734363,None,2690.695421734363,None,2690.695421734363,None,2690.695421734363,None,2690.695421734363,None,2690.695421734363,None,2690.695421734363,None,2690.695421734363,None,2691.7115177458395,None,2691.7115177458395,None,2692.694759300855,None,2692.694759300855,None,c,,,,,,,,,,,,,,,,,,,,,,,,,,,,,,,,,,,,,,,,,,,,,,,75_76Exp,001,2021_May_27_1039,ComputerHuman,2020.1.3,60.01559449685405,
Computer.xlsx,c,Sychronize.jpg,Number6.jpg,6,Computer,,,,,1,1,11,7,0,5,5,1,,,,,,,,,,,,,,,,,,,,,,,,,,,,,2693.7455783766304,None,2693.7455783766304,None,2694.195057957318,None,2694.195057957318,None,v,5.988784503482748,2694.195057957318,None,t,5.772814498728621,2694.195057957318,None,5.988784503482748,5.772814498728621,5.895388235449653,False,True,True,2700.276398376284,None,2700.276398376284,None,2700.276398376284,None,2700.276398376284,None,2700.276398376284,None,2700.276398376284,None,2700.276398376284,None,2700.276398376284,None,2701.2762049392836,None,2701.2762049392836,None,2702.2428109122848,None,2702.2428109122848,None,c,,,,,,,,,,,,,,,,,,,,,,,,,,,,,,,,,,,,,,,,,,,,,,,75_76Exp,001,2021_May_27_1039,ComputerHuman,2020.1.3,60.01559449685405,
Computer.xlsx,c,Sychronize.jpg,Number7.jpg,7,Computer,,,,,1,1,11,7,0,6,6,2,,,,,,,,,,,,,,,,,,,,,,,,,,,,,2703.3102075068955,None,2703.3102075068955,None,2703.7428731457476,None,2703.7428731457476,None,v,7.220372541056804,2703.7428731457476,None,t,7.163301889394916,2703.7428731457476,None,7.220372541056804,7.163301889394916,6.509764563771544,False,False,False,2711.041440749573,None,2711.041440749573,None,2711.041440749573,None,2711.041440749573,None,2711.041440749573,None,2711.041440749573,None,2711.041440749573,None,2711.041440749573,None,2712.0573699497063,None,2712.0573699497063,None,2713.040678870841,None,2713.040678870841,None,c,,,,,,,,,,,,,,,,,,,,,,,,,,,,,,,,,,,,,,,,,,,,,,,75_76Exp,001,2021_May_27_1039,ComputerHuman,2020.1.3,60.01559449685405,
Computer.xlsx,c,Sychronize.jpg,Number6.jpg,6,Computer,,,,,1,1,11,7,0,7,7,0,,,,,,,,,,,,,,,,,,,,,,,,,,,,,2714.090464037078,None,2714.090464037078,None,2714.5404671487513,None,2714.5404671487513,None,v,5.894419968087732,2714.5404671487513,None,t,5.769312743680985,2714.5404671487513,None,5.894419968087732,5.769312743680985,6.1898448335327245,False,True,False,2720.5072476320806,None,2720.5072476320806,None,2720.5072476320806,None,2720.5072476320806,None,2720.5072476320806,None,2720.5072476320806,None,2720.5072476320806,None,2720.5072476320806,None,2721.505178850631,None,2721.505178850631,None,2722.4886279574525,None,2722.4886279574525,None,c,,,,,,,,,,,,,,,,,,,,,,,,,,,,,,,,,,,,,,,,,,,,,,,75_76Exp,001,2021_May_27_1039,ComputerHuman,2020.1.3,60.01559449685405,
Computer.xlsx,c,Sychronize.jpg,Number10.jpg,10,Computer,,,,,1,1,11,7,0,8,8,9,,,,,,,,,,,,,,,,,,,,,,,,,,,,,2723.5566404708698,None,2723.5566404708698,None,2723.988738630363,None,2723.988738630363,None,v,10.793655972135184,2723.988738630363,None,t,8.83319443081109,2723.988738630363,None,10.793655972135184,8.83319443081109,10.264055728463411,False,False,False,2734.8538989264407,None,2734.8538989264407,None,2734.8538989264407,None,2734.8538989264407,None,2734.8538989264407,None,2734.8538989264407,None,2734.8538989264407,None,2734.8538989264407,None,2735.852392170902,None,2735.852392170902,None,2736.835738303798,None,2736.835738303798,None,c,,,,,,,,,,,,,,,,,,,,,,,,,,,,,,,,,,,,,,,,,,,,,,,75_76Exp,001,2021_May_27_1039,ComputerHuman,2020.1.3,60.01559449685405,
Computer.xlsx,c,Sychronize.jpg,Number7.jpg,7,Computer,,,,,1,1,11,7,0,9,9,3,,,,,,,,,,,,,,,,,,,,,,,,,,,,,2737.9024795223036,None,2737.9024795223036,None,2738.3357296424397,None,2738.3357296424397,None,v,7.114330890830388,2738.3357296424397,None,t,7.393283405415332,2738.3357296424397,None,7.114330890830388,7.393283405415332,6.853531548341799,False,True,False,2745.800977065365,None,2745.800977065365,None,2745.800977065365,None,2745.800977065365,None,2745.800977065365,None,2745.800977065365,None,2745.800977065365,None,2745.800977065365,None,2746.8170442056476,None,2746.8170442056476,None,2747.800173804588,None,2747.800173804588,None,c,,,,,,,,,,,,,,,,,,,,,,,,,,,,,,,,,,,,,,,,,,,,,,,75_76Exp,001,2021_May_27_1039,ComputerHuman,2020.1.3,60.01559449685405,
Computer.xlsx,c,,,,,,,,,1,1,11,7,,,,,,,,,,,,,,,,,,,,,,,,,,,,,,,,,,,,,,,,,,,,,,,,,,,,,,,,,,,,,,,,,,,,,,,,,,,,,,,c,2748.800514484678,None,2748.800514484678,None,a,1,2.8894079287997556,2748.800514484678,None,o,0,1.7885589232196253,2748.800514484678,None,c,h,2751.7658943943047,None,2751.7658943943047,None,2753.765640969379,None,None,None,None,None,None,None,None,,,,,,,,,,,,,,,,,,75_76Exp,001,2021_May_27_1039,ComputerHuman,2020.1.3,60.01559449685405,
