Condition,CorrectTuringReply,Sychronize,NumberImage,Number,Partner,trials.thisRepN,trials.thisTrialN,trials.thisN,trials.thisIndex,Block.thisRepN,Block.thisTrialN,Block.thisN,Block.thisIndex,trials_loop.thisRepN,trials_loop.thisTrialN,trials_loop.thisN,trials_loop.thisIndex,key_resp_Istr.keys,key_resp_Istr.rt,key_resp_Istr.started,key_resp_Istr.stopped,key_respPrLeft.keys,key_respPrRight.keys,RTPrLeft,RTPrRight,CompPr,SychronizedRTsPr,SychronizedRTsLeftCPr,SychronizedRTsRightCPr,CreditLeftPr.started,CreditLeftPr.stopped,CreditRightPr.started,CreditRightPr.stopped,key_respPrLeft.rt,key_respPrRight.rt,text_StartExp.started,text_StartExp.stopped,key_startExp.keys,key_startExp.rt,key_startExp.started,key_startExp.stopped,SychroLeft.started,SychroLeft.stopped,SychroRight.started,SychroRight.stopped,NumberLeft.started,NumberLeft.stopped,NumberRight.started,NumberRight.stopped,CrossLeft.started,CrossLeft.stopped,CrossRight.started,CrossRight.stopped,key_respLeft.keys,key_respLeft.rt,key_respLeft.started,key_respLeft.stopped,key_respRight.keys,key_respRight.rt,key_respRight.started,key_respRight.stopped,RTLeft,RTRight,Comp,SychronizedRTs,SychronizedRTsLeftC,SychronizedRTsRightC,FeedbackLeftLeft.started,FeedbackLeftLeft.stopped,FeedbackLeftRight.started,FeedbackLeftRight.stopped,FeedbackRightLeft.started,FeedbackRightLeft.stopped,FeedbackRightRight.started,FeedbackRightRight.stopped,textLeftLeft.started,textLeftLeft.stopped,textLeftRight.started,textLeftRight.stopped,textRightLeft.started,textRightLeft.stopped,textRightRight.started,textRightRight.stopped,CreditLeft.started,CreditLeft.stopped,CreditRight.started,CreditRight.stopped,BlankLeft.started,BlankLeft.stopped,BlankRight.started,BlankRight.stopped,CorrectTuringReply,TuringtextLeft.started,TuringtextLeft.stopped,TuringtextRight.started,TuringtextRight.stopped,keyTuringLeft.keys,keyTuringLeft.corr,keyTuringLeft.rt,keyTuringLeft.started,keyTuringLeft.stopped,keyTuringRight.keys,keyTuringRight.corr,keyTuringRight.rt,keyTuringRight.started,keyTuringRight.stopped,RespTuringLeft,RespTuringRight,ScoreLeft.started,ScoreLeft.stopped,ScoreRight.started,ScoreRight.stopped,BlockText.started,BlockText.stopped,text_Pause.started,text_Pause.stopped,text_LongPause.started,text_LongPause.stopped,key_respPause.keys,key_respPause.started,key_respPause.stopped,key_respPause.rt,QuestImageLeft.started,QuestImageLeft.stopped,QuestImageRight.started,QuestImageRight.stopped,respQuestLeft.keys,respQuestLeft.rt,respQuestLeft.started,respQuestLeft.stopped,respQuestRight.keys,respQuestRight.rt,respQuestRight.started,respQuestRight.stopped,RespInclusionLeft,RespInclusionRight,EndText.started,EndText.stopped,participant,session,date,expName,psychopyVersion,frameRate,
,,,,,,,,,,,,,,,,,,"['v', 't']","[68.58573493549557, 76.2293659180068]",25.27911291010605,None,,,,,,,,,,,,,,,,,,,,,,,,,,,,,,,,,,,,,,,,,,,,,,,,,,,,,,,,,,,,,,,,,,,,,,,,,,,,,,,,,,,,,,,,,,,,,,,,,,,,,,,,,,,,,,,,,,,,,,77_78Exp,001,2021_May_27_1515,ComputerHuman,2020.1.3,59.98002778389478,
,,,,,,,,,,,,,,,,,,,,,,v,t,7.390375434591988,6.313151085523714,7,False,False,False,180.14769700900797,None,180.14769700900797,None,7.390375434591988,6.313151085523714,181.16422159731883,None,"['space', 'space']","[163.64887944480142, 173.58056731254692]",182.1472658658422,None,,,,,,,,,,,,,,,,,,,,,,,,,,,,,,,,,,,,,,,,,,,,,,,,,,,,,,,,,,,,,,,,,,,,,,,,,,,,,,,,,,,,,,,,,,,,,,,,,,77_78Exp,001,2021_May_27_1515,ComputerHuman,2020.1.3,59.98002778389478,
Human.xlsx,h,Sychronize.jpg,Number9.jpg,9,Human,,,,,0,0,0,6,0,0,0,6,,,,,,,,,,,,,,,,,,,,,,,,,355.7981021360174,None,355.7981021360174,None,358.8612918768631,None,358.8612918768631,None,359.29510594765816,None,359.29510594765816,None,v,8.944245233204128,359.29510594765816,None,t,7.315195486855373,359.29510594765816,None,8.944245233204128,7.315195486855373,8.495146331319585,False,False,False,368.3108641661638,None,368.3108641661638,None,368.3108641661638,None,368.3108641661638,None,368.3108641661638,None,368.3108641661638,None,368.3108641661638,None,368.3108641661638,None,369.3132431525555,None,369.3132431525555,None,370.3257921774457,None,370.3257921774457,None,h,,,,,,,,,,,,,,,,,,,,,,,,,,,,,,,,,,,,,,,,,,,,,,,77_78Exp,001,2021_May_27_1515,ComputerHuman,2020.1.3,59.98002778389478,
Human.xlsx,h,Sychronize.jpg,Number10.jpg,10,Human,,,,,0,0,0,6,0,1,1,8,,,,,,,,,,,,,,,,,,,,,,,,,,,,,371.35902292180253,None,371.35902292180253,None,371.8090472056829,None,371.8090472056829,None,v,9.497982865908853,371.8090472056829,None,t,9.021366287557612,371.8090472056829,None,9.497982865908853,9.021366287557612,9.52629536173167,False,False,False,381.37533290090505,None,381.37533290090505,None,381.37533290090505,None,381.37533290090505,None,381.37533290090505,None,381.37533290090505,None,381.37533290090505,None,381.37533290090505,None,382.37569347003955,None,382.37569347003955,None,383.3565213932343,None,383.3565213932343,None,h,,,,,,,,,,,,,,,,,,,,,,,,,,,,,,,,,,,,,,,,,,,,,,,77_78Exp,001,2021_May_27_1515,ComputerHuman,2020.1.3,59.98002778389478,
Human.xlsx,h,Sychronize.jpg,Number8.jpg,8,Human,,,,,0,0,0,6,0,2,2,5,,,,,,,,,,,,,,,,,,,,,,,,,,,,,384.40760736715674,None,384.40760736715674,None,384.85646204688965,None,384.85646204688965,None,v,7.262152366762166,384.85646204688965,None,t,7.061258578753041,384.85646204688965,None,7.262152366762166,7.061258578753041,7.4482502036841645,True,False,False,392.20466821544323,None,392.20466821544323,None,392.20466821544323,None,392.20466821544323,None,392.20466821544323,None,392.20466821544323,None,392.20466821544323,None,392.20466821544323,None,393.1906409854164,None,393.1906409854164,None,394.1870452385956,None,394.1870452385956,None,h,,,,,,,,,,,,,,,,,,,,,,,,,,,,,,,,,,,,,,,,,,,,,,,77_78Exp,001,2021_May_27_1515,ComputerHuman,2020.1.3,59.98002778389478,
Human.xlsx,h,Sychronize.jpg,Number7.jpg,7,Human,,,,,0,0,0,6,0,3,3,3,,,,,,,,,,,,,,,,,,,,,,,,,,,,,395.2377276573825,None,395.2377276573825,None,395.6879155446986,None,395.6879155446986,None,v,5.710304193315096,395.6879155446986,None,t,5.665248449458886,395.6879155446986,None,5.710304193315096,5.665248449458886,6.7354708896587345,True,False,False,401.48608857554063,None,401.48608857554063,None,401.48608857554063,None,401.48608857554063,None,401.48608857554063,None,401.48608857554063,None,401.48608857554063,None,401.48608857554063,None,402.45505172113917,None,402.45505172113917,None,403.45243149988164,None,403.45243149988164,None,h,,,,,,,,,,,,,,,,,,,,,,,,,,,,,,,,,,,,,,,,,,,,,,,77_78Exp,001,2021_May_27_1515,ComputerHuman,2020.1.3,59.98002778389478,
Human.xlsx,h,Sychronize.jpg,Number7.jpg,7,Human,,,,,0,0,0,6,0,4,4,2,,,,,,,,,,,,,,,,,,,,,,,,,,,,,404.5026882289567,None,404.5026882289567,None,404.9526951901207,None,404.9526951901207,None,v,5.62921912402453,404.9526951901207,None,t,5.724270152251847,404.9526951901207,None,5.62921912402453,5.724270152251847,6.677556896962527,True,False,False,410.7522165057235,None,410.7522165057235,None,410.7522165057235,None,410.7522165057235,None,410.7522165057235,None,410.7522165057235,None,410.7522165057235,None,410.7522165057235,None,411.75282953741043,None,411.75282953741043,None,412.75049706572463,None,412.75049706572463,None,h,,,,,,,,,,,,,,,,,,,,,,,,,,,,,,,,,,,,,,,,,,,,,,,77_78Exp,001,2021_May_27_1515,ComputerHuman,2020.1.3,59.98002778389478,
Human.xlsx,h,Sychronize.jpg,Number8.jpg,8,Human,,,,,0,0,0,6,0,5,5,4,,,,,,,,,,,,,,,,,,,,,,,,,,,,,413.784708789095,None,413.784708789095,None,414.2504486262769,None,414.2504486262769,None,v,6.915221984196251,414.2504486262769,None,t,6.82621465925331,414.2504486262769,None,6.915221984196251,6.82621465925331,8.17238375480029,True,False,False,421.2488254235868,None,421.2488254235868,None,421.2488254235868,None,421.2488254235868,None,421.2488254235868,None,421.2488254235868,None,421.2488254235868,None,421.2488254235868,None,422.21744820988897,None,422.21744820988897,None,423.23184691594724,None,423.23184691594724,None,h,,,,,,,,,,,,,,,,,,,,,,,,,,,,,,,,,,,,,,,,,,,,,,,77_78Exp,001,2021_May_27_1515,ComputerHuman,2020.1.3,59.98002778389478,
Human.xlsx,h,Sychronize.jpg,Number9.jpg,9,Human,,,,,0,0,0,6,0,6,6,7,,,,,,,,,,,,,,,,,,,,,,,,,,,,,424.2987860625253,None,424.2987860625253,None,424.73200570751214,None,424.73200570751214,None,v,7.585157511610305,424.73200570751214,None,t,7.972198323288467,424.73200570751214,None,7.585157511610305,7.972198323288467,9.335755908678529,False,False,False,432.7814938212432,None,432.7814938212432,None,432.7814938212432,None,432.7814938212432,None,432.7814938212432,None,432.7814938212432,None,432.7814938212432,None,432.7814938212432,None,433.76533493472016,None,433.76533493472016,None,434.76264959288164,None,434.76264959288164,None,h,,,,,,,,,,,,,,,,,,,,,,,,,,,,,,,,,,,,,,,,,,,,,,,77_78Exp,001,2021_May_27_1515,ComputerHuman,2020.1.3,59.98002778389478,
Human.xlsx,h,Sychronize.jpg,Number6.jpg,6,Human,,,,,0,0,0,6,0,7,7,1,,,,,,,,,,,,,,,,,,,,,,,,,,,,,435.82955024453986,None,435.82955024453986,None,436.2625886425849,None,436.2625886425849,None,v,5.1383064927467785,436.2625886425849,None,t,5.093283148780756,436.2625886425849,None,5.1383064927467785,5.093283148780756,5.995229781928683,True,False,False,441.4946812844719,None,441.4946812844719,None,441.4946812844719,None,441.4946812844719,None,441.4946812844719,None,441.4946812844719,None,441.4946812844719,None,441.4946812844719,None,442.47965831904,None,442.47965831904,None,443.47773613909885,None,443.47773613909885,None,h,,,,,,,,,,,,,,,,,,,,,,,,,,,,,,,,,,,,,,,,,,,,,,,77_78Exp,001,2021_May_27_1515,ComputerHuman,2020.1.3,59.98002778389478,
Human.xlsx,h,Sychronize.jpg,Number10.jpg,10,Human,,,,,0,0,0,6,0,8,8,9,,,,,,,,,,,,,,,,,,,,,,,,,,,,,444.5272890526212,None,444.5272890526212,None,444.9775391733965,None,444.9775391733965,None,v,8.566894235835207,444.9775391733965,None,t,9.41813925795941,444.9775391733965,None,8.566894235835207,9.41813925795941,9.257960783676198,False,False,False,454.4920443820811,None,454.4920443820811,None,454.4920443820811,None,454.4920443820811,None,454.4920443820811,None,454.4920443820811,None,454.4920443820811,None,454.4920443820811,None,455.46129014459075,None,455.46129014459075,None,456.4750289834701,None,456.4750289834701,None,h,,,,,,,,,,,,,,,,,,,,,,,,,,,,,,,,,,,,,,,,,,,,,,,77_78Exp,001,2021_May_27_1515,ComputerHuman,2020.1.3,59.98002778389478,
Human.xlsx,h,Sychronize.jpg,Number6.jpg,6,Human,,,,,0,0,0,6,0,9,9,0,,,,,,,,,,,,,,,,,,,,,,,,,,,,,457.524775975573,None,457.524775975573,None,457.9751906621568,None,457.9751906621568,None,v,5.7089167720478144,457.9751906621568,None,t,5.504291221808671,457.9751906621568,None,5.7089167720478144,5.504291221808671,5.687468767246032,True,False,False,463.7583843551474,None,463.7583843551474,None,463.7583843551474,None,463.7583843551474,None,463.7583843551474,None,463.7583843551474,None,463.7583843551474,None,463.7583843551474,None,464.7589396444455,None,464.7589396444455,None,465.7397800784893,None,465.7397800784893,None,h,,,,,,,,,,,,,,,,,,,,,,,,,,,,,,,,,,,,,,,,,,,,,,,77_78Exp,001,2021_May_27_1515,ComputerHuman,2020.1.3,59.98002778389478,
Human.xlsx,h,,,,,,,,,0,0,0,6,,,,,,,,,,,,,,,,,,,,,,,,,,,,,,,,,,,,,,,,,,,,,,,,,,,,,,,,,,,,,,,,,,,,,,,,,,,,,,,h,466.7573860534176,None,466.7573860534176,None,a,0,11.770311366206442,466.7573860534176,None,o,1,13.005004981885577,466.7573860534176,None,c,h,479.8708405431098,None,479.8708405431098,None,481.85328172447043,None,None,None,None,None,None,None,None,,,,,,,,,,,,,,,,,,77_78Exp,001,2021_May_27_1515,ComputerHuman,2020.1.3,59.98002778389478,
Human.xlsx,h,Sychronize.jpg,Number9.jpg,9,Human,,,,,0,1,1,4,0,0,0,7,,,,,,,,,,,,,,,,,,,,,,,,,486.8388297670972,None,486.8388297670972,None,489.9355614196138,None,489.9355614196138,None,490.36873775780987,None,490.36873775780987,None,v,8.458163715065893,490.36873775780987,None,t,7.933124370047153,490.36873775780987,None,8.458163715065893,7.933124370047153,9.178867952328192,False,False,False,498.9164127605545,None,498.9164127605545,None,498.9164127605545,None,498.9164127605545,None,498.9164127605545,None,498.9164127605545,None,498.9164127605545,None,498.9164127605545,None,499.9186855651096,None,499.9186855651096,None,500.8993659244188,None,500.8993659244188,None,h,,,,,,,,,,,,,,,,,,,,,,,,,,,,,,,,,,,,,,,,,,,,,,,77_78Exp,001,2021_May_27_1515,ComputerHuman,2020.1.3,59.98002778389478,
Human.xlsx,h,Sychronize.jpg,Number7.jpg,7,Human,,,,,0,1,1,4,0,1,1,3,,,,,,,,,,,,,,,,,,,,,,,,,,,,,501.949648316775,None,501.949648316775,None,502.39944163110704,None,502.39944163110704,None,v,6.679098602824524,502.39944163110704,None,t,6.250165046993061,502.39944163110704,None,6.679098602824524,6.250165046993061,6.5115352895094984,False,False,False,509.16425303484357,None,509.16425303484357,None,509.16425303484357,None,509.16425303484357,None,509.16425303484357,None,509.16425303484357,None,509.16425303484357,None,509.16425303484357,None,510.1493330433368,None,510.1493330433368,None,511.1472610539786,None,511.1472610539786,None,h,,,,,,,,,,,,,,,,,,,,,,,,,,,,,,,,,,,,,,,,,,,,,,,77_78Exp,001,2021_May_27_1515,ComputerHuman,2020.1.3,59.98002778389478,
Human.xlsx,h,Sychronize.jpg,Number6.jpg,6,Human,,,,,0,1,1,4,0,2,2,0,,,,,,,,,,,,,,,,,,,,,,,,,,,,,512.1970090084542,None,512.1970090084542,None,512.6475032512171,None,512.6475032512171,None,v,5.710717372181534,512.6475032512171,None,t,6.574240671554435,512.6475032512171,None,5.710717372181534,6.574240671554435,5.5982133167193435,False,False,False,519.31222014991,None,519.31222014991,None,519.31222014991,None,519.31222014991,None,519.31222014991,None,519.31222014991,None,519.31222014991,None,519.31222014991,None,520.2810469593169,None,520.2810469593169,None,521.2785787930152,None,521.2785787930152,None,h,,,,,,,,,,,,,,,,,,,,,,,,,,,,,,,,,,,,,,,,,,,,,,,77_78Exp,001,2021_May_27_1515,ComputerHuman,2020.1.3,59.98002778389478,
Human.xlsx,h,Sychronize.jpg,Number9.jpg,9,Human,,,,,0,1,1,4,0,3,3,6,,,,,,,,,,,,,,,,,,,,,,,,,,,,,522.3626600506723,None,522.3626600506723,None,522.7784305875539,None,522.7784305875539,None,v,8.967344433986,522.7784305875539,None,t,8.262166481570603,522.7784305875539,None,8.967344433986,8.262166481570603,9.429827535860959,False,False,False,531.8281807875683,None,531.8281807875683,None,531.8281807875683,None,531.8281807875683,None,531.8281807875683,None,531.8281807875683,None,531.8281807875683,None,531.8281807875683,None,532.8283880185809,None,532.8283880185809,None,533.8092974227002,None,533.8092974227002,None,h,,,,,,,,,,,,,,,,,,,,,,,,,,,,,,,,,,,,,,,,,,,,,,,77_78Exp,001,2021_May_27_1515,ComputerHuman,2020.1.3,59.98002778389478,
Human.xlsx,h,Sychronize.jpg,Number10.jpg,10,Human,,,,,0,1,1,4,0,4,4,9,,,,,,,,,,,,,,,,,,,,,,,,,,,,,534.8763732262669,None,534.8763732262669,None,535.3093208404462,None,535.3093208404462,None,v,10.17597441883845,535.3093208404462,None,t,8.563150604339171,535.3093208404462,None,10.17597441883845,8.563150604339171,10.302353398943364,False,False,False,545.5586585673336,None,545.5586585673336,None,545.5586585673336,None,545.5586585673336,None,545.5586585673336,None,545.5586585673336,None,545.5586585673336,None,545.5586585673336,None,546.5591266014671,None,546.5591266014671,None,547.5566308471389,None,547.5566308471389,None,h,,,,,,,,,,,,,,,,,,,,,,,,,,,,,,,,,,,,,,,,,,,,,,,77_78Exp,001,2021_May_27_1515,ComputerHuman,2020.1.3,59.98002778389478,
Human.xlsx,h,Sychronize.jpg,Number8.jpg,8,Human,,,,,0,1,1,4,0,5,5,5,,,,,,,,,,,,,,,,,,,,,,,,,,,,,548.6067435410332,None,548.6067435410332,None,549.0398653447483,None,549.0398653447483,None,v,6.493086952978047,549.0398653447483,None,t,8.828117591732735,549.0398653447483,None,6.493086952978047,8.828117591732735,7.790973856558471,False,False,False,557.9544210459462,None,557.9544210459462,None,557.9544210459462,None,557.9544210459462,None,557.9544210459462,None,557.9544210459462,None,557.9544210459462,None,557.9544210459462,None,558.9399726172742,None,558.9399726172742,None,559.9373610573784,None,559.9373610573784,None,h,,,,,,,,,,,,,,,,,,,,,,,,,,,,,,,,,,,,,,,,,,,,,,,77_78Exp,001,2021_May_27_1515,ComputerHuman,2020.1.3,59.98002778389478,
Human.xlsx,h,Sychronize.jpg,Number7.jpg,7,Human,,,,,0,1,1,4,0,6,6,2,,,,,,,,,,,,,,,,,,,,,,,,,,,,,560.9709789965273,None,560.9709789965273,None,561.4373135803035,None,561.4373135803035,None,v,7.6911959539284,561.4373135803035,None,t,6.026248406469676,561.4373135803035,None,7.6911959539284,6.026248406469676,6.939066483227433,False,False,False,569.2187586413093,None,569.2187586413093,None,569.2187586413093,None,569.2187586413093,None,569.2187586413093,None,569.2187586413093,None,569.2187586413093,None,569.2187586413093,None,570.1874369244615,None,570.1874369244615,None,571.1850216886814,None,571.1850216886814,None,h,,,,,,,,,,,,,,,,,,,,,,,,,,,,,,,,,,,,,,,,,,,,,,,77_78Exp,001,2021_May_27_1515,ComputerHuman,2020.1.3,59.98002778389478,
Human.xlsx,h,Sychronize.jpg,Number10.jpg,10,Human,,,,,0,1,1,4,0,7,7,8,,,,,,,,,,,,,,,,,,,,,,,,,,,,,572.2518828830398,None,572.2518828830398,None,572.6850499182947,None,572.6850499182947,None,v,8.47105919428941,572.6850499182947,None,t,8.90215456097576,572.6850499182947,None,8.47105919428941,8.90215456097576,10.388330476477455,False,False,False,581.6829439250832,None,581.6829439250832,None,581.6829439250832,None,581.6829439250832,None,581.6829439250832,None,581.6829439250832,None,581.6829439250832,None,581.6829439250832,None,582.6683504988614,None,582.6683504988614,None,583.6492053684997,None,583.6492053684997,None,h,,,,,,,,,,,,,,,,,,,,,,,,,,,,,,,,,,,,,,,,,,,,,,,77_78Exp,001,2021_May_27_1515,ComputerHuman,2020.1.3,59.98002778389478,
Human.xlsx,h,Sychronize.jpg,Number8.jpg,8,Human,,,,,0,1,1,4,0,8,8,4,,,,,,,,,,,,,,,,,,,,,,,,,,,,,584.7161801228867,None,584.7161801228867,None,585.1492281446663,None,585.1492281446663,None,v,7.058503304469923,585.1492281446663,None,t,7.122364140181162,585.1492281446663,None,7.058503304469923,7.122364140181162,8.064099632610517,True,False,False,592.3641417845101,None,592.3641417845101,None,592.3641417845101,None,592.3641417845101,None,592.3641417845101,None,592.3641417845101,None,592.3641417845101,None,592.3641417845101,None,593.3497539853452,None,593.3497539853452,None,594.3470307901662,None,594.3470307901662,None,h,,,,,,,,,,,,,,,,,,,,,,,,,,,,,,,,,,,,,,,,,,,,,,,77_78Exp,001,2021_May_27_1515,ComputerHuman,2020.1.3,59.98002778389478,
Human.xlsx,h,Sychronize.jpg,Number6.jpg,6,Human,,,,,0,1,1,4,0,9,9,1,,,,,,,,,,,,,,,,,,,,,,,,,,,,,595.3971062722994,None,595.3971062722994,None,595.8470718514181,None,595.8470718514181,None,v,5.624355290197855,595.8470718514181,None,t,6.423271914682118,595.8470718514181,None,5.624355290197855,6.423271914682118,6.348114791594963,False,False,False,602.3465377343273,None,602.3465377343273,None,602.3465377343273,None,602.3465377343273,None,602.3465377343273,None,602.3465377343273,None,602.3465377343273,None,602.3465377343273,None,603.331298555735,None,603.331298555735,None,604.3283565810598,None,604.3283565810598,None,h,,,,,,,,,,,,,,,,,,,,,,,,,,,,,,,,,,,,,,,,,,,,,,,77_78Exp,001,2021_May_27_1515,ComputerHuman,2020.1.3,59.98002778389478,
Human.xlsx,h,,,,,,,,,0,1,1,4,,,,,,,,,,,,,,,,,,,,,,,,,,,,,,,,,,,,,,,,,,,,,,,,,,,,,,,,,,,,,,,,,,,,,,,,,,,,,,,h,605.3289477989565,None,605.3289477989565,None,q,0,4.5541248274930695,605.3289477989565,None,l,0,10.249092963320436,605.3289477989565,None,h,c,615.6760549373903,None,615.6760549373903,None,617.6589888537928,None,None,None,None,None,None,None,None,,,,,,,,,,,,,,,,,,77_78Exp,001,2021_May_27_1515,ComputerHuman,2020.1.3,59.98002778389478,
Computer.xlsx,c,Sychronize.jpg,Number6.jpg,6,Computer,,,,,0,2,2,9,0,0,0,1,,,,,,,,,,,,,,,,,,,,,,,,,622.6619086938845,None,622.6619086938845,None,625.741372164448,None,625.741372164448,None,626.1910714869991,None,626.1910714869991,None,v,5.383269912941614,626.1910714869991,None,t,4.9342756891055615,626.1910714869991,None,5.383269912941614,4.9342756891055615,5.611541466426957,False,True,False,631.6727854350574,None,631.6727854350574,None,631.6727854350574,None,631.6727854350574,None,631.6727854350574,None,631.6727854350574,None,631.6727854350574,None,631.6727854350574,None,632.6892747363563,None,632.6892747363563,None,633.6557180682976,None,633.6557180682976,None,c,,,,,,,,,,,,,,,,,,,,,,,,,,,,,,,,,,,,,,,,,,,,,,,77_78Exp,001,2021_May_27_1515,ComputerHuman,2020.1.3,59.98002778389478,
Computer.xlsx,c,Sychronize.jpg,Number7.jpg,7,Computer,,,,,0,2,2,9,0,1,1,3,,,,,,,,,,,,,,,,,,,,,,,,,,,,,634.7393463689987,None,634.7393463689987,None,635.15555254012,None,635.15555254012,None,v,6.082483718248113,635.15555254012,None,t,5.841177636757493,635.15555254012,None,6.082483718248113,5.841177636757493,7.126233832220338,False,False,False,641.3209001140094,None,641.3209001140094,None,641.3209001140094,None,641.3209001140094,None,641.3209001140094,None,641.3209001140094,None,641.3209001140094,None,641.3209001140094,None,642.3205414696204,None,642.3205414696204,None,643.3037451712917,None,643.3037451712917,None,c,,,,,,,,,,,,,,,,,,,,,,,,,,,,,,,,,,,,,,,,,,,,,,,77_78Exp,001,2021_May_27_1515,ComputerHuman,2020.1.3,59.98002778389478,
Computer.xlsx,c,Sychronize.jpg,Number10.jpg,10,Computer,,,,,0,2,2,9,0,2,2,9,,,,,,,,,,,,,,,,,,,,,,,,,,,,,644.3536175926929,None,644.3536175926929,None,644.8036357815472,None,644.8036357815472,None,v,9.822192901920062,644.8036357815472,None,t,9.257133270075428,644.8036357815472,None,9.822192901920062,9.257133270075428,10.713351713587294,False,False,False,654.7015696947419,None,654.7015696947419,None,654.7015696947419,None,654.7015696947419,None,654.7015696947419,None,654.7015696947419,None,654.7015696947419,None,654.7015696947419,None,655.7011565158755,None,655.7011565158755,None,656.7010461637547,None,656.7010461637547,None,c,,,,,,,,,,,,,,,,,,,,,,,,,,,,,,,,,,,,,,,,,,,,,,,77_78Exp,001,2021_May_27_1515,ComputerHuman,2020.1.3,59.98002778389478,
Computer.xlsx,c,Sychronize.jpg,Number9.jpg,9,Computer,,,,,0,2,2,9,0,3,3,7,,,,,,,,,,,,,,,,,,,,,,,,,,,,,657.7679108868142,None,657.7679108868142,None,658.2011112843356,None,658.2011112843356,None,v,9.364149804285262,658.2011112843356,None,t,8.335104099904129,658.2011112843356,None,9.364149804285262,8.335104099904129,9.596363557716856,False,True,False,667.6487803203672,None,667.6487803203672,None,667.6487803203672,None,667.6487803203672,None,667.6487803203672,None,667.6487803203672,None,667.6487803203672,None,667.6487803203672,None,668.6318848976043,None,668.6318848976043,None,669.6151059219956,None,669.6151059219956,None,c,,,,,,,,,,,,,,,,,,,,,,,,,,,,,,,,,,,,,,,,,,,,,,,77_78Exp,001,2021_May_27_1515,ComputerHuman,2020.1.3,59.98002778389478,
Computer.xlsx,c,Sychronize.jpg,Number8.jpg,8,Computer,,,,,0,2,2,9,0,4,4,5,,,,,,,,,,,,,,,,,,,,,,,,,,,,,670.6659436036498,None,670.6659436036498,None,671.1153439489499,None,671.1153439489499,None,v,8.001355662956485,671.1153439489499,None,t,7.752208165158663,671.1153439489499,None,8.001355662956485,7.752208165158663,8.292672196318401,False,True,False,679.1979219797686,None,679.1979219797686,None,679.1979219797686,None,679.1979219797686,None,679.1979219797686,None,679.1979219797686,None,679.1979219797686,None,679.1979219797686,None,680.212953606555,None,680.212953606555,None,681.1961550626911,None,681.1961550626911,None,c,,,,,,,,,,,,,,,,,,,,,,,,,,,,,,,,,,,,,,,,,,,,,,,77_78Exp,001,2021_May_27_1515,ComputerHuman,2020.1.3,59.98002778389478,
Computer.xlsx,c,Sychronize.jpg,Number7.jpg,7,Computer,,,,,0,2,2,9,0,5,5,2,,,,,,,,,,,,,,,,,,,,,,,,,,,,,682.2464955182259,None,682.2464955182259,None,682.6796099437524,None,682.6796099437524,None,v,7.632751995803119,682.6796099437524,None,t,6.2522152225610625,682.6796099437524,None,7.632751995803119,6.2522152225610625,7.025929046905082,False,False,False,690.4109147228337,None,690.4109147228337,None,690.4109147228337,None,690.4109147228337,None,690.4109147228337,None,690.4109147228337,None,690.4109147228337,None,690.4109147228337,None,691.4107418164604,None,691.4107418164604,None,692.3938287501915,None,692.3938287501915,None,c,,,,,,,,,,,,,,,,,,,,,,,,,,,,,,,,,,,,,,,,,,,,,,,77_78Exp,001,2021_May_27_1515,ComputerHuman,2020.1.3,59.98002778389478,
Computer.xlsx,c,Sychronize.jpg,Number10.jpg,10,Computer,,,,,0,2,2,9,0,6,6,8,,,,,,,,,,,,,,,,,,,,,,,,,,,,,693.4442872568325,None,693.4442872568325,None,693.8937620256547,None,693.8937620256547,None,v,10.638365518298087,693.8937620256547,None,t,9.101026082236785,693.8937620256547,None,10.638365518298087,9.101026082236785,10.373447360530378,False,True,False,704.6246780059882,None,704.6246780059882,None,704.6246780059882,None,704.6246780059882,None,704.6246780059882,None,704.6246780059882,None,704.6246780059882,None,704.6246780059882,None,705.607686345913,None,705.607686345913,None,706.6075875422721,None,706.6075875422721,None,c,,,,,,,,,,,,,,,,,,,,,,,,,,,,,,,,,,,,,,,,,,,,,,,77_78Exp,001,2021_May_27_1515,ComputerHuman,2020.1.3,59.98002778389478,
Computer.xlsx,c,Sychronize.jpg,Number9.jpg,9,Computer,,,,,0,2,2,9,0,7,7,6,,,,,,,,,,,,,,,,,,,,,,,,,,,,,707.6249433001831,None,707.6249433001831,None,708.1078775373753,None,708.1078775373753,None,v,9.443599160040321,708.1078775373753,None,t,8.431093762730598,708.1078775373753,None,9.443599160040321,8.431093762730598,8.501947040469723,False,False,True,717.6387270498053,None,717.6387270498053,None,717.6387270498053,None,717.6387270498053,None,717.6387270498053,None,717.6387270498053,None,717.6387270498053,None,717.6387270498053,None,718.6218146251194,None,718.6218146251194,None,719.6049310716262,None,719.6049310716262,None,c,,,,,,,,,,,,,,,,,,,,,,,,,,,,,,,,,,,,,,,,,,,,,,,77_78Exp,001,2021_May_27_1515,ComputerHuman,2020.1.3,59.98002778389478,
Computer.xlsx,c,Sychronize.jpg,Number8.jpg,8,Computer,,,,,0,2,2,9,0,8,8,4,,,,,,,,,,,,,,,,,,,,,,,,,,,,,720.6380014204624,None,720.6380014204624,None,721.1047129337167,None,721.1047129337167,None,v,6.014425973295147,721.1047129337167,None,t,7.061208856142912,721.1047129337167,None,6.014425973295147,7.061208856142912,7.524459657355241,False,False,False,728.2531698967105,None,728.2531698967105,None,728.2531698967105,None,728.2531698967105,None,728.2531698967105,None,728.2531698967105,None,728.2531698967105,None,728.2531698967105,None,729.253005972485,None,729.253005972485,None,730.2361323635159,None,730.2361323635159,None,c,,,,,,,,,,,,,,,,,,,,,,,,,,,,,,,,,,,,,,,,,,,,,,,77_78Exp,001,2021_May_27_1515,ComputerHuman,2020.1.3,59.98002778389478,
Computer.xlsx,c,Sychronize.jpg,Number6.jpg,6,Computer,,,,,0,2,2,9,0,9,9,0,,,,,,,,,,,,,,,,,,,,,,,,,,,,,731.2862213188746,None,731.2862213188746,None,731.7364634198748,None,731.7364634198748,None,v,6.738622664401191,731.7364634198748,None,t,6.185246242413996,731.7364634198748,None,6.738622664401191,6.185246242413996,5.921964190649181,False,False,True,738.5677241222656,None,738.5677241222656,None,738.5677241222656,None,738.5677241222656,None,738.5677241222656,None,738.5677241222656,None,738.5677241222656,None,738.5677241222656,None,739.5508408895657,None,739.5508408895657,None,740.5507205929243,None,740.5507205929243,None,c,,,,,,,,,,,,,,,,,,,,,,,,,,,,,,,,,,,,,,,,,,,,,,,77_78Exp,001,2021_May_27_1515,ComputerHuman,2020.1.3,59.98002778389478,
Computer.xlsx,c,,,,,,,,,0,2,2,9,,,,,,,,,,,,,,,,,,,,,,,,,,,,,,,,,,,,,,,,,,,,,,,,,,,,,,,,,,,,,,,,,,,,,,,,,,,,,,,c,741.5512935257284,None,741.5512935257284,None,a,1,3.6551765730146144,741.5512935257284,None,o,0,2.754363880980236,741.5512935257284,None,c,h,745.3177409637974,None,745.3177409637974,None,747.2993695814366,None,None,None,None,None,None,None,None,,,,,,,,,,,,,,,,,,77_78Exp,001,2021_May_27_1515,ComputerHuman,2020.1.3,59.98002778389478,
Computer.xlsx,c,Sychronize.jpg,Number10.jpg,10,Computer,,,,,0,3,3,1,0,0,0,9,,,,,,,,,,,,,,,,,,,,,,,,,752.2850722453513,None,752.2850722453513,None,755.3646393314193,None,755.3646393314193,None,755.7980732648248,None,755.7980732648248,None,v,10.363771591644763,755.7980732648248,None,t,8.919117991437815,755.7980732648248,None,10.363771591644763,8.919117991437815,10.228634146730009,False,True,False,766.2454292087932,None,766.2454292087932,None,766.2454292087932,None,766.2454292087932,None,766.2454292087932,None,766.2454292087932,None,766.2454292087932,None,766.2454292087932,None,767.2619865177949,None,767.2619865177949,None,768.228410281481,None,768.228410281481,None,c,,,,,,,,,,,,,,,,,,,,,,,,,,,,,,,,,,,,,,,,,,,,,,,77_78Exp,001,2021_May_27_1515,ComputerHuman,2020.1.3,59.98002778389478,
Computer.xlsx,c,Sychronize.jpg,Number6.jpg,6,Computer,,,,,0,3,3,1,0,1,1,0,,,,,,,,,,,,,,,,,,,,,,,,,,,,,769.2953195944938,None,769.2953195944938,None,769.7283127610026,None,769.7283127610026,None,v,5.329220150553738,769.7283127610026,None,t,5.288522994622326,769.7283127610026,None,5.329220150553738,5.288522994622326,6.055822358960853,False,False,False,775.1287754700061,None,775.1287754700061,None,775.1287754700061,None,775.1287754700061,None,775.1287754700061,None,775.1287754700061,None,775.1287754700061,None,775.1287754700061,None,776.143542123391,None,776.143542123391,None,777.1266380392735,None,777.1266380392735,None,c,,,,,,,,,,,,,,,,,,,,,,,,,,,,,,,,,,,,,,,,,,,,,,,77_78Exp,001,2021_May_27_1515,ComputerHuman,2020.1.3,59.98002778389478,
Computer.xlsx,c,Sychronize.jpg,Number7.jpg,7,Computer,,,,,0,3,3,1,0,2,2,2,,,,,,,,,,,,,,,,,,,,,,,,,,,,,778.1765553714213,None,778.1765553714213,None,778.6268879354975,None,778.6268879354975,None,v,5.850238700615591,778.6268879354975,None,t,6.3372793839771475,778.6268879354975,None,5.850238700615591,6.3372793839771475,7.310829948409372,False,False,False,785.0583711385589,None,785.0583711385589,None,785.0583711385589,None,785.0583711385589,None,785.0583711385589,None,785.0583711385589,None,785.0583711385589,None,785.0583711385589,None,786.0414513356773,None,786.0414513356773,None,787.0246104473918,None,787.0246104473918,None,c,,,,,,,,,,,,,,,,,,,,,,,,,,,,,,,,,,,,,,,,,,,,,,,77_78Exp,001,2021_May_27_1515,ComputerHuman,2020.1.3,59.98002778389478,
Computer.xlsx,c,Sychronize.jpg,Number8.jpg,8,Computer,,,,,0,3,3,1,0,3,3,5,,,,,,,,,,,,,,,,,,,,,,,,,,,,,788.0745986743605,None,788.0745986743605,None,788.5245575168701,None,788.5245575168701,None,v,6.640236050883686,788.5245575168701,None,t,7.079258164292696,788.5245575168701,None,6.640236050883686,7.079258164292696,8.350082758482682,False,False,False,795.6894675317744,None,795.6894675317744,None,795.6894675317744,None,795.6894675317744,None,795.6894675317744,None,795.6894675317744,None,795.6894675317744,None,795.6894675317744,None,796.6892705660721,None,796.6892705660721,None,797.6724710598355,None,797.6724710598355,None,c,,,,,,,,,,,,,,,,,,,,,,,,,,,,,,,,,,,,,,,,,,,,,,,77_78Exp,001,2021_May_27_1515,ComputerHuman,2020.1.3,59.98002778389478,
Computer.xlsx,c,Sychronize.jpg,Number6.jpg,6,Computer,,,,,0,3,3,1,0,4,4,1,,,,,,,,,,,,,,,,,,,,,,,,,,,,,798.7223059486823,None,798.7223059486823,None,799.1557562424314,None,799.1557562424314,None,v,5.364757703318901,799.1557562424314,None,t,5.02027944749716,799.1557562424314,None,5.364757703318901,5.02027944749716,5.687467695286648,False,False,False,804.604403691148,None,804.604403691148,None,804.604403691148,None,804.604403691148,None,804.604403691148,None,804.604403691148,None,804.604403691148,None,804.604403691148,None,805.5875310445517,None,805.5875310445517,None,806.5873372867609,None,806.5873372867609,None,c,,,,,,,,,,,,,,,,,,,,,,,,,,,,,,,,,,,,,,,,,,,,,,,77_78Exp,001,2021_May_27_1515,ComputerHuman,2020.1.3,59.98002778389478,
Computer.xlsx,c,Sychronize.jpg,Number9.jpg,9,Computer,,,,,0,3,3,1,0,5,5,7,,,,,,,,,,,,,,,,,,,,,,,,,,,,,807.6373694621034,None,807.6373694621034,None,808.087280185955,None,808.087280185955,None,v,7.7728080829074315,808.087280185955,None,t,8.40418901778321,808.087280185955,None,7.7728080829074315,8.40418901778321,9.578542385170055,False,False,False,816.585282620119,None,816.585282620119,None,816.585282620119,None,816.585282620119,None,816.585282620119,None,816.585282620119,None,816.585282620119,None,816.585282620119,None,817.5684343536414,None,817.5684343536414,None,818.5515524041039,None,818.5515524041039,None,c,,,,,,,,,,,,,,,,,,,,,,,,,,,,,,,,,,,,,,,,,,,,,,,77_78Exp,001,2021_May_27_1515,ComputerHuman,2020.1.3,59.98002778389478,
Computer.xlsx,c,Sychronize.jpg,Number7.jpg,7,Computer,,,,,0,3,3,1,0,6,6,3,,,,,,,,,,,,,,,,,,,,,,,,,,,,,819.6015547458774,None,819.6015547458774,None,820.0514789429544,None,820.0514789429544,None,v,6.944217003590893,820.0514789429544,None,t,7.02721430830934,820.0514789429544,None,6.944217003590893,7.02721430830934,6.7977271189188295,False,True,True,827.1665065919333,None,827.1665065919333,None,827.1665065919333,None,827.1665065919333,None,827.1665065919333,None,827.1665065919333,None,827.1665065919333,None,827.1665065919333,None,828.1661848385156,None,828.1661848385156,None,829.1493997678735,None,829.1493997678735,None,c,,,,,,,,,,,,,,,,,,,,,,,,,,,,,,,,,,,,,,,,,,,,,,,77_78Exp,001,2021_May_27_1515,ComputerHuman,2020.1.3,59.98002778389478,
Computer.xlsx,c,Sychronize.jpg,Number8.jpg,8,Computer,,,,,0,3,3,1,0,7,7,4,,,,,,,,,,,,,,,,,,,,,,,,,,,,,830.1997812846639,None,830.1997812846639,None,830.6493708966809,None,830.6493708966809,None,v,8.422120595616434,830.6493708966809,None,t,7.437211889540777,830.6493708966809,None,8.422120595616434,7.437211889540777,7.41312554123086,False,False,True,839.1640201405426,None,839.1640201405426,None,839.1640201405426,None,839.1640201405426,None,839.1640201405426,None,839.1640201405426,None,839.1640201405426,None,839.1640201405426,None,840.1638382520214,None,840.1638382520214,None,841.1463448747527,None,841.1463448747527,None,c,,,,,,,,,,,,,,,,,,,,,,,,,,,,,,,,,,,,,,,,,,,,,,,77_78Exp,001,2021_May_27_1515,ComputerHuman,2020.1.3,59.98002778389478,
Computer.xlsx,c,Sychronize.jpg,Number10.jpg,10,Computer,,,,,0,3,3,1,0,8,8,8,,,,,,,,,,,,,,,,,,,,,,,,,,,,,842.196904751363,None,842.196904751363,None,842.6469069006635,None,842.6469069006635,None,v,9.779866127479181,842.6469069006635,None,t,9.231112946035864,842.6469069006635,None,9.779866127479181,9.231112946035864,9.440838820050928,False,False,True,852.4960289276532,None,852.4960289276532,None,852.4960289276532,None,852.4960289276532,None,852.4960289276532,None,852.4960289276532,None,852.4960289276532,None,852.4960289276532,None,853.4944471070085,None,853.4944471070085,None,854.4776389394137,None,854.4776389394137,None,c,,,,,,,,,,,,,,,,,,,,,,,,,,,,,,,,,,,,,,,,,,,,,,,77_78Exp,001,2021_May_27_1515,ComputerHuman,2020.1.3,59.98002778389478,
Computer.xlsx,c,Sychronize.jpg,Number9.jpg,9,Computer,,,,,0,3,3,1,0,9,9,6,,,,,,,,,,,,,,,,,,,,,,,,,,,,,855.5279922265909,None,855.5279922265909,None,855.9778387922343,None,855.9778387922343,None,v,10.42852005617533,855.9778387922343,None,t,8.196101811376138,855.9778387922343,None,10.42852005617533,8.196101811376138,8.732783480410191,False,False,False,866.4918060343371,None,866.4918060343371,None,866.4918060343371,None,866.4918060343371,None,866.4918060343371,None,866.4918060343371,None,866.4918060343371,None,866.4918060343371,None,867.4749471817522,None,867.4749471817522,None,868.4580559292772,None,868.4580559292772,None,c,,,,,,,,,,,,,,,,,,,,,,,,,,,,,,,,,,,,,,,,,,,,,,,77_78Exp,001,2021_May_27_1515,ComputerHuman,2020.1.3,59.98002778389478,
Computer.xlsx,c,,,,,,,,,0,3,3,1,,,,,,,,,,,,,,,,,,,,,,,,,,,,,,,,,,,,,,,,,,,,,,,,,,,,,,,,,,,,,,,,,,,,,,,,,,,,,,,c,869.4589239898451,None,869.4589239898451,None,q,0,3.1072391631969367,869.4589239898451,None,o,0,1.7663797511559096,869.4589239898451,None,h,h,872.6585804867937,None,872.6585804867937,None,874.6567709045084,None,None,None,None,None,None,None,None,,,,,,,,,,,,,,,,,,77_78Exp,001,2021_May_27_1515,ComputerHuman,2020.1.3,59.98002778389478,
Computer.xlsx,c,Sychronize.jpg,Number6.jpg,6,Computer,,,,,0,4,4,7,0,0,0,0,,,,,,,,,,,,,,,,,,,,,,,,,879.6586215480456,None,879.6586215480456,None,882.7228044579679,None,882.7228044579679,None,883.1552067273733,None,883.1552067273733,None,v,5.550370289103739,883.1552067273733,None,t,5.745237054961763,883.1552067273733,None,5.550370289103739,5.745237054961763,6.219726368250479,False,False,False,888.9708356029296,None,888.9708356029296,None,888.9708356029296,None,888.9708356029296,None,888.9708356029296,None,888.9708356029296,None,888.9708356029296,None,888.9708356029296,None,890.0037426691233,None,890.0037426691233,None,890.9869078758675,None,890.9869078758675,None,c,,,,,,,,,,,,,,,,,,,,,,,,,,,,,,,,,,,,,,,,,,,,,,,77_78Exp,001,2021_May_27_1515,ComputerHuman,2020.1.3,59.98002778389478,
Computer.xlsx,c,Sychronize.jpg,Number10.jpg,10,Computer,,,,,0,4,4,7,0,1,1,9,,,,,,,,,,,,,,,,,,,,,,,,,,,,,892.0370693300029,None,892.0370693300029,None,892.4869588816437,None,892.4869588816437,None,v,9.686190330459794,892.4869588816437,None,t,9.401125784093892,892.4869588816437,None,9.686190330459794,9.401125784093892,10.285984686827943,False,False,False,902.2679282095305,None,902.2679282095305,None,902.2679282095305,None,902.2679282095305,None,902.2679282095305,None,902.2679282095305,None,902.2679282095305,None,902.2679282095305,None,903.2510260501549,None,903.2510260501549,None,904.2342105043645,None,904.2342105043645,None,c,,,,,,,,,,,,,,,,,,,,,,,,,,,,,,,,,,,,,,,,,,,,,,,77_78Exp,001,2021_May_27_1515,ComputerHuman,2020.1.3,59.98002778389478,
Computer.xlsx,c,Sychronize.jpg,Number9.jpg,9,Computer,,,,,0,4,4,7,0,2,2,7,,,,,,,,,,,,,,,,,,,,,,,,,,,,,905.3018784882006,None,905.3018784882006,None,905.7344514184406,None,905.7344514184406,None,v,9.398210114286485,905.7344514184406,None,t,8.47319758739468,905.7344514184406,None,9.398210114286485,8.47319758739468,9.518228396675214,False,True,False,915.2000472204418,None,915.2000472204418,None,915.2000472204418,None,915.2000472204418,None,915.2000472204418,None,915.2000472204418,None,915.2000472204418,None,915.2000472204418,None,916.2150656947961,None,916.2150656947961,None,917.1814362071709,None,917.1814362071709,None,c,,,,,,,,,,,,,,,,,,,,,,,,,,,,,,,,,,,,,,,,,,,,,,,77_78Exp,001,2021_May_27_1515,ComputerHuman,2020.1.3,59.98002778389478,
Computer.xlsx,c,Sychronize.jpg,Number10.jpg,10,Computer,,,,,0,4,4,7,0,3,3,8,,,,,,,,,,,,,,,,,,,,,,,,,,,,,918.248048467678,None,918.248048467678,None,918.6819459441431,None,918.6819459441431,None,v,9.710301947779953,918.6819459441431,None,t,10.081145057221875,918.6819459441431,None,9.710301947779953,10.081145057221875,10.630508928012919,False,False,False,928.8304430060161,None,928.8304430060161,None,928.8304430060161,None,928.8304430060161,None,928.8304430060161,None,928.8304430060161,None,928.8304430060161,None,928.8304430060161,None,929.8456475391795,None,929.8456475391795,None,930.8288239736139,None,930.8288239736139,None,c,,,,,,,,,,,,,,,,,,,,,,,,,,,,,,,,,,,,,,,,,,,,,,,77_78Exp,001,2021_May_27_1515,ComputerHuman,2020.1.3,59.98002778389478,
Computer.xlsx,c,Sychronize.jpg,Number9.jpg,9,Computer,,,,,0,4,4,7,0,4,4,6,,,,,,,,,,,,,,,,,,,,,,,,,,,,,931.8787018484618,None,931.8787018484618,None,932.3123782998955,None,932.3123782998955,None,v,8.555688683838525,932.3123782998955,None,t,9.279114514061803,932.3123782998955,None,8.555688683838525,9.279114514061803,8.774727888634935,False,True,False,941.6764495103744,None,941.6764495103744,None,941.6764495103744,None,941.6764495103744,None,941.6764495103744,None,941.6764495103744,None,941.6764495103744,None,941.6764495103744,None,942.6763904848231,None,942.6763904848231,None,943.6595476717957,None,943.6595476717957,None,c,,,,,,,,,,,,,,,,,,,,,,,,,,,,,,,,,,,,,,,,,,,,,,,77_78Exp,001,2021_May_27_1515,ComputerHuman,2020.1.3,59.98002778389478,
Computer.xlsx,c,Sychronize.jpg,Number7.jpg,7,Computer,,,,,0,4,4,7,0,5,5,3,,,,,,,,,,,,,,,,,,,,,,,,,,,,,944.7104588145994,None,944.7104588145994,None,945.1597058217776,None,945.1597058217776,None,v,6.807768853370362,945.1597058217776,None,t,6.715157120248477,945.1597058217776,None,6.807768853370362,6.715157120248477,7.045057970560833,False,True,False,952.0426985712584,None,952.0426985712584,None,952.0426985712584,None,952.0426985712584,None,952.0426985712584,None,952.0426985712584,None,952.0426985712584,None,952.0426985712584,None,953.0409438442439,None,953.0409438442439,None,954.024055478887,None,954.024055478887,None,c,,,,,,,,,,,,,,,,,,,,,,,,,,,,,,,,,,,,,,,,,,,,,,,77_78Exp,001,2021_May_27_1515,ComputerHuman,2020.1.3,59.98002778389478,
Computer.xlsx,c,Sychronize.jpg,Number7.jpg,7,Computer,,,,,0,4,4,7,0,6,6,2,,,,,,,,,,,,,,,,,,,,,,,,,,,,,955.0739875674226,None,955.0739875674226,None,955.5242550109142,None,955.5242550109142,None,v,7.434802107210999,955.5242550109142,None,t,6.98617935940274,955.5242550109142,None,7.434802107210999,6.98617935940274,7.045411715901892,False,False,True,963.055960073063,None,963.055960073063,None,963.055960073063,None,963.055960073063,None,963.055960073063,None,963.055960073063,None,963.055960073063,None,963.055960073063,None,964.0554468073897,None,964.0554468073897,None,965.0385077570463,None,965.0385077570463,None,c,,,,,,,,,,,,,,,,,,,,,,,,,,,,,,,,,,,,,,,,,,,,,,,77_78Exp,001,2021_May_27_1515,ComputerHuman,2020.1.3,59.98002778389478,
Computer.xlsx,c,Sychronize.jpg,Number6.jpg,6,Computer,,,,,0,4,4,7,0,7,7,1,,,,,,,,,,,,,,,,,,,,,,,,,,,,,966.0884979087605,None,966.0884979087605,None,966.5219350500774,None,966.5219350500774,None,v,5.648809512349544,966.5219350500774,None,t,5.8122916863139835,966.5219350500774,None,5.648809512349544,5.8122916863139835,6.333146724531258,False,False,False,972.4202847084671,None,972.4202847084671,None,972.4202847084671,None,972.4202847084671,None,972.4202847084671,None,972.4202847084671,None,972.4202847084671,None,972.4202847084671,None,973.420043794391,None,973.420043794391,None,974.4032250406926,None,974.4032250406926,None,c,,,,,,,,,,,,,,,,,,,,,,,,,,,,,,,,,,,,,,,,,,,,,,,77_78Exp,001,2021_May_27_1515,ComputerHuman,2020.1.3,59.98002778389478,
Computer.xlsx,c,Sychronize.jpg,Number8.jpg,8,Computer,,,,,0,4,4,7,0,8,8,4,,,,,,,,,,,,,,,,,,,,,,,,,,,,,975.4531154263896,None,975.4531154263896,None,975.9031961694964,None,975.9031961694964,None,v,7.243186237810733,975.9031961694964,None,t,7.898151088731538,975.9031961694964,None,7.243186237810733,7.898151088731538,7.754312036608865,False,False,True,983.86956315317,None,983.86956315317,None,983.86956315317,None,983.86956315317,None,983.86956315317,None,983.86956315317,None,983.86956315317,None,983.86956315317,None,984.8678119548531,None,984.8678119548531,None,985.8509319300647,None,985.8509319300647,None,c,,,,,,,,,,,,,,,,,,,,,,,,,,,,,,,,,,,,,,,,,,,,,,,77_78Exp,001,2021_May_27_1515,ComputerHuman,2020.1.3,59.98002778389478,
Computer.xlsx,c,Sychronize.jpg,Number8.jpg,8,Computer,,,,,0,4,4,7,0,9,9,5,,,,,,,,,,,,,,,,,,,,,,,,,,,,,986.9007581575534,None,986.9007581575534,None,987.3508773955873,None,987.3508773955873,None,v,7.791089322985499,987.3508773955873,None,t,7.838448025755497,987.3508773955873,None,7.791089322985499,7.838448025755497,7.9202968670370595,False,True,True,995.2823836956013,None,995.2823836956013,None,995.2823836956013,None,995.2823836956013,None,995.2823836956013,None,995.2823836956013,None,995.2823836956013,None,995.2823836956013,None,996.2819503069004,None,996.2819503069004,None,997.2482172037671,None,997.2482172037671,None,c,,,,,,,,,,,,,,,,,,,,,,,,,,,,,,,,,,,,,,,,,,,,,,,77_78Exp,001,2021_May_27_1515,ComputerHuman,2020.1.3,59.98002778389478,
Computer.xlsx,c,,,,,,,,,0,4,4,7,,,,,,,,,,,,,,,,,,,,,,,,,,,,,,,,,,,,,,,,,,,,,,,,,,,,,,,,,,,,,,,,,,,,,,,,,,,,,,,c,998.2665446377505,None,998.2665446377505,None,a,1,15.062769825366559,998.2665446377505,None,o,0,1.7864590250392212,998.2665446377505,None,c,h,1013.4125677590891,None,1013.4125677590891,None,None,None,1015.4117426845187,None,1015.4117426845187,None,"['space', 'space']",1016.3948309014158,None,"[5.234170084695506, 7.934135182629689]",,,,,,,,,,,,,,,,,77_78Exp,001,2021_May_27_1515,ComputerHuman,2020.1.3,59.98002778389478,
Computer.xlsx,c,Sychronize.jpg,Number10.jpg,10,Computer,,,,,0,5,5,3,0,0,0,8,,,,,,,,,,,,,,,,,,,,,,,,,1024.3956392948494,None,1024.3956392948494,None,1027.459471259368,None,1027.459471259368,None,1027.909483353189,None,1027.909483353189,None,v,9.511027833756089,1027.909483353189,None,t,9.714130588901753,1027.909483353189,None,9.511027833756089,9.714130588901753,9.40007430103325,False,True,False,1037.70705522161,None,1037.70705522161,None,1037.70705522161,None,1037.70705522161,None,1037.70705522161,None,1037.70705522161,None,1037.70705522161,None,1037.70705522161,None,1038.7067289771185,None,1038.7067289771185,None,1039.7067421295505,None,1039.7067421295505,None,c,,,,,,,,,,,,,,,,,,,,,,,,,,,,,,,,,,,,,,,,,,,,,,,77_78Exp,001,2021_May_27_1515,ComputerHuman,2020.1.3,59.98002778389478,
Computer.xlsx,c,Sychronize.jpg,Number10.jpg,10,Computer,,,,,0,5,5,3,0,1,1,9,,,,,,,,,,,,,,,,,,,,,,,,,,,,,1040.7738538617123,None,1040.7738538617123,None,1041.206891618178,None,1041.206891618178,None,v,8.897178771076142,1041.206891618178,None,t,9.220314798669278,1041.206891618178,None,8.897178771076142,9.220314798669278,10.459247276663731,False,False,False,1050.5211991554206,None,1050.5211991554206,None,1050.5211991554206,None,1050.5211991554206,None,1050.5211991554206,None,1050.5211991554206,None,1050.5211991554206,None,1050.5211991554206,None,1051.504361154257,None,1051.504361154257,None,1052.487505830377,None,1052.487505830377,None,c,,,,,,,,,,,,,,,,,,,,,,,,,,,,,,,,,,,,,,,,,,,,,,,77_78Exp,001,2021_May_27_1515,ComputerHuman,2020.1.3,59.98002778389478,
Computer.xlsx,c,Sychronize.jpg,Number6.jpg,6,Computer,,,,,0,5,5,3,0,2,2,0,,,,,,,,,,,,,,,,,,,,,,,,,,,,,1053.5377330466727,None,1053.5377330466727,None,1053.9874705433613,None,1053.9874705433613,None,v,5.744280135273584,1053.9874705433613,None,t,5.615258297741093,1053.9874705433613,None,5.744280135273584,5.615258297741093,5.890286872065937,False,True,True,1059.819283647932,None,1059.819283647932,None,1059.819283647932,None,1059.819283647932,None,1059.819283647932,None,1059.819283647932,None,1059.819283647932,None,1059.819283647932,None,1060.8190558862916,None,1060.8190558862916,None,1061.8022336038885,None,1061.8022336038885,None,c,,,,,,,,,,,,,,,,,,,,,,,,,,,,,,,,,,,,,,,,,,,,,,,77_78Exp,001,2021_May_27_1515,ComputerHuman,2020.1.3,59.98002778389478,
Computer.xlsx,c,Sychronize.jpg,Number7.jpg,7,Computer,,,,,0,5,5,3,0,3,3,2,,,,,,,,,,,,,,,,,,,,,,,,,,,,,1062.853076738993,None,1062.853076738993,None,1063.3021248557234,None,1063.3021248557234,None,v,6.345282158181362,1063.3021248557234,None,t,6.248238055184629,1063.3021248557234,None,6.345282158181362,6.248238055184629,6.822647020995586,False,False,False,1069.7185680914263,None,1069.7185680914263,None,1069.7185680914263,None,1069.7185680914263,None,1069.7185680914263,None,1069.7185680914263,None,1069.7185680914263,None,1069.7185680914263,None,1070.7170077637857,None,1070.7170077637857,None,1071.7002319960811,None,1071.7002319960811,None,c,,,,,,,,,,,,,,,,,,,,,,,,,,,,,,,,,,,,,,,,,,,,,,,77_78Exp,001,2021_May_27_1515,ComputerHuman,2020.1.3,59.98002778389478,
Computer.xlsx,c,Sychronize.jpg,Number9.jpg,9,Computer,,,,,0,5,5,3,0,4,4,6,,,,,,,,,,,,,,,,,,,,,,,,,,,,,1072.7668481060791,None,1072.7668481060791,None,1073.216887146351,None,1073.216887146351,None,v,7.886074589048803,1073.216887146351,None,t,8.313154293435218,1073.216887146351,None,7.886074589048803,8.313154293435218,8.330104217681885,False,False,True,1081.599342570833,None,1081.599342570833,None,1081.599342570833,None,1081.599342570833,None,1081.599342570833,None,1081.599342570833,None,1081.599342570833,None,1081.599342570833,None,1082.6146654758886,None,1082.6146654758886,None,1083.581170720503,None,1083.581170720503,None,c,,,,,,,,,,,,,,,,,,,,,,,,,,,,,,,,,,,,,,,,,,,,,,,77_78Exp,001,2021_May_27_1515,ComputerHuman,2020.1.3,59.98002778389478,
Computer.xlsx,c,Sychronize.jpg,Number8.jpg,8,Computer,,,,,0,5,5,3,0,5,5,5,,,,,,,,,,,,,,,,,,,,,,,,,,,,,1084.648138417484,None,1084.648138417484,None,1085.0813170012188,None,1085.0813170012188,None,v,7.713337272649369,1085.0813170012188,None,t,7.568199534594896,1085.0813170012188,None,7.713337272649369,7.568199534594896,8.22358981971211,False,False,False,1092.8792815178786,None,1092.8792815178786,None,1092.8792815178786,None,1092.8792815178786,None,1092.8792815178786,None,1092.8792815178786,None,1092.8792815178786,None,1092.8792815178786,None,1093.879007883119,None,1093.879007883119,None,1094.86221190558,None,1094.86221190558,None,c,,,,,,,,,,,,,,,,,,,,,,,,,,,,,,,,,,,,,,,,,,,,,,,77_78Exp,001,2021_May_27_1515,ComputerHuman,2020.1.3,59.98002778389478,
Computer.xlsx,c,Sychronize.jpg,Number9.jpg,9,Computer,,,,,0,5,5,3,0,6,6,7,,,,,,,,,,,,,,,,,,,,,,,,,,,,,1095.9125510779522,None,1095.9125510779522,None,1096.362137802851,None,1096.362137802851,None,v,8.33206492554018,1096.362137802851,None,t,8.747178161571355,1096.362137802851,None,8.33206492554018,8.747178161571355,9.149759410532193,False,False,False,1105.1785683352282,None,1105.1785683352282,None,1105.1785683352282,None,1105.1785683352282,None,1105.1785683352282,None,1105.1785683352282,None,1105.1785683352282,None,1105.1785683352282,None,1106.1765589001225,None,1106.1765589001225,None,1107.1763837482104,None,1107.1763837482104,None,c,,,,,,,,,,,,,,,,,,,,,,,,,,,,,,,,,,,,,,,,,,,,,,,77_78Exp,001,2021_May_27_1515,ComputerHuman,2020.1.3,59.98002778389478,
Computer.xlsx,c,Sychronize.jpg,Number6.jpg,6,Computer,,,,,0,5,5,3,0,7,7,1,,,,,,,,,,,,,,,,,,,,,,,,,,,,,1108.2266533089278,None,1108.2266533089278,None,1108.6765826386581,None,1108.6765826386581,None,v,5.489568196004257,1108.6765826386581,None,t,7.072260428434674,1108.6765826386581,None,5.489568196004257,7.072260428434674,5.6241713204019765,False,True,False,1115.8261405565208,None,1115.8261405565208,None,1115.8261405565208,None,1115.8261405565208,None,1115.8261405565208,None,1115.8261405565208,None,1115.8261405565208,None,1115.8261405565208,None,1116.8411032132353,None,1116.8411032132353,None,1117.8075786242807,None,1117.8075786242807,None,c,,,,,,,,,,,,,,,,,,,,,,,,,,,,,,,,,,,,,,,,,,,,,,,77_78Exp,001,2021_May_27_1515,ComputerHuman,2020.1.3,59.98002778389478,
Computer.xlsx,c,Sychronize.jpg,Number7.jpg,7,Computer,,,,,0,5,5,3,0,8,8,3,,,,,,,,,,,,,,,,,,,,,,,,,,,,,1118.8741193483838,None,1118.8741193483838,None,1119.307757304894,None,1119.307757304894,None,v,6.901777310707985,1119.307757304894,None,t,6.545218705708976,1119.307757304894,None,6.901777310707985,6.545218705708976,7.201165293772615,False,True,False,1126.3058004795166,None,1126.3058004795166,None,1126.3058004795166,None,1126.3058004795166,None,1126.3058004795166,None,1126.3058004795166,None,1126.3058004795166,None,1126.3058004795166,None,1127.3056464998153,None,1127.3056464998153,None,1128.2886827485636,None,1128.2886827485636,None,c,,,,,,,,,,,,,,,,,,,,,,,,,,,,,,,,,,,,,,,,,,,,,,,77_78Exp,001,2021_May_27_1515,ComputerHuman,2020.1.3,59.98002778389478,
Computer.xlsx,c,Sychronize.jpg,Number8.jpg,8,Computer,,,,,0,5,5,3,0,9,9,4,,,,,,,,,,,,,,,,,,,,,,,,,,,,,1129.3389397984283,None,1129.3389397984283,None,1129.7889416269354,None,1129.7889416269354,None,v,6.292176163045951,1129.7889416269354,None,t,7.631211557200004,1129.7889416269354,None,6.292176163045951,7.631211557200004,7.7750992497382345,False,False,True,1137.4885108687195,None,1137.4885108687195,None,1137.4885108687195,None,1137.4885108687195,None,1137.4885108687195,None,1137.4885108687195,None,1137.4885108687195,None,1137.4885108687195,None,1138.4866717736586,None,1138.4866717736586,None,1139.4699421998703,None,1139.4699421998703,None,c,,,,,,,,,,,,,,,,,,,,,,,,,,,,,,,,,,,,,,,,,,,,,,,77_78Exp,001,2021_May_27_1515,ComputerHuman,2020.1.3,59.98002778389478,
Computer.xlsx,c,,,,,,,,,0,5,5,3,,,,,,,,,,,,,,,,,,,,,,,,,,,,,,,,,,,,,,,,,,,,,,,,,,,,,,,,,,,,,,,,,,,,,,,,,,,,,,,c,1140.487300524106,None,1140.487300524106,None,q,0,9.733278606381646,1140.487300524106,None,l,0,2.7683423507696716,1140.487300524106,None,h,c,1150.301484556796,None,1150.301484556796,None,1152.3005385440047,None,None,None,None,None,None,None,None,,,,,,,,,,,,,,,,,,77_78Exp,001,2021_May_27_1515,ComputerHuman,2020.1.3,59.98002778389478,
Human.xlsx,h,Sychronize.jpg,Number8.jpg,8,Human,,,,,0,6,6,8,0,0,0,4,,,,,,,,,,,,,,,,,,,,,,,,,1157.3189590073962,None,1157.3189590073962,None,1160.382703395957,None,1160.382703395957,None,1160.8327042620913,None,1160.8327042620913,None,v,7.255488574384799,1160.8327042620913,None,t,7.074195119228534,1160.8327042620913,None,7.255488574384799,7.074195119228534,8.009256061441226,True,False,False,1168.1805861109024,None,1168.1805861109024,None,1168.1805861109024,None,1168.1805861109024,None,1168.1805861109024,None,1168.1805861109024,None,1168.1805861109024,None,1168.1805861109024,None,1169.1650569372032,None,1169.1650569372032,None,1170.163515536231,None,1170.163515536231,None,h,,,,,,,,,,,,,,,,,,,,,,,,,,,,,,,,,,,,,,,,,,,,,,,77_78Exp,001,2021_May_27_1515,ComputerHuman,2020.1.3,59.98002778389478,
Human.xlsx,h,Sychronize.jpg,Number8.jpg,8,Human,,,,,0,6,6,8,0,1,1,5,,,,,,,,,,,,,,,,,,,,,,,,,,,,,1171.2137562257521,None,1171.2137562257521,None,1171.6634747957687,None,1171.6634747957687,None,v,7.3161774282416445,1171.6634747957687,None,t,7.551128639133822,1171.6634747957687,None,7.3161774282416445,7.551128639133822,7.550795336358972,True,False,False,1179.311745699957,None,1179.311745699957,None,1179.311745699957,None,1179.311745699957,None,1179.311745699957,None,1179.311745699957,None,1179.311745699957,None,1179.311745699957,None,1180.2973665621503,None,1180.2973665621503,None,1181.2946818618948,None,1181.2946818618948,None,h,,,,,,,,,,,,,,,,,,,,,,,,,,,,,,,,,,,,,,,,,,,,,,,77_78Exp,001,2021_May_27_1515,ComputerHuman,2020.1.3,59.98002778389478,
Human.xlsx,h,Sychronize.jpg,Number6.jpg,6,Human,,,,,0,6,6,8,0,2,2,0,,,,,,,,,,,,,,,,,,,,,,,,,,,,,1182.3452722136572,None,1182.3452722136572,None,1182.7780652065521,None,1182.7780652065521,None,v,5.625306756435748,1182.7780652065521,None,t,5.392277725488384,1182.7780652065521,None,5.625306756435748,5.392277725488384,6.304785605667726,True,False,False,1188.4932502356205,None,1188.4932502356205,None,1188.4932502356205,None,1188.4932502356205,None,1188.4932502356205,None,1188.4932502356205,None,1188.4932502356205,None,1188.4932502356205,None,1189.4622759354752,None,1189.4622759354752,None,1190.4761565639928,None,1190.4761565639928,None,h,,,,,,,,,,,,,,,,,,,,,,,,,,,,,,,,,,,,,,,,,,,,,,,77_78Exp,001,2021_May_27_1515,ComputerHuman,2020.1.3,59.98002778389478,
Human.xlsx,h,Sychronize.jpg,Number10.jpg,10,Human,,,,,0,6,6,8,0,3,3,9,,,,,,,,,,,,,,,,,,,,,,,,,,,,,1191.5263250755306,None,1191.5263250755306,None,1191.976130900708,None,1191.976130900708,None,v,10.10275514597015,1191.976130900708,None,t,9.31010966562826,1191.976130900708,None,10.10275514597015,9.31010966562826,9.817391319375513,False,False,False,1202.1737766793885,None,1202.1737766793885,None,1202.1737766793885,None,1202.1737766793885,None,1202.1737766793885,None,1202.1737766793885,None,1202.1737766793885,None,1202.1737766793885,None,1203.1430076855104,None,1203.1430076855104,None,1204.1400589742261,None,1204.1400589742261,None,h,,,,,,,,,,,,,,,,,,,,,,,,,,,,,,,,,,,,,,,,,,,,,,,77_78Exp,001,2021_May_27_1515,ComputerHuman,2020.1.3,59.98002778389478,
Human.xlsx,h,Sychronize.jpg,Number7.jpg,7,Human,,,,,0,6,6,8,0,4,4,3,,,,,,,,,,,,,,,,,,,,,,,,,,,,,1205.2071023778954,None,1205.2071023778954,None,1205.6400416515098,None,1205.6400416515098,None,v,6.114539084221178,1205.6400416515098,None,t,6.762217808136484,1205.6400416515098,None,6.114539084221178,6.762217808136484,7.356116318037072,False,False,False,1212.4883216020025,None,1212.4883216020025,None,1212.4883216020025,None,1212.4883216020025,None,1212.4883216020025,None,1212.4883216020025,None,1212.4883216020025,None,1212.4883216020025,None,1213.4733862125286,None,1213.4733862125286,None,1214.4712369125264,None,1214.4712369125264,None,h,,,,,,,,,,,,,,,,,,,,,,,,,,,,,,,,,,,,,,,,,,,,,,,77_78Exp,001,2021_May_27_1515,ComputerHuman,2020.1.3,59.98002778389478,
Human.xlsx,h,Sychronize.jpg,Number7.jpg,7,Human,,,,,0,6,6,8,0,5,5,2,,,,,,,,,,,,,,,,,,,,,,,,,,,,,1215.5049372949725,None,1215.5049372949725,None,1215.9545920275705,None,1215.9545920275705,None,v,6.455864284856943,1215.9545920275705,None,t,7.007207212409412,1215.9545920275705,None,6.455864284856943,7.007207212409412,6.81399798147061,False,False,False,1223.069559047046,None,1223.069559047046,None,1223.069559047046,None,1223.069559047046,None,1223.069559047046,None,1223.069559047046,None,1223.069559047046,None,1223.069559047046,None,1224.0380345902558,None,1224.0380345902558,None,1225.03578552424,None,1225.03578552424,None,h,,,,,,,,,,,,,,,,,,,,,,,,,,,,,,,,,,,,,,,,,,,,,,,77_78Exp,001,2021_May_27_1515,ComputerHuman,2020.1.3,59.98002778389478,
Human.xlsx,h,Sychronize.jpg,Number9.jpg,9,Human,,,,,0,6,6,8,0,6,6,7,,,,,,,,,,,,,,,,,,,,,,,,,,,,,1226.0859206735076,None,1226.0859206735076,None,1226.535618392103,None,1226.535618392103,None,v,8.534105541537429,1226.535618392103,None,t,8.277167312418896,1226.535618392103,None,8.534105541537429,8.277167312418896,8.983108299609365,True,False,False,1235.1520863928781,None,1235.1520863928781,None,1235.1520863928781,None,1235.1520863928781,None,1235.1520863928781,None,1235.1520863928781,None,1235.1520863928781,None,1235.1520863928781,None,1236.1359438666987,None,1236.1359438666987,None,1237.133249863502,None,1237.133249863502,None,h,,,,,,,,,,,,,,,,,,,,,,,,,,,,,,,,,,,,,,,,,,,,,,,77_78Exp,001,2021_May_27_1515,ComputerHuman,2020.1.3,59.98002778389478,
Human.xlsx,h,Sychronize.jpg,Number9.jpg,9,Human,,,,,0,6,6,8,0,7,7,6,,,,,,,,,,,,,,,,,,,,,,,,,,,,,1238.183284605173,None,1238.183284605173,None,1238.6332203507263,None,1238.6332203507263,None,v,7.3201815420688945,1238.6332203507263,None,t,8.399110895537888,1238.6332203507263,None,7.3201815420688945,8.399110895537888,9.064832109573983,False,False,False,1247.131308436099,None,1247.131308436099,None,1247.131308436099,None,1247.131308436099,None,1247.131308436099,None,1247.131308436099,None,1247.131308436099,None,1247.131308436099,None,1248.1174669440843,None,1248.1174669440843,None,1249.0976144694723,None,1249.0976144694723,None,h,,,,,,,,,,,,,,,,,,,,,,,,,,,,,,,,,,,,,,,,,,,,,,,77_78Exp,001,2021_May_27_1515,ComputerHuman,2020.1.3,59.98002778389478,
Human.xlsx,h,Sychronize.jpg,Number6.jpg,6,Human,,,,,0,6,6,8,0,8,8,1,,,,,,,,,,,,,,,,,,,,,,,,,,,,,1250.1647573183654,None,1250.1647573183654,None,1250.5977450314276,None,1250.5977450314276,None,v,5.163282962723315,1250.5977450314276,None,t,7.778229130777618,1250.5977450314276,None,5.163282962723315,7.778229130777618,5.8096456183805385,False,False,False,1258.4623529253258,None,1258.4623529253258,None,1258.4623529253258,None,1258.4623529253258,None,1258.4623529253258,None,1258.4623529253258,None,1258.4623529253258,None,1258.4623529253258,None,1259.4477460258786,None,1259.4477460258786,None,1260.4453147505483,None,1260.4453147505483,None,h,,,,,,,,,,,,,,,,,,,,,,,,,,,,,,,,,,,,,,,,,,,,,,,77_78Exp,001,2021_May_27_1515,ComputerHuman,2020.1.3,59.98002778389478,
Human.xlsx,h,Sychronize.jpg,Number10.jpg,10,Human,,,,,0,6,6,8,0,9,9,8,,,,,,,,,,,,,,,,,,,,,,,,,,,,,1261.4790292478028,None,1261.4790292478028,None,1261.9454982430252,None,1261.9454982430252,None,v,9.315004295389372,1261.9454982430252,None,t,9.546151566068147,1261.9454982430252,None,9.315004295389372,9.546151566068147,9.373181876032747,True,False,False,1271.5595888613643,None,1271.5595888613643,None,1271.5595888613643,None,1271.5595888613643,None,1271.5595888613643,None,1271.5595888613643,None,1271.5595888613643,None,1271.5595888613643,None,1272.5450945595767,None,1272.5450945595767,None,1273.5592497852303,None,1273.5592497852303,None,h,,,,,,,,,,,,,,,,,,,,,,,,,,,,,,,,,,,,,,,,,,,,,,,77_78Exp,001,2021_May_27_1515,ComputerHuman,2020.1.3,59.98002778389478,
Human.xlsx,h,,,,,,,,,0,6,6,8,,,,,,,,,,,,,,,,,,,,,,,,,,,,,,,,,,,,,,,,,,,,,,,,,,,,,,,,,,,,,,,,,,,,,,,,,,,,,,,h,1274.560165643663,None,1274.560165643663,None,q,1,3.784079397068126,1274.560165643663,None,o,0,1.5834031053855142,1274.560165643663,None,h,h,1278.4414694282932,None,1278.4414694282932,None,1280.4412464785164,None,None,None,None,None,None,None,None,,,,,,,,,,,,,,,,,,77_78Exp,001,2021_May_27_1515,ComputerHuman,2020.1.3,59.98002778389478,
Human.xlsx,h,Sychronize.jpg,Number8.jpg,8,Human,,,,,0,7,7,0,0,0,0,5,,,,,,,,,,,,,,,,,,,,,,,,,1285.426897495072,None,1285.426897495072,None,1288.5067853721848,None,1288.5067853721848,None,1288.9401301256803,None,1288.9401301256803,None,v,7.335517920349957,1288.9401301256803,None,t,6.975175264189602,1288.9401301256803,None,7.335517920349957,6.975175264189602,8.377412724998818,False,False,False,1296.356611535517,None,1296.356611535517,None,1296.356611535517,None,1296.356611535517,None,1296.356611535517,None,1296.356611535517,None,1296.356611535517,None,1296.356611535517,None,1297.3735348670998,None,1297.3735348670998,None,1298.3709310061859,None,1298.3709310061859,None,h,,,,,,,,,,,,,,,,,,,,,,,,,,,,,,,,,,,,,,,,,,,,,,,77_78Exp,001,2021_May_27_1515,ComputerHuman,2020.1.3,59.98002778389478,
Human.xlsx,h,Sychronize.jpg,Number6.jpg,6,Human,,,,,0,7,7,0,0,1,1,0,,,,,,,,,,,,,,,,,,,,,,,,,,,,,1299.4210991969303,None,1299.4210991969303,None,1299.854078569424,None,1299.854078569424,None,v,5.013265672088892,1299.854078569424,None,t,5.768248038202728,1299.854078569424,None,5.013265672088892,5.768248038202728,5.6789667256004845,False,False,False,1305.719462456862,None,1305.719462456862,None,1305.719462456862,None,1305.719462456862,None,1305.719462456862,None,1305.719462456862,None,1305.719462456862,None,1305.719462456862,None,1306.7055160661766,None,1306.7055160661766,None,1307.7024794581448,None,1307.7024794581448,None,h,,,,,,,,,,,,,,,,,,,,,,,,,,,,,,,,,,,,,,,,,,,,,,,77_78Exp,001,2021_May_27_1515,ComputerHuman,2020.1.3,59.98002778389478,
Human.xlsx,h,Sychronize.jpg,Number8.jpg,8,Human,,,,,0,7,7,0,0,2,2,4,,,,,,,,,,,,,,,,,,,,,,,,,,,,,1308.7518764672168,None,1308.7518764672168,None,1309.202681556504,None,1309.202681556504,None,v,7.468280502256675,1309.202681556504,None,t,7.471634693421947,1309.202681556504,None,7.468280502256675,7.471634693421947,7.873432257240299,True,False,False,1316.7671416298872,None,1316.7671416298872,None,1316.7671416298872,None,1316.7671416298872,None,1316.7671416298872,None,1316.7671416298872,None,1316.7671416298872,None,1316.7671416298872,None,1317.7527172605478,None,1317.7527172605478,None,1318.7501451579483,None,1318.7501451579483,None,h,,,,,,,,,,,,,,,,,,,,,,,,,,,,,,,,,,,,,,,,,,,,,,,77_78Exp,001,2021_May_27_1515,ComputerHuman,2020.1.3,59.98002778389478,
Human.xlsx,h,Sychronize.jpg,Number9.jpg,9,Human,,,,,0,7,7,0,0,3,3,6,,,,,,,,,,,,,,,,,,,,,,,,,,,,,1319.80039579199,None,1319.80039579199,None,1320.25040403632,None,1320.25040403632,None,v,8.240168556447315,1320.25040403632,None,t,8.535120524400554,1320.25040403632,None,8.240168556447315,8.535120524400554,8.435955341604226,True,False,False,1328.8814994671666,None,1328.8814994671666,None,1328.8814994671666,None,1328.8814994671666,None,1328.8814994671666,None,1328.8814994671666,None,1328.8814994671666,None,1328.8814994671666,None,1329.8667161326448,None,1329.8667161326448,None,1330.864354468973,None,1330.864354468973,None,h,,,,,,,,,,,,,,,,,,,,,,,,,,,,,,,,,,,,,,,,,,,,,,,77_78Exp,001,2021_May_27_1515,ComputerHuman,2020.1.3,59.98002778389478,
Human.xlsx,h,Sychronize.jpg,Number10.jpg,10,Human,,,,,0,7,7,0,0,4,4,8,,,,,,,,,,,,,,,,,,,,,,,,,,,,,1331.914067778016,None,1331.914067778016,None,1332.3479537060011,None,1332.3479537060011,None,v,8.874181902636337,1332.3479537060011,None,t,9.281139667931711,1332.3479537060011,None,8.874181902636337,9.281139667931711,10.345347540881457,False,False,False,1341.712134306228,None,1341.712134306228,None,1341.712134306228,None,1341.712134306228,None,1341.712134306228,None,1341.712134306228,None,1341.712134306228,None,1341.712134306228,None,1342.6982331470826,None,1342.6982331470826,None,1343.6950611652283,None,1343.6950611652283,None,h,,,,,,,,,,,,,,,,,,,,,,,,,,,,,,,,,,,,,,,,,,,,,,,77_78Exp,001,2021_May_27_1515,ComputerHuman,2020.1.3,59.98002778389478,
Human.xlsx,h,Sychronize.jpg,Number9.jpg,9,Human,,,,,0,7,7,0,0,5,5,7,,,,,,,,,,,,,,,,,,,,,,,,,,,,,1344.7448678244655,None,1344.7448678244655,None,1345.1952327884355,None,1345.1952327884355,None,v,8.554496303524502,1345.1952327884355,None,t,8.366178166063037,1345.1952327884355,None,8.554496303524502,8.366178166063037,8.36971276453955,True,False,False,1353.8110778129994,None,1353.8110778129994,None,1353.8110778129994,None,1353.8110778129994,None,1353.8110778129994,None,1353.8110778129994,None,1353.8110778129994,None,1353.8110778129994,None,1354.8114261920746,None,1354.8114261920746,None,1355.8091925240296,None,1355.8091925240296,None,h,,,,,,,,,,,,,,,,,,,,,,,,,,,,,,,,,,,,,,,,,,,,,,,77_78Exp,001,2021_May_27_1515,ComputerHuman,2020.1.3,59.98002778389478,
Human.xlsx,h,Sychronize.jpg,Number7.jpg,7,Human,,,,,0,7,7,0,0,6,6,2,,,,,,,,,,,,,,,,,,,,,,,,,,,,,1356.876584306774,None,1356.876584306774,None,1357.3261639742668,None,1357.3261639742668,None,v,6.979159488964797,1357.3261639742668,None,t,6.374250872711855,1357.3261639742668,None,6.979159488964797,6.374250872711855,7.163357361464783,False,False,False,1364.3756238583846,None,1364.3756238583846,None,1364.3756238583846,None,1364.3756238583846,None,1364.3756238583846,None,1364.3756238583846,None,1364.3756238583846,None,1364.3756238583846,None,1365.376495126864,None,1365.376495126864,None,1366.3570920805032,None,1366.3570920805032,None,h,,,,,,,,,,,,,,,,,,,,,,,,,,,,,,,,,,,,,,,,,,,,,,,77_78Exp,001,2021_May_27_1515,ComputerHuman,2020.1.3,59.98002778389478,
Human.xlsx,h,Sychronize.jpg,Number10.jpg,10,Human,,,,,0,7,7,0,0,7,7,9,,,,,,,,,,,,,,,,,,,,,,,,,,,,,1367.423780047695,None,1367.423780047695,None,1367.8570712290857,None,1367.8570712290857,None,v,9.403779046828276,1367.8570712290857,None,t,8.911136389444437,1367.8570712290857,None,9.403779046828276,8.911136389444437,10.499805836559386,False,False,False,1377.3549431012907,None,1377.3549431012907,None,1377.3549431012907,None,1377.3549431012907,None,1377.3549431012907,None,1377.3549431012907,None,1377.3549431012907,None,1377.3549431012907,None,1378.3395913250388,None,1378.3395913250388,None,1379.3378449385891,None,1379.3378449385891,None,h,,,,,,,,,,,,,,,,,,,,,,,,,,,,,,,,,,,,,,,,,,,,,,,77_78Exp,001,2021_May_27_1515,ComputerHuman,2020.1.3,59.98002778389478,
Human.xlsx,h,Sychronize.jpg,Number7.jpg,7,Human,,,,,0,7,7,0,0,8,8,3,,,,,,,,,,,,,,,,,,,,,,,,,,,,,1380.3882755364102,None,1380.3882755364102,None,1380.838163484099,None,1380.838163484099,None,v,6.806409982502373,1380.838163484099,None,t,7.5292253473671735,1380.838163484099,None,6.806409982502373,7.5292253473671735,7.328068093595834,False,False,False,1388.420944575646,None,1388.420944575646,None,1388.420944575646,None,1388.420944575646,None,1388.420944575646,None,1388.420944575646,None,1388.420944575646,None,1388.420944575646,None,1389.4210963098121,None,1389.4210963098121,None,1390.4356162748845,None,1390.4356162748845,None,h,,,,,,,,,,,,,,,,,,,,,,,,,,,,,,,,,,,,,,,,,,,,,,,77_78Exp,001,2021_May_27_1515,ComputerHuman,2020.1.3,59.98002778389478,
Human.xlsx,h,Sychronize.jpg,Number6.jpg,6,Human,,,,,0,7,7,0,0,9,9,1,,,,,,,,,,,,,,,,,,,,,,,,,,,,,1391.5024052912559,None,1391.5024052912559,None,1391.9356172372572,None,1391.9356172372572,None,v,5.880526187134819,1391.9356172372572,None,t,5.708280001821549,1391.9356172372572,None,5.880526187134819,5.708280001821549,6.076434876755001,True,False,False,1397.900727040822,None,1397.900727040822,None,1397.900727040822,None,1397.900727040822,None,1397.900727040822,None,1397.900727040822,None,1397.900727040822,None,1397.900727040822,None,1398.8860248664387,None,1398.8860248664387,None,1399.867012543571,None,1399.867012543571,None,h,,,,,,,,,,,,,,,,,,,,,,,,,,,,,,,,,,,,,,,,,,,,,,,77_78Exp,001,2021_May_27_1515,ComputerHuman,2020.1.3,59.98002778389478,
Human.xlsx,h,,,,,,,,,0,7,7,0,,,,,,,,,,,,,,,,,,,,,,,,,,,,,,,,,,,,,,,,,,,,,,,,,,,,,,,,,,,,,,,,,,,,,,,,,,,,,,,h,1400.8677510045563,None,1400.8677510045563,None,a,0,3.9404149881302146,1400.8677510045563,None,l,0,1.9433560004290484,1400.8677510045563,None,c,c,1404.9001271615707,None,1404.9001271615707,None,1406.8989075140162,None,None,None,None,None,None,None,None,,,,,,,,,,,,,,,,,,77_78Exp,001,2021_May_27_1515,ComputerHuman,2020.1.3,59.98002778389478,
Human.xlsx,h,Sychronize.jpg,Number7.jpg,7,Human,,,,,0,8,8,2,0,0,0,3,,,,,,,,,,,,,,,,,,,,,,,,,1411.9015017511956,None,1411.9015017511956,None,1414.9641647531462,None,1414.9641647531462,None,1415.4141681856127,None,1415.4141681856127,None,v,7.48936898476677,1415.4141681856127,None,t,6.444238496591424,1415.4141681856127,None,7.48936898476677,6.444238496591424,7.000470379569084,False,False,False,1423.0123395483388,None,1423.0123395483388,None,1423.0123395483388,None,1423.0123395483388,None,1423.0123395483388,None,1423.0123395483388,None,1423.0123395483388,None,1423.0123395483388,None,1423.998561572953,None,1423.998561572953,None,1424.9952468390838,None,1424.9952468390838,None,h,,,,,,,,,,,,,,,,,,,,,,,,,,,,,,,,,,,,,,,,,,,,,,,77_78Exp,001,2021_May_27_1515,ComputerHuman,2020.1.3,59.98002778389478,
Human.xlsx,h,Sychronize.jpg,Number10.jpg,10,Human,,,,,0,8,8,2,0,1,1,9,,,,,,,,,,,,,,,,,,,,,,,,,,,,,1426.0623236050233,None,1426.0623236050233,None,1426.4952577459808,None,1426.4952577459808,None,v,10.287602965905535,1426.4952577459808,None,t,6.883190035972802,1426.4952577459808,None,10.287602965905535,6.883190035972802,10.45641207120235,False,False,False,1436.8761804308488,None,1436.8761804308488,None,1436.8761804308488,None,1436.8761804308488,None,1436.8761804308488,None,1436.8761804308488,None,1436.8761804308488,None,1436.8761804308488,None,1437.8450223174332,None,1437.8450223174332,None,1438.8423366548013,None,1438.8423366548013,None,h,,,,,,,,,,,,,,,,,,,,,,,,,,,,,,,,,,,,,,,,,,,,,,,77_78Exp,001,2021_May_27_1515,ComputerHuman,2020.1.3,59.98002778389478,
Human.xlsx,h,Sychronize.jpg,Number8.jpg,8,Human,,,,,0,8,8,2,0,2,2,4,,,,,,,,,,,,,,,,,,,,,,,,,,,,,1439.9097836136061,None,1439.9097836136061,None,1440.3591910163086,None,1440.3591910163086,None,v,7.7792970441696525,1440.3591910163086,None,t,7.702198445193062,1440.3591910163086,None,7.7792970441696525,7.702198445193062,7.593762401466868,True,False,False,1448.2076868591794,None,1448.2076868591794,None,1448.2076868591794,None,1448.2076868591794,None,1448.2076868591794,None,1448.2076868591794,None,1448.2076868591794,None,1448.2076868591794,None,1449.2096202668072,None,1449.2096202668072,None,1450.1901989353573,None,1450.1901989353573,None,h,,,,,,,,,,,,,,,,,,,,,,,,,,,,,,,,,,,,,,,,,,,,,,,77_78Exp,001,2021_May_27_1515,ComputerHuman,2020.1.3,59.98002778389478,
Human.xlsx,h,Sychronize.jpg,Number9.jpg,9,Human,,,,,0,8,8,2,0,3,3,7,,,,,,,,,,,,,,,,,,,,,,,,,,,,,1451.2569087163392,None,1451.2569087163392,None,1451.6901546661938,None,1451.6901546661938,None,v,8.399900041509682,1451.6901546661938,None,t,8.719157063787861,1451.6901546661938,None,8.399900041509682,8.719157063787861,8.958829439931606,False,False,False,1460.5047181946902,None,1460.5047181946902,None,1460.5047181946902,None,1460.5047181946902,None,1460.5047181946902,None,1460.5047181946902,None,1460.5047181946902,None,1460.5047181946902,None,1461.49027842738,None,1461.49027842738,None,1462.487654998211,None,1462.487654998211,None,h,,,,,,,,,,,,,,,,,,,,,,,,,,,,,,,,,,,,,,,,,,,,,,,77_78Exp,001,2021_May_27_1515,ComputerHuman,2020.1.3,59.98002778389478,
Human.xlsx,h,Sychronize.jpg,Number6.jpg,6,Human,,,,,0,8,8,2,0,4,4,0,,,,,,,,,,,,,,,,,,,,,,,,,,,,,1463.5374270120155,None,1463.5374270120155,None,1463.9876039924347,None,1463.9876039924347,None,v,5.650123151681328,1463.9876039924347,None,t,5.569176664121187,1463.9876039924347,None,5.650123151681328,5.569176664121187,5.952374666304118,True,False,False,1469.7362106365326,None,1469.7362106365326,None,1469.7362106365326,None,1469.7362106365326,None,1469.7362106365326,None,1469.7362106365326,None,1469.7362106365326,None,1469.7362106365326,None,1470.7045597880715,None,1470.7045597880715,None,1471.7024207533832,None,1471.7024207533832,None,h,,,,,,,,,,,,,,,,,,,,,,,,,,,,,,,,,,,,,,,,,,,,,,,77_78Exp,001,2021_May_27_1515,ComputerHuman,2020.1.3,59.98002778389478,
Human.xlsx,h,Sychronize.jpg,Number10.jpg,10,Human,,,,,0,8,8,2,0,5,5,8,,,,,,,,,,,,,,,,,,,,,,,,,,,,,1472.7860285234565,None,1472.7860285234565,None,1473.219300457382,None,1473.219300457382,None,v,9.2859736681894,1473.219300457382,None,None,,1473.219300457382,None,9.2859736681894,13,9.668355582359279,False,False,False,1486.2846231378862,None,1486.2846231378862,None,1486.2846231378862,None,1486.2846231378862,None,1486.2846231378862,None,1486.2846231378862,None,1486.2846231378862,None,1486.2846231378862,None,1487.2683843743944,None,1487.2683843743944,None,1488.2657542086163,None,1488.2657542086163,None,h,,,,,,,,,,,,,,,,,,,,,,,,,,,,,,,,,,,,,,,,,,,,,,,77_78Exp,001,2021_May_27_1515,ComputerHuman,2020.1.3,59.98002778389478,
Human.xlsx,h,Sychronize.jpg,Number9.jpg,9,Human,,,,,0,8,8,2,0,6,6,6,,,,,,,,,,,,,,,,,,,,,,,,,,,,,1489.3494357606287,None,1489.3494357606287,None,1489.7824353429605,None,1489.7824353429605,None,v,9.190296455835778,1489.7824353429605,None,t,8.213229486857017,1489.7824353429605,None,9.190296455835778,8.213229486857017,9.5248831384072,False,False,False,1499.0635249674851,None,1499.0635249674851,None,1499.0635249674851,None,1499.0635249674851,None,1499.0635249674851,None,1499.0635249674851,None,1499.0635249674851,None,1499.0635249674851,None,1500.0326151463414,None,1500.0326151463414,None,1501.0298178484263,None,1501.0298178484263,None,h,,,,,,,,,,,,,,,,,,,,,,,,,,,,,,,,,,,,,,,,,,,,,,,77_78Exp,001,2021_May_27_1515,ComputerHuman,2020.1.3,59.98002778389478,
Human.xlsx,h,Sychronize.jpg,Number8.jpg,8,Human,,,,,0,8,8,2,0,7,7,5,,,,,,,,,,,,,,,,,,,,,,,,,,,,,1502.0963069251702,None,1502.0963069251702,None,1502.5300831426212,None,1502.5300831426212,None,v,7.770252340651496,1502.5300831426212,None,t,7.589232841048215,1502.5300831426212,None,7.770252340651496,7.589232841048215,7.706193677448924,True,False,False,1510.3946044229378,None,1510.3946044229378,None,1510.3946044229378,None,1510.3946044229378,None,1510.3946044229378,None,1510.3946044229378,None,1510.3946044229378,None,1510.3946044229378,None,1511.380435403269,None,1511.380435403269,None,1512.3774950325496,None,1512.3774950325496,None,h,,,,,,,,,,,,,,,,,,,,,,,,,,,,,,,,,,,,,,,,,,,,,,,77_78Exp,001,2021_May_27_1515,ComputerHuman,2020.1.3,59.98002778389478,
Human.xlsx,h,Sychronize.jpg,Number6.jpg,6,Human,,,,,0,8,8,2,0,8,8,1,,,,,,,,,,,,,,,,,,,,,,,,,,,,,1513.411128690459,None,1513.411128690459,None,1513.8777837444904,None,1513.8777837444904,None,v,5.5902173487629625,1513.8777837444904,None,t,5.9852679920441005,1513.8777837444904,None,5.5902173487629625,5.9852679920441005,6.424128201945963,False,False,False,1519.944368737757,None,1519.944368737757,None,1519.944368737757,None,1519.944368737757,None,1519.944368737757,None,1519.944368737757,None,1519.944368737757,None,1519.944368737757,None,1520.928192207728,None,1520.928192207728,None,1521.925523867816,None,1521.925523867816,None,h,,,,,,,,,,,,,,,,,,,,,,,,,,,,,,,,,,,,,,,,,,,,,,,77_78Exp,001,2021_May_27_1515,ComputerHuman,2020.1.3,59.98002778389478,
Human.xlsx,h,Sychronize.jpg,Number7.jpg,7,Human,,,,,0,8,8,2,0,9,9,2,,,,,,,,,,,,,,,,,,,,,,,,,,,,,1522.992083197798,None,1522.992083197798,None,1523.4424138371287,None,1523.4424138371287,None,v,7.457282181276241,1523.4424138371287,None,t,6.208251130628923,1523.4424138371287,None,7.457282181276241,6.208251130628923,7.140494733825033,False,False,False,1530.9904073853795,None,1530.9904073853795,None,1530.9904073853795,None,1530.9904073853795,None,1530.9904073853795,None,1530.9904073853795,None,1530.9904073853795,None,1530.9904073853795,None,1531.9755412867707,None,1531.9755412867707,None,1532.9567009079037,None,1532.9567009079037,None,h,,,,,,,,,,,,,,,,,,,,,,,,,,,,,,,,,,,,,,,,,,,,,,,77_78Exp,001,2021_May_27_1515,ComputerHuman,2020.1.3,59.98002778389478,
Human.xlsx,h,,,,,,,,,0,8,8,2,,,,,,,,,,,,,,,,,,,,,,,,,,,,,,,,,,,,,,,,,,,,,,,,,,,,,,,,,,,,,,,,,,,,,,,,,,,,,,,h,1533.956971976335,None,1533.956971976335,None,q,1,4.702407600951119,1533.956971976335,None,l,0,2.8933202963853546,1533.956971976335,None,h,c,1538.7563117242062,None,1538.7563117242062,None,1540.7550369005912,None,None,None,None,None,None,None,None,,,,,,,,,,,,,,,,,,77_78Exp,001,2021_May_27_1515,ComputerHuman,2020.1.3,59.98002778389478,
Computer.xlsx,c,Sychronize.jpg,Number7.jpg,7,Computer,,,,,0,9,9,5,0,0,0,3,,,,,,,,,,,,,,,,,,,,,,,,,1545.7567807207124,None,1545.7567807207124,None,1548.820613326814,None,1548.820613326814,None,1549.270590133623,None,1549.270590133623,None,v,7.128143190857372,1549.270590133623,None,t,6.7872250740547315,1549.270590133623,None,7.128143190857372,6.7872250740547315,7.03606259611009,False,True,True,1556.5018689286262,None,1556.5018689286262,None,1556.5018689286262,None,1556.5018689286262,None,1556.5018689286262,None,1556.5018689286262,None,1556.5018689286262,None,1556.5018689286262,None,1557.5016658678978,None,1557.5016658678978,None,1558.4848086192687,None,1558.4848086192687,None,c,,,,,,,,,,,,,,,,,,,,,,,,,,,,,,,,,,,,,,,,,,,,,,,77_78Exp,001,2021_May_27_1515,ComputerHuman,2020.1.3,59.98002778389478,
Computer.xlsx,c,Sychronize.jpg,Number8.jpg,8,Computer,,,,,0,9,9,5,0,1,1,4,,,,,,,,,,,,,,,,,,,,,,,,,,,,,1559.5349813010907,None,1559.5349813010907,None,1559.9851201073725,None,1559.9851201073725,None,v,7.44927202888357,1559.9851201073725,None,t,7.368201074394165,1559.9851201073725,None,7.44927202888357,7.368201074394165,7.435290582448629,False,True,True,1567.5330440439684,None,1567.5330440439684,None,1567.5330440439684,None,1567.5330440439684,None,1567.5330440439684,None,1567.5330440439684,None,1567.5330440439684,None,1567.5330440439684,None,1568.5160417977895,None,1568.5160417977895,None,1569.4992012302973,None,1569.4992012302973,None,c,,,,,,,,,,,,,,,,,,,,,,,,,,,,,,,,,,,,,,,,,,,,,,,77_78Exp,001,2021_May_27_1515,ComputerHuman,2020.1.3,59.98002778389478,
Computer.xlsx,c,Sychronize.jpg,Number7.jpg,7,Computer,,,,,0,9,9,5,0,2,2,2,,,,,,,,,,,,,,,,,,,,,,,,,,,,,1570.5660611414896,None,1570.5660611414896,None,1570.9992974676097,None,1570.9992974676097,None,v,7.7307356957680895,1570.9992974676097,None,t,6.354186996799399,1570.9992974676097,None,7.7307356957680895,6.354186996799399,7.103275268864703,False,False,False,1578.8140233163758,None,1578.8140233163758,None,1578.8140233163758,None,1578.8140233163758,None,1578.8140233163758,None,1578.8140233163758,None,1578.8140233163758,None,1578.8140233163758,None,1579.8138343704486,None,1579.8138343704486,None,1580.7969986148237,None,1580.7969986148237,None,c,,,,,,,,,,,,,,,,,,,,,,,,,,,,,,,,,,,,,,,,,,,,,,,77_78Exp,001,2021_May_27_1515,ComputerHuman,2020.1.3,59.98002778389478,
Computer.xlsx,c,Sychronize.jpg,Number6.jpg,6,Computer,,,,,0,9,9,5,0,3,3,1,,,,,,,,,,,,,,,,,,,,,,,,,,,,,1581.8473996998655,None,1581.8473996998655,None,1582.2801384790764,None,1582.2801384790764,None,v,5.437586252694018,1582.2801384790764,None,t,6.505409820183559,1582.2801384790764,None,5.437586252694018,6.505409820183559,5.78285909269652,False,False,False,1588.8786460308183,None,1588.8786460308183,None,1588.8786460308183,None,1588.8786460308183,None,1588.8786460308183,None,1588.8786460308183,None,1588.8786460308183,None,1588.8786460308183,None,1589.8784185899676,None,1589.8784185899676,None,1590.8615975907305,None,1590.8615975907305,None,c,,,,,,,,,,,,,,,,,,,,,,,,,,,,,,,,,,,,,,,,,,,,,,,77_78Exp,001,2021_May_27_1515,ComputerHuman,2020.1.3,59.98002778389478,
Computer.xlsx,c,Sychronize.jpg,Number9.jpg,9,Computer,,,,,0,9,9,5,0,4,4,7,,,,,,,,,,,,,,,,,,,,,,,,,,,,,1591.9123550746262,None,1591.9123550746262,None,1592.361655012326,None,1592.361655012326,None,v,7.527688116679201,1592.361655012326,None,t,9.267130402200564,1592.361655012326,None,7.527688116679201,9.267130402200564,8.561219914762184,False,False,False,1601.7260213505688,None,1601.7260213505688,None,1601.7260213505688,None,1601.7260213505688,None,1601.7260213505688,None,1601.7260213505688,None,1601.7260213505688,None,1601.7260213505688,None,1602.7093107034489,None,1602.7093107034489,None,1603.6923912213606,None,1603.6923912213606,None,c,,,,,,,,,,,,,,,,,,,,,,,,,,,,,,,,,,,,,,,,,,,,,,,77_78Exp,001,2021_May_27_1515,ComputerHuman,2020.1.3,59.98002778389478,
Computer.xlsx,c,Sychronize.jpg,Number8.jpg,8,Computer,,,,,0,9,9,5,0,5,5,5,,,,,,,,,,,,,,,,,,,,,,,,,,,,,1604.7599061878645,None,1604.7599061878645,None,1605.192535577331,None,1605.192535577331,None,v,7.016286561356537,1605.192535577331,None,t,7.091208913883747,1605.192535577331,None,7.016286561356537,7.091208913883747,8.173393946671116,False,False,False,1612.3738787550974,None,1612.3738787550974,None,1612.3738787550974,None,1612.3738787550974,None,1612.3738787550974,None,1612.3738787550974,None,1612.3738787550974,None,1612.3738787550974,None,1613.3736821101884,None,1613.3736821101884,None,1614.3568819623688,None,1614.3568819623688,None,c,,,,,,,,,,,,,,,,,,,,,,,,,,,,,,,,,,,,,,,,,,,,,,,77_78Exp,001,2021_May_27_1515,ComputerHuman,2020.1.3,59.98002778389478,
Computer.xlsx,c,Sychronize.jpg,Number9.jpg,9,Computer,,,,,0,9,9,5,0,6,6,6,,,,,,,,,,,,,,,,,,,,,,,,,,,,,1615.4073119186069,None,1615.4073119186069,None,1615.8402832713218,None,1615.8402832713218,None,v,9.836109138246684,1615.8402832713218,None,t,8.135166910789849,1615.8402832713218,None,9.836109138246684,8.135166910789849,8.472016423444526,False,False,False,1625.7712615492783,None,1625.7712615492783,None,1625.7712615492783,None,1625.7712615492783,None,1625.7712615492783,None,1625.7712615492783,None,1625.7712615492783,None,1625.7712615492783,None,1626.770938833488,None,1626.770938833488,None,1627.7540514305038,None,1627.7540514305038,None,c,,,,,,,,,,,,,,,,,,,,,,,,,,,,,,,,,,,,,,,,,,,,,,,77_78Exp,001,2021_May_27_1515,ComputerHuman,2020.1.3,59.98002778389478,
Computer.xlsx,c,Sychronize.jpg,Number6.jpg,6,Computer,,,,,0,9,9,5,0,7,7,0,,,,,,,,,,,,,,,,,,,,,,,,,,,,,1628.7881159107856,None,1628.7881159107856,None,1629.254054959205,None,1629.254054959205,None,v,5.906317466367909,1629.254054959205,None,t,4.9892708227052935,1629.254054959205,None,5.906317466367909,4.9892708227052935,6.057710832781041,False,True,False,1635.2525700174556,None,1635.2525700174556,None,1635.2525700174556,None,1635.2525700174556,None,1635.2525700174556,None,1635.2525700174556,None,1635.2525700174556,None,1635.2525700174556,None,1636.2356822936817,None,1636.2356822936817,None,1637.2188943359215,None,1637.2188943359215,None,c,,,,,,,,,,,,,,,,,,,,,,,,,,,,,,,,,,,,,,,,,,,,,,,77_78Exp,001,2021_May_27_1515,ComputerHuman,2020.1.3,59.98002778389478,
Computer.xlsx,c,Sychronize.jpg,Number10.jpg,10,Computer,,,,,0,9,9,5,0,8,8,8,,,,,,,,,,,,,,,,,,,,,,,,,,,,,1638.28603333532,None,1638.28603333532,None,1638.7188484628023,None,1638.7188484628023,None,v,9.080824266176933,1638.7188484628023,None,t,8.896154806061531,1638.7188484628023,None,9.080824266176933,8.896154806061531,10.730184882241735,False,False,False,1647.8680002591973,None,1647.8680002591973,None,1647.8680002591973,None,1647.8680002591973,None,1647.8680002591973,None,1647.8680002591973,None,1647.8680002591973,None,1647.8680002591973,None,1648.8831977349582,None,1648.8831977349582,None,1649.8496365758256,None,1649.8496365758256,None,c,,,,,,,,,,,,,,,,,,,,,,,,,,,,,,,,,,,,,,,,,,,,,,,77_78Exp,001,2021_May_27_1515,ComputerHuman,2020.1.3,59.98002778389478,
Computer.xlsx,c,Sychronize.jpg,Number10.jpg,10,Computer,,,,,0,9,9,5,0,9,9,9,,,,,,,,,,,,,,,,,,,,,,,,,,,,,1650.8999000415097,None,1650.8999000415097,None,1651.3500523210168,None,1651.3500523210168,None,v,9.885273573810991,1651.3500523210168,None,t,6.388235437530966,1651.3500523210168,None,9.885273573810991,6.388235437530966,9.491435217196445,False,False,False,1661.3306704468669,None,1661.3306704468669,None,1661.3306704468669,None,1661.3306704468669,None,1661.3306704468669,None,1661.3306704468669,None,1661.3306704468669,None,1661.3306704468669,None,1662.3304205506429,None,1662.3304205506429,None,1663.3136717293892,None,1663.3136717293892,None,c,,,,,,,,,,,,,,,,,,,,,,,,,,,,,,,,,,,,,,,,,,,,,,,77_78Exp,001,2021_May_27_1515,ComputerHuman,2020.1.3,59.98002778389478,
Computer.xlsx,c,,,,,,,,,0,9,9,5,,,,,,,,,,,,,,,,,,,,,,,,,,,,,,,,,,,,,,,,,,,,,,,,,,,,,,,,,,,,,,,,,,,,,,,,,,,,,,,c,1664.314771401092,None,1664.314771401092,None,a,1,3.5722963570333377,1664.314771401092,None,l,0,2.3833950214539072,1664.314771401092,None,c,c,1667.9630448716089,None,1667.9630448716089,None,None,None,1669.9622406484596,None,1669.9622406484596,None,"['space', 'space']",1670.9453837206238,None,"[332.3702377767404, 335.3980680038512]",,,,,,,,,,,,,,,,,77_78Exp,001,2021_May_27_1515,ComputerHuman,2020.1.3,59.98002778389478,
Computer.xlsx,c,Sychronize.jpg,Number7.jpg,7,Computer,,,,,1,0,10,1,0,0,0,3,,,,,,,,,,,,,,,,,,,,,,,,,2006.3971912819252,None,2006.3971912819252,None,2009.4601375423663,None,2009.4601375423663,None,2009.9105666645482,None,2009.9105666645482,None,v,7.00448433802012,2009.9105666645482,None,t,6.184222598189081,2009.9105666645482,None,7.00448433802012,6.184222598189081,7.1610011482974265,False,True,False,2016.992893515977,None,2016.992893515977,None,2016.992893515977,None,2016.992893515977,None,2016.992893515977,None,2016.992893515977,None,2016.992893515977,None,2016.992893515977,None,2018.0247618607682,None,2018.0247618607682,None,2018.9914727324394,None,2018.9914727324394,None,c,,,,,,,,,,,,,,,,,,,,,,,,,,,,,,,,,,,,,,,,,,,,,,,77_78Exp,001,2021_May_27_1515,ComputerHuman,2020.1.3,59.98002778389478,
Computer.xlsx,c,Sychronize.jpg,Number7.jpg,7,Computer,,,,,1,0,10,1,0,1,1,2,,,,,,,,,,,,,,,,,,,,,,,,,,,,,2020.0416928913328,None,2020.0416928913328,None,2020.491582763767,None,2020.491582763767,None,v,6.8350970424980915,2020.491582763767,None,t,6.08224344575865,2020.491582763767,None,6.8350970424980915,6.08224344575865,6.919430053295881,False,True,False,2027.4080446053522,None,2027.4080446053522,None,2027.4080446053522,None,2027.4080446053522,None,2027.4080446053522,None,2027.4080446053522,None,2027.4080446053522,None,2027.4080446053522,None,2028.4228673971702,None,2028.4228673971702,None,2029.4059986000684,None,2029.4059986000684,None,c,,,,,,,,,,,,,,,,,,,,,,,,,,,,,,,,,,,,,,,,,,,,,,,77_78Exp,001,2021_May_27_1515,ComputerHuman,2020.1.3,59.98002778389478,
Computer.xlsx,c,Sychronize.jpg,Number10.jpg,10,Computer,,,,,1,0,10,1,0,2,2,9,,,,,,,,,,,,,,,,,,,,,,,,,,,,,2030.456133749336,None,2030.456133749336,None,2030.9062186627234,None,2030.9062186627234,None,v,9.504029135525343,2030.9062186627234,None,t,8.495160546295665,2030.9062186627234,None,9.504029135525343,8.495160546295665,9.717392521254693,False,True,False,2040.488706872049,None,2040.488706872049,None,2040.488706872049,None,2040.488706872049,None,2040.488706872049,None,2040.488706872049,None,2040.488706872049,None,2040.488706872049,None,2041.5035877270457,None,2041.5035877270457,None,2042.5033352644932,None,2042.5033352644932,None,c,,,,,,,,,,,,,,,,,,,,,,,,,,,,,,,,,,,,,,,,,,,,,,,77_78Exp,001,2021_May_27_1515,ComputerHuman,2020.1.3,59.98002778389478,
Computer.xlsx,c,Sychronize.jpg,Number8.jpg,8,Computer,,,,,1,0,10,1,0,3,3,5,,,,,,,,,,,,,,,,,,,,,,,,,,,,,2043.536845738643,None,2043.536845738643,None,2044.0039614486159,None,2044.0039614486159,None,v,7.509895120576402,2044.0039614486159,None,t,7.857255042355973,2044.0039614486159,None,7.509895120576402,7.857255042355973,8.422937378322835,False,False,False,2051.9514101011955,None,2051.9514101011955,None,2051.9514101011955,None,2051.9514101011955,None,2051.9514101011955,None,2051.9514101011955,None,2051.9514101011955,None,2051.9514101011955,None,2052.9344142708396,None,2052.9344142708396,None,2053.9176795643907,None,2053.9176795643907,None,c,,,,,,,,,,,,,,,,,,,,,,,,,,,,,,,,,,,,,,,,,,,,,,,77_78Exp,001,2021_May_27_1515,ComputerHuman,2020.1.3,59.98002778389478,
Computer.xlsx,c,Sychronize.jpg,Number9.jpg,9,Computer,,,,,1,0,10,1,0,4,4,7,,,,,,,,,,,,,,,,,,,,,,,,,,,,,2054.967305618269,None,2054.967305618269,None,2055.4184715974807,None,2055.4184715974807,None,v,8.8749460269064,2055.4184715974807,None,t,7.87824183410703,2055.4184715974807,None,8.8749460269064,7.87824183410703,8.615563370599956,False,True,False,2064.382236965779,None,2064.382236965779,None,2064.382236965779,None,2064.382236965779,None,2064.382236965779,None,2064.382236965779,None,2064.382236965779,None,2064.382236965779,None,2065.3820361505823,None,2065.3820361505823,None,2066.3483947936875,None,2066.3483947936875,None,c,,,,,,,,,,,,,,,,,,,,,,,,,,,,,,,,,,,,,,,,,,,,,,,77_78Exp,001,2021_May_27_1515,ComputerHuman,2020.1.3,59.98002778389478,
Computer.xlsx,c,Sychronize.jpg,Number10.jpg,10,Computer,,,,,1,0,10,1,0,5,5,8,,,,,,,,,,,,,,,,,,,,,,,,,,,,,2067.4154256865077,None,2067.4154256865077,None,2067.8486026662868,None,2067.8486026662868,None,v,9.816377281065797,2067.8486026662868,None,t,6.707229731939151,2067.8486026662868,None,9.816377281065797,6.707229731939151,9.846708304073477,False,True,False,2077.7628205745095,None,2077.7628205745095,None,2077.7628205745095,None,2077.7628205745095,None,2077.7628205745095,None,2077.7628205745095,None,2077.7628205745095,None,2077.7628205745095,None,2078.7625575258535,None,2078.7625575258535,None,2079.7457942690016,None,2079.7457942690016,None,c,,,,,,,,,,,,,,,,,,,,,,,,,,,,,,,,,,,,,,,,,,,,,,,77_78Exp,001,2021_May_27_1515,ComputerHuman,2020.1.3,59.98002778389478,
Computer.xlsx,c,Sychronize.jpg,Number6.jpg,6,Computer,,,,,1,0,10,1,0,6,6,1,,,,,,,,,,,,,,,,,,,,,,,,,,,,,2080.796148839345,None,2080.796148839345,None,2081.245666273375,None,2081.245666273375,None,v,7.414974012717721,2081.245666273375,None,t,5.438505960621114,2081.245666273375,None,7.414974012717721,5.438505960621114,6.197907596973406,False,False,False,2088.727203144779,None,2088.727203144779,None,2088.727203144779,None,2088.727203144779,None,2088.727203144779,None,2088.727203144779,None,2088.727203144779,None,2088.727203144779,None,2089.743760774567,None,2089.743760774567,None,2090.7269131496723,None,2090.7269131496723,None,c,,,,,,,,,,,,,,,,,,,,,,,,,,,,,,,,,,,,,,,,,,,,,,,77_78Exp,001,2021_May_27_1515,ComputerHuman,2020.1.3,59.98002778389478,
Computer.xlsx,c,Sychronize.jpg,Number9.jpg,9,Computer,,,,,1,0,10,1,0,7,7,6,,,,,,,,,,,,,,,,,,,,,,,,,,,,,2091.793809951836,None,2091.793809951836,None,2092.227011311734,None,2092.227011311734,None,v,8.793142385671672,2092.227011311734,None,t,8.292180654116237,2092.227011311734,None,8.793142385671672,8.292180654116237,8.60525532337065,False,True,False,2101.108073540705,None,2101.108073540705,None,2101.108073540705,None,2101.108073540705,None,2101.108073540705,None,2101.108073540705,None,2101.108073540705,None,2101.108073540705,None,2102.0912236702716,None,2102.0912236702716,None,2103.0744058789423,None,2103.0744058789423,None,c,,,,,,,,,,,,,,,,,,,,,,,,,,,,,,,,,,,,,,,,,,,,,,,77_78Exp,001,2021_May_27_1515,ComputerHuman,2020.1.3,59.98002778389478,
Computer.xlsx,c,Sychronize.jpg,Number6.jpg,6,Computer,,,,,1,0,10,1,0,8,8,0,,,,,,,,,,,,,,,,,,,,,,,,,,,,,2104.125009062347,None,2104.125009062347,None,2104.5744819064203,None,2104.5744819064203,None,v,4.945412591820059,2104.5744819064203,None,t,5.380370603477786,2104.5744819064203,None,4.945412591820059,5.380370603477786,5.757828734824995,False,False,False,2110.0396115990334,None,2110.0396115990334,None,2110.0396115990334,None,2110.0396115990334,None,2110.0396115990334,None,2110.0396115990334,None,2110.0396115990334,None,2110.0396115990334,None,2111.039351116706,None,2111.039351116706,None,2112.0225243432287,None,2112.0225243432287,None,c,,,,,,,,,,,,,,,,,,,,,,,,,,,,,,,,,,,,,,,,,,,,,,,77_78Exp,001,2021_May_27_1515,ComputerHuman,2020.1.3,59.98002778389478,
Computer.xlsx,c,Sychronize.jpg,Number8.jpg,8,Computer,,,,,1,0,10,1,0,9,9,4,,,,,,,,,,,,,,,,,,,,,,,,,,,,,2113.0730251942878,None,2113.0730251942878,None,2113.522513115542,None,2113.522513115542,None,v,7.512987225458346,2113.522513115542,None,t,7.196241997065954,2113.522513115542,None,7.512987225458346,7.196241997065954,7.819963343297812,False,False,False,2121.120735804834,None,2121.120735804834,None,2121.120735804834,None,2121.120735804834,None,2121.120735804834,None,2121.120735804834,None,2121.120735804834,None,2121.120735804834,None,2122.103880480954,None,2122.103880480954,None,2123.1036873647463,None,2123.1036873647463,None,c,,,,,,,,,,,,,,,,,,,,,,,,,,,,,,,,,,,,,,,,,,,,,,,77_78Exp,001,2021_May_27_1515,ComputerHuman,2020.1.3,59.98002778389478,
Computer.xlsx,c,,,,,,,,,1,0,10,1,,,,,,,,,,,,,,,,,,,,,,,,,,,,,,,,,,,,,,,,,,,,,,,,,,,,,,,,,,,,,,,,,,,,,,,,,,,,,,,c,2124.103948488657,None,2124.103948488657,None,a,1,8.6831351165456,2124.103948488657,None,l,0,3.238448795655131,2124.103948488657,None,c,c,2132.8855013354514,None,2132.8855013354514,None,2134.8679146079885,None,None,None,None,None,None,None,None,,,,,,,,,,,,,,,,,,77_78Exp,001,2021_May_27_1515,ComputerHuman,2020.1.3,59.98002778389478,
Human.xlsx,h,Sychronize.jpg,Number7.jpg,7,Human,,,,,1,1,11,4,0,0,0,3,,,,,,,,,,,,,,,,,,,,,,,,,2139.8866468802735,None,2139.8866468802735,None,2142.950148750806,None,2142.950148750806,None,2143.4001460882428,None,2143.4001460882428,None,v,6.006390799200744,2143.4001460882428,None,t,6.477253669367201,2143.4001460882428,None,6.006390799200744,6.477253669367201,7.445969837187778,False,False,False,2149.9648631152522,None,2149.9648631152522,None,2149.9648631152522,None,2149.9648631152522,None,2149.9648631152522,None,2149.9648631152522,None,2149.9648631152522,None,2149.9648631152522,None,2150.966284219583,None,2150.966284219583,None,2151.94775500803,None,2151.94775500803,None,h,,,,,,,,,,,,,,,,,,,,,,,,,,,,,,,,,,,,,,,,,,,,,,,77_78Exp,001,2021_May_27_1515,ComputerHuman,2020.1.3,59.98002778389478,
Human.xlsx,h,Sychronize.jpg,Number10.jpg,10,Human,,,,,1,1,11,4,0,1,1,9,,,,,,,,,,,,,,,,,,,,,,,,,,,,,2152.999192568939,None,2152.999192568939,None,2153.448371568418,None,2153.448371568418,None,v,9.025700495367346,2153.448371568418,None,t,9.513197343592765,2153.448371568418,None,9.025700495367346,9.513197343592765,9.85491324124876,False,False,False,2163.030317640878,None,2163.030317640878,None,2163.030317640878,None,2163.030317640878,None,2163.030317640878,None,2163.030317640878,None,2163.030317640878,None,2163.030317640878,None,2164.031159396578,None,2164.031159396578,None,2165.028514474412,None,2165.028514474412,None,h,,,,,,,,,,,,,,,,,,,,,,,,,,,,,,,,,,,,,,,,,,,,,,,77_78Exp,001,2021_May_27_1515,ComputerHuman,2020.1.3,59.98002778389478,
Human.xlsx,h,Sychronize.jpg,Number9.jpg,9,Human,,,,,1,1,11,4,0,2,2,7,,,,,,,,,,,,,,,,,,,,,,,,,,,,,2166.0784459213646,None,2166.0784459213646,None,2166.528561309904,None,2166.528561309904,None,v,7.869114045704919,2166.528561309904,None,t,8.51209318081601,2166.528561309904,None,7.869114045704919,8.51209318081601,9.41426931754723,False,False,False,2175.1264006538986,None,2175.1264006538986,None,2175.1264006538986,None,2175.1264006538986,None,2175.1264006538986,None,2175.1264006538986,None,2175.1264006538986,None,2175.1264006538986,None,2176.1111146398107,None,2176.1111146398107,None,2177.1093897463616,None,2177.1093897463616,None,h,,,,,,,,,,,,,,,,,,,,,,,,,,,,,,,,,,,,,,,,,,,,,,,77_78Exp,001,2021_May_27_1515,ComputerHuman,2020.1.3,59.98002778389478,
Human.xlsx,h,Sychronize.jpg,Number10.jpg,10,Human,,,,,1,1,11,4,0,3,3,8,,,,,,,,,,,,,,,,,,,,,,,,,,,,,2178.1591620809595,None,2178.1591620809595,None,2178.6095087598405,None,2178.6095087598405,None,v,8.135649701311195,2178.6095087598405,None,t,9.119174835610465,2178.6095087598405,None,8.135649701311195,9.119174835610465,10.01731604643869,False,False,False,2187.8238613361464,None,2187.8238613361464,None,2187.8238613361464,None,2187.8238613361464,None,2187.8238613361464,None,2187.8238613361464,None,2187.8238613361464,None,2187.8238613361464,None,2188.792348748626,None,2188.792348748626,None,2189.8068584483844,None,2189.8068584483844,None,h,,,,,,,,,,,,,,,,,,,,,,,,,,,,,,,,,,,,,,,,,,,,,,,77_78Exp,001,2021_May_27_1515,ComputerHuman,2020.1.3,59.98002778389478,
Human.xlsx,h,Sychronize.jpg,Number9.jpg,9,Human,,,,,1,1,11,4,0,4,4,6,,,,,,,,,,,,,,,,,,,,,,,,,,,,,2190.8578757730247,None,2190.8578757730247,None,2191.306634536235,None,2191.306634536235,None,v,7.670190235505288,2191.306634536235,None,t,7.805233320948901,2191.306634536235,None,7.670190235505288,7.805233320948901,8.695806056736304,True,False,False,2199.2048847494007,None,2199.2048847494007,None,2199.2048847494007,None,2199.2048847494007,None,2199.2048847494007,None,2199.2048847494007,None,2199.2048847494007,None,2199.2048847494007,None,2200.1909720417752,None,2200.1909720417752,None,2201.1711603076255,None,2201.1711603076255,None,h,,,,,,,,,,,,,,,,,,,,,,,,,,,,,,,,,,,,,,,,,,,,,,,77_78Exp,001,2021_May_27_1515,ComputerHuman,2020.1.3,59.98002778389478,
Human.xlsx,h,Sychronize.jpg,Number6.jpg,6,Human,,,,,1,1,11,4,0,5,5,1,,,,,,,,,,,,,,,,,,,,,,,,,,,,,2202.2384827995047,None,2202.2384827995047,None,2202.6713665762654,None,2202.6713665762654,None,v,5.9211373710641055,2202.6713665762654,None,t,7.8442010923572525,2202.6713665762654,None,5.9211373710641055,7.8442010923572525,6.235512576494028,False,False,False,2210.6025459902085,None,2210.6025459902085,None,2210.6025459902085,None,2210.6025459902085,None,2210.6025459902085,None,2210.6025459902085,None,2210.6025459902085,None,2210.6025459902085,None,2211.588302867807,None,2211.588302867807,None,2212.585541498491,None,2212.585541498491,None,h,,,,,,,,,,,,,,,,,,,,,,,,,,,,,,,,,,,,,,,,,,,,,,,77_78Exp,001,2021_May_27_1515,ComputerHuman,2020.1.3,59.98002778389478,
Human.xlsx,h,Sychronize.jpg,Number8.jpg,8,Human,,,,,1,1,11,4,0,6,6,5,,,,,,,,,,,,,,,,,,,,,,,,,,,,,2213.6191799682674,None,2213.6191799682674,None,2214.0857737512088,None,2214.0857737512088,None,v,7.7224814213841455,2214.0857737512088,None,t,6.669232995027414,2214.0857737512088,None,7.7224814213841455,6.669232995027414,7.628997262451457,False,False,False,2221.9002772917775,None,2221.9002772917775,None,2221.9002772917775,None,2221.9002772917775,None,2221.9002772917775,None,2221.9002772917775,None,2221.9002772917775,None,2221.9002772917775,None,2222.886182374841,None,2222.886182374841,None,2223.8831961310025,None,2223.8831961310025,None,h,,,,,,,,,,,,,,,,,,,,,,,,,,,,,,,,,,,,,,,,,,,,,,,77_78Exp,001,2021_May_27_1515,ComputerHuman,2020.1.3,59.98002778389478,
Human.xlsx,h,Sychronize.jpg,Number7.jpg,7,Human,,,,,1,1,11,4,0,7,7,2,,,,,,,,,,,,,,,,,,,,,,,,,,,,,2224.9502404970444,None,2224.9502404970444,None,2225.383382831391,None,2225.383382831391,None,v,5.700308344352379,2225.383382831391,None,t,6.215237318006984,2225.383382831391,None,5.700308344352379,6.215237318006984,6.481856459580634,False,False,False,2231.6651387389174,None,2231.6651387389174,None,2231.6651387389174,None,2231.6651387389174,None,2231.6651387389174,None,2231.6651387389174,None,2231.6651387389174,None,2231.6651387389174,None,2232.667894013204,None,2232.667894013204,None,2233.6479173924563,None,2233.6479173924563,None,h,,,,,,,,,,,,,,,,,,,,,,,,,,,,,,,,,,,,,,,,,,,,,,,77_78Exp,001,2021_May_27_1515,ComputerHuman,2020.1.3,59.98002778389478,
Human.xlsx,h,Sychronize.jpg,Number6.jpg,6,Human,,,,,1,1,11,4,0,8,8,0,,,,,,,,,,,,,,,,,,,,,,,,,,,,,2234.7146967850967,None,2234.7146967850967,None,2235.1478047948003,None,2235.1478047948003,None,v,4.811638555744139,2235.1478047948003,None,t,4.927274745339673,2235.1478047948003,None,4.811638555744139,4.927274745339673,5.624579726910839,True,False,False,2240.1630776564525,None,2240.1630776564525,None,2240.1630776564525,None,2240.1630776564525,None,2240.1630776564525,None,2240.1630776564525,None,2240.1630776564525,None,2240.1630776564525,None,2241.1482423537855,None,2241.1482423537855,None,2242.1462139920077,None,2242.1462139920077,None,h,,,,,,,,,,,,,,,,,,,,,,,,,,,,,,,,,,,,,,,,,,,,,,,77_78Exp,001,2021_May_27_1515,ComputerHuman,2020.1.3,59.98002778389478,
Human.xlsx,h,Sychronize.jpg,Number8.jpg,8,Human,,,,,1,1,11,4,0,9,9,4,,,,,,,,,,,,,,,,,,,,,,,,,,,,,2243.2131319663786,None,2243.2131319663786,None,2243.646390427082,None,2243.646390427082,None,v,7.22063558971422,2243.646390427082,None,t,7.340214942832972,2243.646390427082,None,7.22063558971422,7.340214942832972,8.248977629810428,True,False,False,2251.0777058564236,None,2251.0777058564236,None,2251.0777058564236,None,2251.0777058564236,None,2251.0777058564236,None,2251.0777058564236,None,2251.0777058564236,None,2251.0777058564236,None,2252.046134564145,None,2252.046134564145,None,2253.043983980977,None,2253.043983980977,None,h,,,,,,,,,,,,,,,,,,,,,,,,,,,,,,,,,,,,,,,,,,,,,,,77_78Exp,001,2021_May_27_1515,ComputerHuman,2020.1.3,59.98002778389478,
Human.xlsx,h,,,,,,,,,1,1,11,4,,,,,,,,,,,,,,,,,,,,,,,,,,,,,,,,,,,,,,,,,,,,,,,,,,,,,,,,,,,,,,,,,,,,,,,,,,,,,,,h,2254.0446197888305,None,2254.0446197888305,None,q,0,3.6222624494184856,2254.0446197888305,None,o,1,3.75339156332484,2254.0446197888305,None,h,h,2257.8935057136077,None,2257.8935057136077,None,2259.8925221682657,None,None,None,None,None,None,None,None,,,,,,,,,,,,,,,,,,77_78Exp,001,2021_May_27_1515,ComputerHuman,2020.1.3,59.98002778389478,
