Condition,CorrectTuringReply,Sychronize,NumberImage,Number,Partner,trials.thisRepN,trials.thisTrialN,trials.thisN,trials.thisIndex,Block.thisRepN,Block.thisTrialN,Block.thisN,Block.thisIndex,trials_loop.thisRepN,trials_loop.thisTrialN,trials_loop.thisN,trials_loop.thisIndex,key_resp_Istr.keys,key_resp_Istr.rt,key_resp_Istr.started,key_resp_Istr.stopped,key_respPrLeft.keys,key_respPrLeft.rt,key_respPrRight.keys,key_respPrRight.rt,RTPrLeft,RTPrRight,CompPr,SychronizedRTsPr,SychronizedRTsLeftCPr,SychronizedRTsRightCPr,CreditLeftPr.started,CreditLeftPr.stopped,CreditRightPr.started,CreditRightPr.stopped,text_StartExp.started,text_StartExp.stopped,key_startExp.keys,key_startExp.rt,key_startExp.started,key_startExp.stopped,SychroLeft.started,SychroLeft.stopped,SychroRight.started,SychroRight.stopped,NumberLeft.started,NumberLeft.stopped,NumberRight.started,NumberRight.stopped,CrossLeft.started,CrossLeft.stopped,CrossRight.started,CrossRight.stopped,key_respLeft.keys,key_respLeft.rt,key_respLeft.started,key_respLeft.stopped,key_respRight.keys,key_respRight.rt,key_respRight.started,key_respRight.stopped,RTLeft,RTRight,Comp,SychronizedRTs,SychronizedRTsLeftC,SychronizedRTsRightC,FeedbackLeftLeft.started,FeedbackLeftLeft.stopped,FeedbackLeftRight.started,FeedbackLeftRight.stopped,FeedbackRightLeft.started,FeedbackRightLeft.stopped,FeedbackRightRight.started,FeedbackRightRight.stopped,textLeftLeft.started,textLeftLeft.stopped,textLeftRight.started,textLeftRight.stopped,textRightLeft.started,textRightLeft.stopped,textRightRight.started,textRightRight.stopped,CreditLeft.started,CreditLeft.stopped,CreditRight.started,CreditRight.stopped,BlankLeft.started,BlankLeft.stopped,BlankRight.started,BlankRight.stopped,CorrectTuringReply,TuringtextLeft.started,TuringtextLeft.stopped,TuringtextRight.started,TuringtextRight.stopped,keyTuringLeft.keys,keyTuringLeft.corr,keyTuringLeft.rt,keyTuringLeft.started,keyTuringLeft.stopped,keyTuringRight.keys,keyTuringRight.corr,keyTuringRight.rt,keyTuringRight.started,keyTuringRight.stopped,RespTuringLeft,RespTuringRight,ScoreLeft.started,ScoreLeft.stopped,ScoreRight.started,ScoreRight.stopped,BlockText.started,BlockText.stopped,text_Pause.started,text_Pause.stopped,text_LongPause.started,text_LongPause.stopped,key_respPause.keys,key_respPause.started,key_respPause.stopped,key_respPause.rt,QuestImageLeft.started,QuestImageLeft.stopped,QuestImageRight.started,QuestImageRight.stopped,respQuestLeft.keys,respQuestLeft.rt,respQuestLeft.started,respQuestLeft.stopped,respQuestRight.keys,respQuestRight.rt,respQuestRight.started,respQuestRight.stopped,RespInclusionLeft,RespInclusionRight,EndText.started,EndText.stopped,participant,session,date,expName,psychopyVersion,frameRate,
,,,,,,,,,,,,,,,,,,"['t', 'v']","[55.987416765627245, 95.21271238037309]",17.979417155695614,None,,,,,,,,,,,,,,,,,,,,,,,,,,,,,,,,,,,,,,,,,,,,,,,,,,,,,,,,,,,,,,,,,,,,,,,,,,,,,,,,,,,,,,,,,,,,,,,,,,,,,,,,,,,,,,,,,,,,,,79_80Exp,001,2021_May_28_1056,ComputerHuman,2020.1.3,60.00103934495221,
,,,,,,,,,,,,,,,,,,,,,,v,7.899288895047903,t,5.843149199236905,7.899288895047903,5.843149199236905,10,False,False,False,169.0101828381454,None,169.0101828381454,None,170.009922044061,None,"['space', 'space']","[139.0374911544934, 153.4004902158913]",170.99307147425964,None,,,,,,,,,,,,,,,,,,,,,,,,,,,,,,,,,,,,,,,,,,,,,,,,,,,,,,,,,,,,,,,,,,,,,,,,,,,,,,,,,,,,,,,,,,,,,,,,,,79_80Exp,001,2021_May_28_1056,ComputerHuman,2020.1.3,60.00103934495221,
Human.xlsx,h,Sychronize.jpg,Number9.jpg,9,Human,,,,,0,0,0,2,0,0,0,7,,,,,,,,,,,,,,,,,,,,,,,,,324.4933236072858,None,324.4933236072858,None,327.5228138687279,None,327.5228138687279,None,327.95595178292695,None,327.95595178292695,None,v,7.792862774836294,327.95595178292695,None,t,4.8682175093235855,327.95595178292695,None,7.792862774836294,4.8682175093235855,9.360581522869754,False,False,False,335.82121458830136,None,335.82121458830136,None,335.82121458830136,None,335.82121458830136,None,335.82121458830136,None,335.82121458830136,None,335.82121458830136,None,335.82121458830136,None,336.84096244244404,None,336.84096244244404,None,337.836785887736,None,337.836785887736,None,h,,,,,,,,,,,,,,,,,,,,,,,,,,,,,,,,,,,,,,,,,,,,,,,79_80Exp,001,2021_May_28_1056,ComputerHuman,2020.1.3,60.00103934495221,
Human.xlsx,h,Sychronize.jpg,Number6.jpg,6,Human,,,,,0,0,0,2,0,1,1,0,,,,,,,,,,,,,,,,,,,,,,,,,,,,,338.87020794879834,None,338.87020794879834,None,339.33703930388185,None,339.33703930388185,None,v,4.999148008502061,339.33703930388185,None,t,3.9144303493742427,339.33703930388185,None,4.999148008502061,3.9144303493742427,5.648096467897373,False,False,False,344.40262789335486,None,344.40262789335486,None,344.40262789335486,None,344.40262789335486,None,344.40262789335486,None,344.40262789335486,None,344.40262789335486,None,344.40262789335486,None,345.38732476594294,None,345.38732476594294,None,346.3847549979117,None,346.3847549979117,None,h,,,,,,,,,,,,,,,,,,,,,,,,,,,,,,,,,,,,,,,,,,,,,,,79_80Exp,001,2021_May_28_1056,ComputerHuman,2020.1.3,60.00103934495221,
Human.xlsx,h,Sychronize.jpg,Number6.jpg,6,Human,,,,,0,0,0,2,0,2,2,1,,,,,,,,,,,,,,,,,,,,,,,,,,,,,347.43437484161484,None,347.43437484161484,None,347.8846116092824,None,347.8846116092824,None,v,5.362997457498068,347.8846116092824,None,t,4.150259735510417,347.8846116092824,None,5.362997457498068,4.150259735510417,6.358686381500704,False,False,False,353.3178091885487,None,353.3178091885487,None,353.3178091885487,None,353.3178091885487,None,353.3178091885487,None,353.3178091885487,None,353.3178091885487,None,353.3178091885487,None,354.31840968858035,None,354.31840968858035,None,355.3159265311307,None,355.3159265311307,None,h,,,,,,,,,,,,,,,,,,,,,,,,,,,,,,,,,,,,,,,,,,,,,,,79_80Exp,001,2021_May_28_1056,ComputerHuman,2020.1.3,60.00103934495221,
Human.xlsx,h,Sychronize.jpg,Number8.jpg,8,Human,,,,,0,0,0,2,0,3,3,4,,,,,,,,,,,,,,,,,,,,,,,,,,,,,356.3662498452237,None,356.3662498452237,None,356.8156314135937,None,356.8156314135937,None,v,7.003202346056014,356.8156314135937,None,t,4.862218924604576,356.8156314135937,None,7.003202346056014,4.862218924604576,7.812797058026478,False,False,False,363.8980692897484,None,363.8980692897484,None,363.8980692897484,None,363.8980692897484,None,363.8980692897484,None,363.8980692897484,None,363.8980692897484,None,363.8980692897484,None,364.8825207656888,None,364.8825207656888,None,365.8801652786518,None,365.8801652786518,None,h,,,,,,,,,,,,,,,,,,,,,,,,,,,,,,,,,,,,,,,,,,,,,,,79_80Exp,001,2021_May_28_1056,ComputerHuman,2020.1.3,60.00103934495221,
Human.xlsx,h,Sychronize.jpg,Number10.jpg,10,Human,,,,,0,0,0,2,0,4,4,9,,,,,,,,,,,,,,,,,,,,,,,,,,,,,366.94692439409494,None,366.94692439409494,None,367.3970469641066,None,367.3970469641066,None,v,8.980937652571129,367.3970469641066,None,t,5.1883905251872875,367.3970469641066,None,8.980937652571129,5.1883905251872875,9.572327705142222,False,False,False,376.4609819330327,None,376.4609819330327,None,376.4609819330327,None,376.4609819330327,None,376.4609819330327,None,376.4609819330327,None,376.4609819330327,None,376.4609819330327,None,377.4293905630394,None,377.4293905630394,None,378.4271386879203,None,378.4271386879203,None,h,,,,,,,,,,,,,,,,,,,,,,,,,,,,,,,,,,,,,,,,,,,,,,,79_80Exp,001,2021_May_28_1056,ComputerHuman,2020.1.3,60.00103934495221,
Human.xlsx,h,Sychronize.jpg,Number8.jpg,8,Human,,,,,0,0,0,2,0,5,5,5,,,,,,,,,,,,,,,,,,,,,,,,,,,,,379.47725381583757,None,379.47725381583757,None,379.92717814385185,None,379.92717814385185,None,v,6.622308576179876,379.92717814385185,None,t,6.269114794947882,379.92717814385185,None,6.622308576179876,6.269114794947882,7.552984376523796,False,False,False,386.6263641968536,None,386.6263641968536,None,386.6263641968536,None,386.6263641968536,None,386.6263641968536,None,386.6263641968536,None,386.6263641968536,None,386.6263641968536,None,387.62664648319344,None,387.62664648319344,None,388.62463968394184,None,388.62463968394184,None,h,,,,,,,,,,,,,,,,,,,,,,,,,,,,,,,,,,,,,,,,,,,,,,,79_80Exp,001,2021_May_28_1056,ComputerHuman,2020.1.3,60.00103934495221,
Human.xlsx,h,Sychronize.jpg,Number10.jpg,10,Human,,,,,0,0,0,2,0,6,6,8,,,,,,,,,,,,,,,,,,,,,,,,,,,,,389.6745164723703,None,389.6745164723703,None,390.12460568126914,None,390.12460568126914,None,v,8.611901833642378,390.12460568126914,None,t,8.466981800871508,390.12460568126914,None,8.611901833642378,8.466981800871508,9.732508866669189,True,False,False,398.7905823503032,None,398.7905823503032,None,398.7905823503032,None,398.7905823503032,None,398.7905823503032,None,398.7905823503032,None,398.7905823503032,None,398.7905823503032,None,399.8072965886337,None,399.8072965886337,None,400.80515249557163,None,400.80515249557163,None,h,,,,,,,,,,,,,,,,,,,,,,,,,,,,,,,,,,,,,,,,,,,,,,,79_80Exp,001,2021_May_28_1056,ComputerHuman,2020.1.3,60.00103934495221,
Human.xlsx,h,Sychronize.jpg,Number9.jpg,9,Human,,,,,0,0,0,2,0,7,7,6,,,,,,,,,,,,,,,,,,,,,,,,,,,,,401.85491797336374,None,401.85491797336374,None,402.305310319298,None,402.305310319298,None,v,7.182414395063688,402.305310319298,None,t,8.76587170984044,402.305310319298,None,7.182414395063688,8.76587170984044,9.600981389703717,False,False,False,411.1693458206545,None,411.1693458206545,None,411.1693458206545,None,411.1693458206545,None,411.1693458206545,None,411.1693458206545,None,411.1693458206545,None,411.1693458206545,None,412.13834211949563,None,412.13834211949563,None,413.13561003681923,None,413.13561003681923,None,h,,,,,,,,,,,,,,,,,,,,,,,,,,,,,,,,,,,,,,,,,,,,,,,79_80Exp,001,2021_May_28_1056,ComputerHuman,2020.1.3,60.00103934495221,
Human.xlsx,h,Sychronize.jpg,Number7.jpg,7,Human,,,,,0,0,0,2,0,8,8,3,,,,,,,,,,,,,,,,,,,,,,,,,,,,,414.185863100107,None,414.185863100107,None,414.63578229564234,None,414.63578229564234,None,v,6.495152694455328,414.63578229564234,None,t,5.406198494772298,414.63578229564234,None,6.495152694455328,5.406198494772298,7.4527638721311265,False,False,False,421.21697201708355,None,421.21697201708355,None,421.21697201708355,None,421.21697201708355,None,421.21697201708355,None,421.21697201708355,None,421.21697201708355,None,421.21697201708355,None,422.2026738931969,None,422.2026738931969,None,423.1998353115831,None,423.1998353115831,None,h,,,,,,,,,,,,,,,,,,,,,,,,,,,,,,,,,,,,,,,,,,,,,,,79_80Exp,001,2021_May_28_1056,ComputerHuman,2020.1.3,60.00103934495221,
Human.xlsx,h,Sychronize.jpg,Number7.jpg,7,Human,,,,,0,0,0,2,0,9,9,2,,,,,,,,,,,,,,,,,,,,,,,,,,,,,424.2331755737631,None,424.2331755737631,None,424.7001269005408,None,424.7001269005408,None,v,6.026143885196689,424.7001269005408,None,t,5.785123317428997,424.7001269005408,None,6.026143885196689,5.785123317428997,7.367278917929102,True,False,False,430.81473419212546,None,430.81473419212546,None,430.81473419212546,None,430.81473419212546,None,430.81473419212546,None,430.81473419212546,None,430.81473419212546,None,430.81473419212546,None,431.7826594067752,None,431.7826594067752,None,432.7808723417769,None,432.7808723417769,None,h,,,,,,,,,,,,,,,,,,,,,,,,,,,,,,,,,,,,,,,,,,,,,,,79_80Exp,001,2021_May_28_1056,ComputerHuman,2020.1.3,60.00103934495221,
Human.xlsx,h,,,,,,,,,0,0,0,2,,,,,,,,,,,,,,,,,,,,,,,,,,,,,,,,,,,,,,,,,,,,,,,,,,,,,,,,,,,,,,,,,,,,,,,,,,,,,,,h,433.79859318753245,None,433.79859318753245,None,q,1,18.15421623518546,433.79859318753245,None,l,0,17.657321705702543,433.79859318753245,None,h,c,452.0596907296525,None,452.0596907296525,None,454.0425155305603,None,None,None,None,None,None,None,None,,,,,,,,,,,,,,,,,,79_80Exp,001,2021_May_28_1056,ComputerHuman,2020.1.3,60.00103934495221,
Computer.xlsx,c,Sychronize.jpg,Number6.jpg,6,Computer,,,,,0,1,1,3,0,0,0,1,,,,,,,,,,,,,,,,,,,,,,,,,459.04392150900014,None,459.04392150900014,None,462.1073631183916,None,462.1073631183916,None,462.5408718541913,None,462.5408718541913,None,v,5.410856219377592,462.5408718541913,None,t,4.910218829653559,462.5408718541913,None,5.410856219377592,4.910218829653559,6.229100331432943,False,False,False,468.0234769208463,None,468.0234769208463,None,468.0234769208463,None,468.0234769208463,None,468.0234769208463,None,468.0234769208463,None,468.0234769208463,None,468.0234769208463,None,469.05558602964913,None,469.05558602964913,None,470.0386844558385,None,470.0386844558385,None,c,,,,,,,,,,,,,,,,,,,,,,,,,,,,,,,,,,,,,,,,,,,,,,,79_80Exp,001,2021_May_28_1056,ComputerHuman,2020.1.3,60.00103934495221,
Computer.xlsx,c,Sychronize.jpg,Number6.jpg,6,Computer,,,,,0,1,1,3,0,1,1,0,,,,,,,,,,,,,,,,,,,,,,,,,,,,,471.0719519009739,None,471.0719519009739,None,471.53888141471646,None,471.53888141471646,None,v,5.528177950742247,471.53888141471646,None,t,4.451247545231581,471.53888141471646,None,5.528177950742247,4.451247545231581,6.160988221560753,False,False,False,477.1536673807228,None,477.1536673807228,None,477.1536673807228,None,477.1536673807228,None,477.1536673807228,None,477.1536673807228,None,477.1536673807228,None,477.1536673807228,None,478.1367475224562,None,478.1367475224562,None,479.1199149163309,None,479.1199149163309,None,c,,,,,,,,,,,,,,,,,,,,,,,,,,,,,,,,,,,,,,,,,,,,,,,79_80Exp,001,2021_May_28_1056,ComputerHuman,2020.1.3,60.00103934495221,
Computer.xlsx,c,Sychronize.jpg,Number8.jpg,8,Computer,,,,,0,1,1,3,0,2,2,4,,,,,,,,,,,,,,,,,,,,,,,,,,,,,480.17008265215725,None,480.17008265215725,None,480.6201105920892,None,480.6201105920892,None,v,7.370216609856698,480.6201105920892,None,t,7.0930184814149015,480.6201105920892,None,7.370216609856698,7.0930184814149015,7.810517054757963,False,False,False,488.0844276740696,None,488.0844276740696,None,488.0844276740696,None,488.0844276740696,None,488.0844276740696,None,488.0844276740696,None,488.0844276740696,None,488.0844276740696,None,489.08416399296596,None,489.08416399296596,None,490.0673246504622,None,490.0673246504622,None,c,,,,,,,,,,,,,,,,,,,,,,,,,,,,,,,,,,,,,,,,,,,,,,,79_80Exp,001,2021_May_28_1056,ComputerHuman,2020.1.3,60.00103934495221,
Computer.xlsx,c,Sychronize.jpg,Number9.jpg,9,Computer,,,,,0,1,1,3,0,3,3,7,,,,,,,,,,,,,,,,,,,,,,,,,,,,,491.1017597345482,None,491.1017597345482,None,491.5675421392558,None,491.5675421392558,None,v,8.769928292854047,491.5675421392558,None,t,7.393040101982251,491.5675421392558,None,8.769928292854047,7.393040101982251,8.445523304453152,False,False,False,500.43149712484944,None,500.43149712484944,None,500.43149712484944,None,500.43149712484944,None,500.43149712484944,None,500.43149712484944,None,500.43149712484944,None,500.43149712484944,None,501.4310913382361,None,501.4310913382361,None,502.4143633063685,None,502.4143633063685,None,c,,,,,,,,,,,,,,,,,,,,,,,,,,,,,,,,,,,,,,,,,,,,,,,79_80Exp,001,2021_May_28_1056,ComputerHuman,2020.1.3,60.00103934495221,
Computer.xlsx,c,Sychronize.jpg,Number8.jpg,8,Computer,,,,,0,1,1,3,0,4,4,5,,,,,,,,,,,,,,,,,,,,,,,,,,,,,503.4645336084342,None,503.4645336084342,None,503.91457181332396,None,503.91457181332396,None,v,7.2222793210501095,503.91457181332396,None,t,7.201062294821213,503.91457181332396,None,7.2222793210501095,7.201062294821213,7.685616428316886,False,False,False,511.2133122388451,None,511.2133122388451,None,511.2133122388451,None,511.2133122388451,None,511.2133122388451,None,511.2133122388451,None,511.2133122388451,None,511.2133122388451,None,512.2120281567792,None,512.2120281567792,None,513.1950435009666,None,513.1950435009666,None,c,,,,,,,,,,,,,,,,,,,,,,,,,,,,,,,,,,,,,,,,,,,,,,,79_80Exp,001,2021_May_28_1056,ComputerHuman,2020.1.3,60.00103934495221,
Computer.xlsx,c,Sychronize.jpg,Number7.jpg,7,Computer,,,,,0,1,1,3,0,5,5,3,,,,,,,,,,,,,,,,,,,,,,,,,,,,,514.2450251844324,None,514.2450251844324,None,514.6949655514433,None,514.6949655514433,None,v,6.91704598893557,514.6949655514433,None,t,7.488065061868838,514.6949655514433,None,6.91704598893557,7.488065061868838,7.241095367010842,False,False,True,522.2763753279172,None,522.2763753279172,None,522.2763753279172,None,522.2763753279172,None,522.2763753279172,None,522.2763753279172,None,522.2763753279172,None,522.2763753279172,None,523.2759538230872,None,523.2759538230872,None,524.25917767423,None,524.25917767423,None,c,,,,,,,,,,,,,,,,,,,,,,,,,,,,,,,,,,,,,,,,,,,,,,,79_80Exp,001,2021_May_28_1056,ComputerHuman,2020.1.3,60.00103934495221,
Computer.xlsx,c,Sychronize.jpg,Number10.jpg,10,Computer,,,,,0,1,1,3,0,6,6,8,,,,,,,,,,,,,,,,,,,,,,,,,,,,,525.3091866239901,None,525.3091866239901,None,525.7423364070465,None,525.7423364070465,None,v,10.360699710849076,525.7423364070465,None,t,9.26805012635532,525.7423364070465,None,10.360699710849076,9.26805012635532,9.617797057705465,False,False,False,536.1897137424047,None,536.1897137424047,None,536.1897137424047,None,536.1897137424047,None,536.1897137424047,None,536.1897137424047,None,536.1897137424047,None,536.1897137424047,None,537.1894057936705,None,537.1894057936705,None,538.1725160887175,None,538.1725160887175,None,c,,,,,,,,,,,,,,,,,,,,,,,,,,,,,,,,,,,,,,,,,,,,,,,79_80Exp,001,2021_May_28_1056,ComputerHuman,2020.1.3,60.00103934495221,
Computer.xlsx,c,Sychronize.jpg,Number9.jpg,9,Computer,,,,,0,1,1,3,0,7,7,6,,,,,,,,,,,,,,,,,,,,,,,,,,,,,539.2224579954719,None,539.2224579954719,None,539.6723390181952,None,539.6723390181952,None,v,8.409850895072395,539.6723390181952,None,t,7.4290996156416895,539.6723390181952,None,8.409850895072395,7.4290996156416895,9.294451050573239,False,False,False,548.1388688401431,None,548.1388688401431,None,548.1388688401431,None,548.1388688401431,None,548.1388688401431,None,548.1388688401431,None,548.1388688401431,None,548.1388688401431,None,549.153240422634,None,549.153240422634,None,550.1530489170149,None,550.1530489170149,None,c,,,,,,,,,,,,,,,,,,,,,,,,,,,,,,,,,,,,,,,,,,,,,,,79_80Exp,001,2021_May_28_1056,ComputerHuman,2020.1.3,60.00103934495221,
Computer.xlsx,c,Sychronize.jpg,Number10.jpg,10,Computer,,,,,0,1,1,3,0,8,8,9,,,,,,,,,,,,,,,,,,,,,,,,,,,,,551.2033869869846,None,551.2033869869846,None,551.653053407934,None,551.653053407934,None,v,9.93223074855291,551.653053407934,None,t,8.535906822411789,551.653053407934,None,9.93223074855291,8.535906822411789,9.639086321963664,False,True,False,561.6677130508032,None,561.6677130508032,None,561.6677130508032,None,561.6677130508032,None,561.6677130508032,None,561.6677130508032,None,561.6677130508032,None,561.6677130508032,None,562.6666105301787,None,562.6666105301787,None,563.6498436839394,None,563.6498436839394,None,c,,,,,,,,,,,,,,,,,,,,,,,,,,,,,,,,,,,,,,,,,,,,,,,79_80Exp,001,2021_May_28_1056,ComputerHuman,2020.1.3,60.00103934495221,
Computer.xlsx,c,Sychronize.jpg,Number7.jpg,7,Computer,,,,,0,1,1,3,0,9,9,2,,,,,,,,,,,,,,,,,,,,,,,,,,,,,564.7165325485772,None,564.7165325485772,None,565.1495947587126,None,565.1495947587126,None,v,6.9589568493252045,565.1495947587126,None,t,6.2181460716326455,565.1495947587126,None,6.9589568493252045,6.2181460716326455,7.378977804622791,False,False,False,572.1826357332162,None,572.1826357332162,None,572.1826357332162,None,572.1826357332162,None,572.1826357332162,None,572.1826357332162,None,572.1826357332162,None,572.1826357332162,None,573.1975523208108,None,573.1975523208108,None,574.1804258802682,None,574.1804258802682,None,c,,,,,,,,,,,,,,,,,,,,,,,,,,,,,,,,,,,,,,,,,,,,,,,79_80Exp,001,2021_May_28_1056,ComputerHuman,2020.1.3,60.00103934495221,
Computer.xlsx,c,,,,,,,,,0,1,1,3,,,,,,,,,,,,,,,,,,,,,,,,,,,,,,,,,,,,,,,,,,,,,,,,,,,,,,,,,,,,,,,,,,,,,,,,,,,,,,,c,575.180904163146,None,575.180904163146,None,a,1,5.995008664265924,575.180904163146,None,o,0,3.3343210147424998,575.180904163146,None,c,h,581.2629346487876,None,581.2629346487876,None,583.2618388645418,None,None,None,None,None,None,None,None,,,,,,,,,,,,,,,,,,79_80Exp,001,2021_May_28_1056,ComputerHuman,2020.1.3,60.00103934495221,
Computer.xlsx,c,Sychronize.jpg,Number10.jpg,10,Computer,,,,,0,2,2,1,0,0,0,9,,,,,,,,,,,,,,,,,,,,,,,,,588.2641706138637,None,588.2641706138637,None,591.3271272039987,None,591.3271272039987,None,591.7767881716892,None,591.7767881716892,None,v,10.353715048620415,591.7767881716892,None,t,8.556965704134427,591.7767881716892,None,10.353715048620415,8.556965704134427,10.13740904932302,False,True,False,602.2083613213823,None,602.2083613213823,None,602.2083613213823,None,602.2083613213823,None,602.2083613213823,None,602.2083613213823,None,602.2083613213823,None,602.2083613213823,None,603.2403209467371,None,603.2403209467371,None,604.2235252303041,None,604.2235252303041,None,c,,,,,,,,,,,,,,,,,,,,,,,,,,,,,,,,,,,,,,,,,,,,,,,79_80Exp,001,2021_May_28_1056,ComputerHuman,2020.1.3,60.00103934495221,
Computer.xlsx,c,Sychronize.jpg,Number7.jpg,7,Computer,,,,,0,2,2,1,0,1,1,3,,,,,,,,,,,,,,,,,,,,,,,,,,,,,605.2736615296968,None,605.2736615296968,None,605.7238027049447,None,605.7238027049447,None,v,7.173934577574528,605.7238027049447,None,t,6.257121474869109,605.7238027049447,None,7.173934577574528,6.257121474869109,7.326181667577952,False,True,False,612.9730127843633,None,612.9730127843633,None,612.9730127843633,None,612.9730127843633,None,612.9730127843633,None,612.9730127843633,None,612.9730127843633,None,612.9730127843633,None,613.9710922749135,None,613.9710922749135,None,614.9542741038853,None,614.9542741038853,None,c,,,,,,,,,,,,,,,,,,,,,,,,,,,,,,,,,,,,,,,,,,,,,,,79_80Exp,001,2021_May_28_1056,ComputerHuman,2020.1.3,60.00103934495221,
Computer.xlsx,c,Sychronize.jpg,Number9.jpg,9,Computer,,,,,0,2,2,1,0,2,2,7,,,,,,,,,,,,,,,,,,,,,,,,,,,,,616.0208163720944,None,616.0208163720944,None,616.4711015775316,None,616.4711015775316,None,v,9.301744208799391,616.4711015775316,None,t,8.204990565862317,616.4711015775316,None,9.301744208799391,8.204990565862317,8.893490862255549,False,False,False,625.8684526410133,None,625.8684526410133,None,625.8684526410133,None,625.8684526410133,None,625.8684526410133,None,625.8684526410133,None,625.8684526410133,None,625.8684526410133,None,626.8514448890454,None,626.8514448890454,None,627.8346247933376,None,627.8346247933376,None,c,,,,,,,,,,,,,,,,,,,,,,,,,,,,,,,,,,,,,,,,,,,,,,,79_80Exp,001,2021_May_28_1056,ComputerHuman,2020.1.3,60.00103934495221,
Computer.xlsx,c,Sychronize.jpg,Number6.jpg,6,Computer,,,,,0,2,2,1,0,3,3,1,,,,,,,,,,,,,,,,,,,,,,,,,,,,,628.885142500069,None,628.885142500069,None,629.3345016138438,None,629.3345016138438,None,v,5.921685108304928,629.3345016138438,None,t,5.785140639545489,629.3345016138438,None,5.921685108304928,5.785140639545489,5.837152179238485,False,True,True,635.349466318428,None,635.349466318428,None,635.349466318428,None,635.349466318428,None,635.349466318428,None,635.349466318428,None,635.349466318428,None,635.349466318428,None,636.3492292620587,None,636.3492292620587,None,637.3323292921478,None,637.3323292921478,None,c,,,,,,,,,,,,,,,,,,,,,,,,,,,,,,,,,,,,,,,,,,,,,,,79_80Exp,001,2021_May_28_1056,ComputerHuman,2020.1.3,60.00103934495221,
Computer.xlsx,c,Sychronize.jpg,Number6.jpg,6,Computer,,,,,0,2,2,1,0,4,4,0,,,,,,,,,,,,,,,,,,,,,,,,,,,,,638.3828691326945,None,638.3828691326945,None,638.8324774924762,None,638.8324774924762,None,v,5.975063851245295,638.8324774924762,None,t,5.550197889139781,638.8324774924762,None,5.975063851245295,5.550197889139781,6.0224004497832295,False,True,False,644.8816941158053,None,644.8816941158053,None,644.8816941158053,None,644.8816941158053,None,644.8816941158053,None,644.8816941158053,None,644.8816941158053,None,644.8816941158053,None,645.8801691280111,None,645.8801691280111,None,646.8634298688459,None,646.8634298688459,None,c,,,,,,,,,,,,,,,,,,,,,,,,,,,,,,,,,,,,,,,,,,,,,,,79_80Exp,001,2021_May_28_1056,ComputerHuman,2020.1.3,60.00103934495221,
Computer.xlsx,c,Sychronize.jpg,Number8.jpg,8,Computer,,,,,0,2,2,1,0,5,5,5,,,,,,,,,,,,,,,,,,,,,,,,,,,,,647.9139478963574,None,647.9139478963574,None,648.3635289898447,None,648.3635289898447,None,v,7.543265193260368,648.3635289898447,None,t,7.582063846754409,648.3635289898447,None,7.543265193260368,7.582063846754409,7.957907226776108,False,False,False,656.0444912141585,None,656.0444912141585,None,656.0444912141585,None,656.0444912141585,None,656.0444912141585,None,656.0444912141585,None,656.0444912141585,None,656.0444912141585,None,657.0442387603524,None,657.0442387603524,None,658.0274144945053,None,658.0274144945053,None,c,,,,,,,,,,,,,,,,,,,,,,,,,,,,,,,,,,,,,,,,,,,,,,,79_80Exp,001,2021_May_28_1056,ComputerHuman,2020.1.3,60.00103934495221,
Computer.xlsx,c,Sychronize.jpg,Number8.jpg,8,Computer,,,,,0,2,2,1,0,6,6,4,,,,,,,,,,,,,,,,,,,,,,,,,,,,,659.0607624554035,None,659.0607624554035,None,659.510962012599,None,659.510962012599,None,v,7.942999972412963,659.510962012599,None,t,7.342049886411814,659.510962012599,None,7.942999972412963,7.342049886411814,8.586973515695178,False,False,False,667.5417155054112,None,667.5417155054112,None,667.5417155054112,None,667.5417155054112,None,667.5417155054112,None,667.5417155054112,None,667.5417155054112,None,667.5417155054112,None,668.5415307361708,None,668.5415307361708,None,669.5246083116646,None,669.5246083116646,None,c,,,,,,,,,,,,,,,,,,,,,,,,,,,,,,,,,,,,,,,,,,,,,,,79_80Exp,001,2021_May_28_1056,ComputerHuman,2020.1.3,60.00103934495221,
Computer.xlsx,c,Sychronize.jpg,Number10.jpg,10,Computer,,,,,0,2,2,1,0,7,7,8,,,,,,,,,,,,,,,,,,,,,,,,,,,,,670.5745319339629,None,670.5745319339629,None,671.0247517002941,None,671.0247517002941,None,v,10.428231264367014,671.0247517002941,None,t,9.16786894984989,671.0247517002941,None,10.428231264367014,9.16786894984989,10.381870138677597,False,True,False,681.5069776050699,None,681.5069776050699,None,681.5069776050699,None,681.5069776050699,None,681.5069776050699,None,681.5069776050699,None,681.5069776050699,None,681.5069776050699,None,682.5214579319573,None,682.5214579319573,None,683.5213312238844,None,683.5213312238844,None,c,,,,,,,,,,,,,,,,,,,,,,,,,,,,,,,,,,,,,,,,,,,,,,,79_80Exp,001,2021_May_28_1056,ComputerHuman,2020.1.3,60.00103934495221,
Computer.xlsx,c,Sychronize.jpg,Number9.jpg,9,Computer,,,,,0,2,2,1,0,8,8,6,,,,,,,,,,,,,,,,,,,,,,,,,,,,,684.5712654319206,None,684.5712654319206,None,685.0211990625527,None,685.0211990625527,None,v,9.226949556072668,685.0211990625527,None,t,8.38597813179058,685.0211990625527,None,9.226949556072668,8.38597813179058,8.540551510039753,False,False,True,694.3354681237773,None,694.3354681237773,None,694.3354681237773,None,694.3354681237773,None,694.3354681237773,None,694.3354681237773,None,694.3354681237773,None,694.3354681237773,None,695.3185107342589,None,695.3185107342589,None,696.3015151719284,None,696.3015151719284,None,c,,,,,,,,,,,,,,,,,,,,,,,,,,,,,,,,,,,,,,,,,,,,,,,79_80Exp,001,2021_May_28_1056,ComputerHuman,2020.1.3,60.00103934495221,
Computer.xlsx,c,Sychronize.jpg,Number7.jpg,7,Computer,,,,,0,2,2,1,0,9,9,2,,,,,,,,,,,,,,,,,,,,,,,,,,,,,697.3683304238594,None,697.3683304238594,None,697.8014147678099,None,697.8014147678099,None,v,7.017911709814825,697.8014147678099,None,t,8.09704843969439,697.8014147678099,None,7.017911709814825,8.09704843969439,7.08486593538546,False,True,False,705.9664794594986,None,705.9664794594986,None,705.9664794594986,None,705.9664794594986,None,705.9664794594986,None,705.9664794594986,None,705.9664794594986,None,705.9664794594986,None,706.9824020129582,None,706.9824020129582,None,707.9655658782536,None,707.9655658782536,None,c,,,,,,,,,,,,,,,,,,,,,,,,,,,,,,,,,,,,,,,,,,,,,,,79_80Exp,001,2021_May_28_1056,ComputerHuman,2020.1.3,60.00103934495221,
Computer.xlsx,c,,,,,,,,,0,2,2,1,,,,,,,,,,,,,,,,,,,,,,,,,,,,,,,,,,,,,,,,,,,,,,,,,,,,,,,,,,,,,,,,,,,,,,,,,,,,,,,c,708.9666799469559,None,708.9666799469559,None,a,1,5.7080585051271555,708.9666799469559,None,l,0,5.087330732449573,708.9666799469559,None,c,c,714.7477190942972,None,714.7477190942972,None,716.7634802954511,None,None,None,None,None,None,None,None,,,,,,,,,,,,,,,,,,79_80Exp,001,2021_May_28_1056,ComputerHuman,2020.1.3,60.00103934495221,
Human.xlsx,h,Sychronize.jpg,Number9.jpg,9,Human,,,,,0,3,3,4,0,0,0,7,,,,,,,,,,,,,,,,,,,,,,,,,721.7650665522125,None,721.7650665522125,None,724.8284180224431,None,724.8284180224431,None,725.2785534236522,None,725.2785534236522,None,v,9.754962625930148,725.2785534236522,None,t,8.30601507280744,725.2785534236522,None,9.754962625930148,8.30601507280744,8.895740517081947,False,False,False,735.110539802053,None,735.110539802053,None,735.110539802053,None,735.110539802053,None,735.110539802053,None,735.110539802053,None,735.110539802053,None,735.110539802053,None,736.1283045946592,None,736.1283045946592,None,737.1252892633032,None,737.1252892633032,None,h,,,,,,,,,,,,,,,,,,,,,,,,,,,,,,,,,,,,,,,,,,,,,,,79_80Exp,001,2021_May_28_1056,ComputerHuman,2020.1.3,60.00103934495221,
Human.xlsx,h,Sychronize.jpg,Number10.jpg,10,Human,,,,,0,3,3,4,0,1,1,9,,,,,,,,,,,,,,,,,,,,,,,,,,,,,738.175426204256,None,738.175426204256,None,738.6255134884753,None,738.6255134884753,None,v,10.626846008310622,738.6255134884753,None,t,9.065885952469444,738.6255134884753,None,10.626846008310622,9.065885952469444,9.652703625310435,False,False,False,749.3068532707683,None,749.3068532707683,None,749.3068532707683,None,749.3068532707683,None,749.3068532707683,None,749.3068532707683,None,749.3068532707683,None,749.3068532707683,None,750.3241676883507,None,750.3241676883507,None,751.3219161340115,None,751.3219161340115,None,h,,,,,,,,,,,,,,,,,,,,,,,,,,,,,,,,,,,,,,,,,,,,,,,79_80Exp,001,2021_May_28_1056,ComputerHuman,2020.1.3,60.00103934495221,
Human.xlsx,h,Sychronize.jpg,Number7.jpg,7,Human,,,,,0,3,3,4,0,2,2,3,,,,,,,,,,,,,,,,,,,,,,,,,,,,,752.3716334948139,None,752.3716334948139,None,752.8220710707186,None,752.8220710707186,None,v,5.645662317532469,752.8220710707186,None,t,7.361035888217202,752.8220710707186,None,5.645662317532469,7.361035888217202,6.732939760940742,False,False,False,760.2536073307195,None,760.2536073307195,None,760.2536073307195,None,760.2536073307195,None,760.2536073307195,None,760.2536073307195,None,760.2536073307195,None,760.2536073307195,None,761.2383163929452,None,761.2383163929452,None,762.2359349227337,None,762.2359349227337,None,h,,,,,,,,,,,,,,,,,,,,,,,,,,,,,,,,,,,,,,,,,,,,,,,79_80Exp,001,2021_May_28_1056,ComputerHuman,2020.1.3,60.00103934495221,
Human.xlsx,h,Sychronize.jpg,Number7.jpg,7,Human,,,,,0,3,3,4,0,3,3,2,,,,,,,,,,,,,,,,,,,,,,,,,,,,,763.2858713762292,None,763.2858713762292,None,763.7359047694202,None,763.7359047694202,None,v,7.030985416702833,763.7359047694202,None,t,5.226212083010296,763.7359047694202,None,7.030985416702833,5.226212083010296,6.786748901470692,False,False,False,770.8506050871848,None,770.8506050871848,None,770.8506050871848,None,770.8506050871848,None,770.8506050871848,None,770.8506050871848,None,770.8506050871848,None,770.8506050871848,None,771.8359739937295,None,771.8359739937295,None,772.8335065544962,None,772.8335065544962,None,h,,,,,,,,,,,,,,,,,,,,,,,,,,,,,,,,,,,,,,,,,,,,,,,79_80Exp,001,2021_May_28_1056,ComputerHuman,2020.1.3,60.00103934495221,
Human.xlsx,h,Sychronize.jpg,Number8.jpg,8,Human,,,,,0,3,3,4,0,4,4,5,,,,,,,,,,,,,,,,,,,,,,,,,,,,,773.867091892544,None,773.867091892544,None,774.3332906696024,None,774.3332906696024,None,v,7.552773751989662,774.3332906696024,None,t,6.48407712576045,774.3332906696024,None,7.552773751989662,6.48407712576045,8.174015101872138,False,False,False,781.9813059079323,None,781.9813059079323,None,781.9813059079323,None,781.9813059079323,None,781.9813059079323,None,781.9813059079323,None,781.9813059079323,None,781.9813059079323,None,782.9668602252774,None,782.9668602252774,None,783.964197751846,None,783.964197751846,None,h,,,,,,,,,,,,,,,,,,,,,,,,,,,,,,,,,,,,,,,,,,,,,,,79_80Exp,001,2021_May_28_1056,ComputerHuman,2020.1.3,60.00103934495221,
Human.xlsx,h,Sychronize.jpg,Number9.jpg,9,Human,,,,,0,3,3,4,0,5,5,6,,,,,,,,,,,,,,,,,,,,,,,,,,,,,785.0145592387506,None,785.0145592387506,None,785.4643645574102,None,785.4643645574102,None,v,8.592803238080933,785.4643645574102,None,t,7.651985210762177,785.4643645574102,None,8.592803238080933,7.651985210762177,8.614714315017217,False,False,False,794.1116670227324,None,794.1116670227324,None,794.1116670227324,None,794.1116670227324,None,794.1116670227324,None,794.1116670227324,None,794.1116670227324,None,794.1116670227324,None,795.1139711849804,None,795.1139711849804,None,796.1112917102126,None,796.1112917102126,None,h,,,,,,,,,,,,,,,,,,,,,,,,,,,,,,,,,,,,,,,,,,,,,,,79_80Exp,001,2021_May_28_1056,ComputerHuman,2020.1.3,60.00103934495221,
Human.xlsx,h,Sychronize.jpg,Number6.jpg,6,Human,,,,,0,3,3,4,0,6,6,0,,,,,,,,,,,,,,,,,,,,,,,,,,,,,797.1615296968438,None,797.1615296968438,None,797.6111505670427,None,797.6111505670427,None,v,5.76946027493409,797.6111505670427,None,t,4.685216086985292,797.6111505670427,None,5.76946027493409,4.685216086985292,6.199550593010674,False,False,False,803.4602957847593,None,803.4602957847593,None,803.4602957847593,None,803.4602957847593,None,803.4602957847593,None,803.4602957847593,None,803.4602957847593,None,803.4602957847593,None,804.4615869239834,None,804.4615869239834,None,805.4590671976217,None,805.4590671976217,None,h,,,,,,,,,,,,,,,,,,,,,,,,,,,,,,,,,,,,,,,,,,,,,,,79_80Exp,001,2021_May_28_1056,ComputerHuman,2020.1.3,60.00103934495221,
Human.xlsx,h,Sychronize.jpg,Number10.jpg,10,Human,,,,,0,3,3,4,0,7,7,8,,,,,,,,,,,,,,,,,,,,,,,,,,,,,806.4932726032768,None,806.4932726032768,None,806.9589209219729,None,806.9589209219729,None,v,9.205047023130192,806.9589209219729,None,t,7.332047968147663,806.9589209219729,None,9.205047023130192,7.332047968147663,10.176121471253024,False,False,False,816.2398869314897,None,816.2398869314897,None,816.2398869314897,None,816.2398869314897,None,816.2398869314897,None,816.2398869314897,None,816.2398869314897,None,816.2398869314897,None,817.2416515418928,None,817.2416515418928,None,818.2393858732368,None,818.2393858732368,None,h,,,,,,,,,,,,,,,,,,,,,,,,,,,,,,,,,,,,,,,,,,,,,,,79_80Exp,001,2021_May_28_1056,ComputerHuman,2020.1.3,60.00103934495221,
Human.xlsx,h,Sychronize.jpg,Number8.jpg,8,Human,,,,,0,3,3,4,0,8,8,4,,,,,,,,,,,,,,,,,,,,,,,,,,,,,819.2888876699252,None,819.2888876699252,None,819.7395966256516,None,819.7395966256516,None,v,7.219369205511612,819.7395966256516,None,t,7.975015413475603,819.7395966256516,None,7.219369205511612,7.975015413475603,7.423369023340423,False,False,False,827.7883388154625,None,827.7883388154625,None,827.7883388154625,None,827.7883388154625,None,827.7883388154625,None,827.7883388154625,None,827.7883388154625,None,827.7883388154625,None,828.7729824385818,None,828.7729824385818,None,829.7699687111254,None,829.7699687111254,None,h,,,,,,,,,,,,,,,,,,,,,,,,,,,,,,,,,,,,,,,,,,,,,,,79_80Exp,001,2021_May_28_1056,ComputerHuman,2020.1.3,60.00103934495221,
Human.xlsx,h,Sychronize.jpg,Number6.jpg,6,Human,,,,,0,3,3,4,0,9,9,1,,,,,,,,,,,,,,,,,,,,,,,,,,,,,830.8202115094556,None,830.8202115094556,None,831.2698166614379,None,831.2698166614379,None,v,5.50854846439438,831.2698166614379,None,t,5.4161885441787945,831.2698166614379,None,5.50854846439438,5.4161885441787945,5.628144383083885,True,False,False,836.8682576068148,None,836.8682576068148,None,836.8682576068148,None,836.8682576068148,None,836.8682576068148,None,836.8682576068148,None,836.8682576068148,None,836.8682576068148,None,837.8533811167118,None,837.8533811167118,None,838.8512152106144,None,838.8512152106144,None,h,,,,,,,,,,,,,,,,,,,,,,,,,,,,,,,,,,,,,,,,,,,,,,,79_80Exp,001,2021_May_28_1056,ComputerHuman,2020.1.3,60.00103934495221,
Human.xlsx,h,,,,,,,,,0,3,3,4,,,,,,,,,,,,,,,,,,,,,,,,,,,,,,,,,,,,,,,,,,,,,,,,,,,,,,,,,,,,,,,,,,,,,,,,,,,,,,,h,839.851690285693,None,839.851690285693,None,q,1,4.782057944403732,839.851690285693,None,l,0,4.173277620274803,839.851690285693,None,h,c,844.7167545282899,None,844.7167545282899,None,846.6992421894898,None,None,None,None,None,None,None,None,,,,,,,,,,,,,,,,,,79_80Exp,001,2021_May_28_1056,ComputerHuman,2020.1.3,60.00103934495221,
Human.xlsx,h,Sychronize.jpg,Number7.jpg,7,Human,,,,,0,4,4,6,0,0,0,2,,,,,,,,,,,,,,,,,,,,,,,,,851.7177819864104,None,851.7177819864104,None,854.7810292031635,None,854.7810292031635,None,855.2308114256679,None,855.2308114256679,None,v,6.805994542891767,855.2308114256679,None,t,7.349057644795266,855.2308114256679,None,6.805994542891767,7.349057644795266,6.703003794144392,False,False,False,862.6620868915846,None,862.6620868915846,None,862.6620868915846,None,862.6620868915846,None,862.6620868915846,None,862.6620868915846,None,862.6620868915846,None,862.6620868915846,None,863.6473207497783,None,863.6473207497783,None,864.644984509537,None,864.644984509537,None,h,,,,,,,,,,,,,,,,,,,,,,,,,,,,,,,,,,,,,,,,,,,,,,,79_80Exp,001,2021_May_28_1056,ComputerHuman,2020.1.3,60.00103934495221,
Human.xlsx,h,Sychronize.jpg,Number10.jpg,10,Human,,,,,0,4,4,6,0,1,1,9,,,,,,,,,,,,,,,,,,,,,,,,,,,,,865.711771212054,None,865.711771212054,None,866.144854593665,None,866.144854593665,None,v,10.046773242591144,866.144854593665,None,t,8.66994664146614,866.144854593665,None,10.046773242591144,8.66994664146614,10.177120551995573,False,False,False,876.2601659971989,None,876.2601659971989,None,876.2601659971989,None,876.2601659971989,None,876.2601659971989,None,876.2601659971989,None,876.2601659971989,None,876.2601659971989,None,877.24456871459,None,877.24456871459,None,878.2417875525838,None,878.2417875525838,None,h,,,,,,,,,,,,,,,,,,,,,,,,,,,,,,,,,,,,,,,,,,,,,,,79_80Exp,001,2021_May_28_1056,ComputerHuman,2020.1.3,60.00103934495221,
Human.xlsx,h,Sychronize.jpg,Number8.jpg,8,Human,,,,,0,4,4,6,0,2,2,4,,,,,,,,,,,,,,,,,,,,,,,,,,,,,879.3080391941752,None,879.3080391941752,None,879.7415719884699,None,879.7415719884699,None,v,7.965244135982402,879.7415719884699,None,t,7.532999593892555,879.7415719884699,None,7.965244135982402,7.532999593892555,7.588871879287082,False,False,False,887.7895552129627,None,887.7895552129627,None,887.7895552129627,None,887.7895552129627,None,887.7895552129627,None,887.7895552129627,None,887.7895552129627,None,887.7895552129627,None,888.7745491277673,None,888.7745491277673,None,889.772353709916,None,889.772353709916,None,h,,,,,,,,,,,,,,,,,,,,,,,,,,,,,,,,,,,,,,,,,,,,,,,79_80Exp,001,2021_May_28_1056,ComputerHuman,2020.1.3,60.00103934495221,
Human.xlsx,h,Sychronize.jpg,Number7.jpg,7,Human,,,,,0,4,4,6,0,3,3,3,,,,,,,,,,,,,,,,,,,,,,,,,,,,,890.8221127721096,None,890.8221127721096,None,891.2722757603927,None,891.2722757603927,None,v,6.545826941793166,891.2722757603927,None,t,6.657152654678384,891.2722757603927,None,6.545826941793166,6.657152654678384,7.059821311393716,True,False,False,898.0047029545757,None,898.0047029545757,None,898.0047029545757,None,898.0047029545757,None,898.0047029545757,None,898.0047029545757,None,898.0047029545757,None,898.0047029545757,None,898.988874068856,None,898.988874068856,None,900.0032703514015,None,900.0032703514015,None,h,,,,,,,,,,,,,,,,,,,,,,,,,,,,,,,,,,,,,,,,,,,,,,,79_80Exp,001,2021_May_28_1056,ComputerHuman,2020.1.3,60.00103934495221,
Human.xlsx,h,Sychronize.jpg,Number10.jpg,10,Human,,,,,0,4,4,6,0,4,4,8,,,,,,,,,,,,,,,,,,,,,,,,,,,,,901.0533877247784,None,901.0533877247784,None,901.5034377985259,None,901.5034377985259,None,v,9.381767253629732,901.5034377985259,None,t,9.9568804408284,901.5034377985259,None,9.381767253629732,9.9568804408284,9.78018570408528,False,False,False,911.5351420830551,None,911.5351420830551,None,911.5351420830551,None,911.5351420830551,None,911.5351420830551,None,911.5351420830551,None,911.5351420830551,None,911.5351420830551,None,912.519193546421,None,912.519193546421,None,913.5164986742165,None,913.5164986742165,None,h,,,,,,,,,,,,,,,,,,,,,,,,,,,,,,,,,,,,,,,,,,,,,,,79_80Exp,001,2021_May_28_1056,ComputerHuman,2020.1.3,60.00103934495221,
Human.xlsx,h,Sychronize.jpg,Number9.jpg,9,Human,,,,,0,4,4,6,0,5,5,6,,,,,,,,,,,,,,,,,,,,,,,,,,,,,914.583648820396,None,914.583648820396,None,915.0169987701298,None,915.0169987701298,None,v,8.727353738786405,915.0169987701298,None,t,8.439014602544148,915.0169987701298,None,8.727353738786405,8.439014602544148,9.20734905209371,True,False,False,923.8308713473592,None,923.8308713473592,None,923.8308713473592,None,923.8308713473592,None,923.8308713473592,None,923.8308713473592,None,923.8308713473592,None,923.8308713473592,None,924.816042011906,None,924.816042011906,None,925.797157697339,None,925.797157697339,None,h,,,,,,,,,,,,,,,,,,,,,,,,,,,,,,,,,,,,,,,,,,,,,,,79_80Exp,001,2021_May_28_1056,ComputerHuman,2020.1.3,60.00103934495221,
Human.xlsx,h,Sychronize.jpg,Number8.jpg,8,Human,,,,,0,4,4,6,0,6,6,5,,,,,,,,,,,,,,,,,,,,,,,,,,,,,926.8637740657124,None,926.8637740657124,None,927.297227948144,None,927.297227948144,None,v,7.294443257558669,927.297227948144,None,t,8.729791345485637,927.297227948144,None,7.294443257558669,8.729791345485637,7.989240039116982,False,False,False,936.0948979310336,None,936.0948979310336,None,936.0948979310336,None,936.0948979310336,None,936.0948979310336,None,936.0948979310336,None,936.0948979310336,None,936.0948979310336,None,937.09650664239,None,937.09650664239,None,938.094216594459,None,938.094216594459,None,h,,,,,,,,,,,,,,,,,,,,,,,,,,,,,,,,,,,,,,,,,,,,,,,79_80Exp,001,2021_May_28_1056,ComputerHuman,2020.1.3,60.00103934495221,
Human.xlsx,h,Sychronize.jpg,Number9.jpg,9,Human,,,,,0,4,4,6,0,7,7,7,,,,,,,,,,,,,,,,,,,,,,,,,,,,,939.1438104549878,None,939.1438104549878,None,939.5941290215377,None,939.5941290215377,None,v,8.860490241553862,939.5941290215377,None,t,9.083923087237508,939.5941290215377,None,8.860490241553862,9.083923087237508,8.80372114517352,True,False,False,948.7419139398768,None,948.7419139398768,None,948.7419139398768,None,948.7419139398768,None,948.7419139398768,None,948.7419139398768,None,948.7419139398768,None,948.7419139398768,None,949.7603004039903,None,949.7603004039903,None,950.7579385013547,None,950.7579385013547,None,h,,,,,,,,,,,,,,,,,,,,,,,,,,,,,,,,,,,,,,,,,,,,,,,79_80Exp,001,2021_May_28_1056,ComputerHuman,2020.1.3,60.00103934495221,
Human.xlsx,h,Sychronize.jpg,Number6.jpg,6,Human,,,,,0,4,4,6,0,8,8,0,,,,,,,,,,,,,,,,,,,,,,,,,,,,,951.8081537126108,None,951.8081537126108,None,952.2579660884288,None,952.2579660884288,None,v,5.891974471049934,952.2579660884288,None,t,6.355320872957691,952.2579660884288,None,5.891974471049934,6.355320872957691,6.173926292854675,False,False,False,958.7059766433716,None,958.7059766433716,None,958.7059766433716,None,958.7059766433716,None,958.7059766433716,None,958.7059766433716,None,958.7059766433716,None,958.7059766433716,None,959.6916676129675,None,959.6916676129675,None,960.6722174426012,None,960.6722174426012,None,h,,,,,,,,,,,,,,,,,,,,,,,,,,,,,,,,,,,,,,,,,,,,,,,79_80Exp,001,2021_May_28_1056,ComputerHuman,2020.1.3,60.00103934495221,
Human.xlsx,h,Sychronize.jpg,Number6.jpg,6,Human,,,,,0,4,4,6,0,9,9,1,,,,,,,,,,,,,,,,,,,,,,,,,,,,,961.7222472430568,None,961.7222472430568,None,962.1722674842705,None,962.1722674842705,None,v,5.673039280785815,962.1722674842705,None,t,4.804231215608297,962.1722674842705,None,5.673039280785815,4.804231215608297,6.090103309616281,False,False,False,967.9384641441817,None,967.9384641441817,None,967.9384641441817,None,967.9384641441817,None,967.9384641441817,None,967.9384641441817,None,967.9384641441817,None,967.9384641441817,None,968.9219622621657,None,968.9219622621657,None,969.9200061461435,None,969.9200061461435,None,h,,,,,,,,,,,,,,,,,,,,,,,,,,,,,,,,,,,,,,,,,,,,,,,79_80Exp,001,2021_May_28_1056,ComputerHuman,2020.1.3,60.00103934495221,
Human.xlsx,h,,,,,,,,,0,4,4,6,,,,,,,,,,,,,,,,,,,,,,,,,,,,,,,,,,,,,,,,,,,,,,,,,,,,,,,,,,,,,,,,,,,,,,,,,,,,,,,h,970.9206303838902,None,970.9206303838902,None,q,1,5.128115013719707,970.9206303838902,None,o,0,3.6555461887817273,970.9206303838902,None,h,h,976.1356870240028,None,976.1356870240028,None,None,None,978.1348667897179,None,978.1348667897179,None,"['space', 'space']",979.1178279220966,None,"[10.781967163683248, 53.90303464230806]",,,,,,,,,,,,,,,,,79_80Exp,001,2021_May_28_1056,ComputerHuman,2020.1.3,60.00103934495221,
Computer.xlsx,c,Sychronize.jpg,Number6.jpg,6,Computer,,,,,0,5,5,5,0,0,0,1,,,,,,,,,,,,,,,,,,,,,,,,,1033.0744007349708,None,1033.0744007349708,None,1036.1379761095936,None,1036.1379761095936,None,1036.5880682055122,None,1036.5880682055122,None,v,5.648136493143966,1036.5880682055122,None,t,5.771372123325818,1036.5880682055122,None,5.648136493143966,5.771372123325818,5.607935630332217,False,True,True,1042.4372140647883,None,1042.4372140647883,None,1042.4372140647883,None,1042.4372140647883,None,1042.4372140647883,None,1042.4372140647883,None,1042.4372140647883,None,1042.4372140647883,None,1043.4690694366654,None,1043.4690694366654,None,1044.4356624522597,None,1044.4356624522597,None,c,,,,,,,,,,,,,,,,,,,,,,,,,,,,,,,,,,,,,,,,,,,,,,,79_80Exp,001,2021_May_28_1056,ComputerHuman,2020.1.3,60.00103934495221,
Computer.xlsx,c,Sychronize.jpg,Number7.jpg,7,Computer,,,,,0,5,5,5,0,1,1,3,,,,,,,,,,,,,,,,,,,,,,,,,,,,,1045.4856171902115,None,1045.4856171902115,None,1045.9356300534869,None,1045.9356300534869,None,v,6.556073294364978,1045.9356300534869,None,t,6.627086272479573,1045.9356300534869,None,6.556073294364978,6.627086272479573,6.491753505668087,False,True,True,1052.650717809253,None,1052.650717809253,None,1052.650717809253,None,1052.650717809253,None,1052.650717809253,None,1052.650717809253,None,1052.650717809253,None,1052.650717809253,None,1053.650117309221,None,1053.650117309221,None,1054.6332343406466,None,1054.6332343406466,None,c,,,,,,,,,,,,,,,,,,,,,,,,,,,,,,,,,,,,,,,,,,,,,,,79_80Exp,001,2021_May_28_1056,ComputerHuman,2020.1.3,60.00103934495221,
Computer.xlsx,c,Sychronize.jpg,Number6.jpg,6,Computer,,,,,0,5,5,5,0,2,2,0,,,,,,,,,,,,,,,,,,,,,,,,,,,,,1055.6834078505112,None,1055.6834078505112,None,1056.1333555954607,None,1056.1333555954607,None,v,5.777507681075349,1056.1333555954607,None,t,6.061178186194866,1056.1333555954607,None,5.777507681075349,6.061178186194866,5.937284991781176,False,True,True,1062.2814032325637,None,1062.2814032325637,None,1062.2814032325637,None,1062.2814032325637,None,1062.2814032325637,None,1062.2814032325637,None,1062.2814032325637,None,1062.2814032325637,None,1063.2643547415446,None,1063.2643547415446,None,1064.2475891784247,None,1064.2475891784247,None,c,,,,,,,,,,,,,,,,,,,,,,,,,,,,,,,,,,,,,,,,,,,,,,,79_80Exp,001,2021_May_28_1056,ComputerHuman,2020.1.3,60.00103934495221,
Computer.xlsx,c,Sychronize.jpg,Number9.jpg,9,Computer,,,,,0,5,5,5,0,3,3,7,,,,,,,,,,,,,,,,,,,,,,,,,,,,,1065.3146738854985,None,1065.3146738854985,None,1065.7481409199072,None,1065.7481409199072,None,v,8.477844692471535,1065.7481409199072,None,t,9.368932527790776,1065.7481409199072,None,8.477844692471535,9.368932527790776,8.584039735008494,False,True,False,1075.2117041690485,None,1075.2117041690485,None,1075.2117041690485,None,1075.2117041690485,None,1075.2117041690485,None,1075.2117041690485,None,1075.2117041690485,None,1075.2117041690485,None,1076.2114308645469,None,1076.2114308645469,None,1077.1778715096739,None,1077.1778715096739,None,c,,,,,,,,,,,,,,,,,,,,,,,,,,,,,,,,,,,,,,,,,,,,,,,79_80Exp,001,2021_May_28_1056,ComputerHuman,2020.1.3,60.00103934495221,
Computer.xlsx,c,Sychronize.jpg,Number8.jpg,8,Computer,,,,,0,5,5,5,0,4,4,5,,,,,,,,,,,,,,,,,,,,,,,,,,,,,1078.2442229138237,None,1078.2442229138237,None,1078.6780238801412,None,1078.6780238801412,None,v,7.8671255744366135,1078.6780238801412,None,t,7.4100523448692,1078.6780238801412,None,7.8671255744366135,7.4100523448692,7.447478070403147,False,False,True,1086.6272152260121,None,1086.6272152260121,None,1086.6272152260121,None,1086.6272152260121,None,1086.6272152260121,None,1086.6272152260121,None,1086.6272152260121,None,1086.6272152260121,None,1087.642073431659,None,1087.642073431659,None,1088.6251619136706,None,1088.6251619136706,None,c,,,,,,,,,,,,,,,,,,,,,,,,,,,,,,,,,,,,,,,,,,,,,,,79_80Exp,001,2021_May_28_1056,ComputerHuman,2020.1.3,60.00103934495221,
Computer.xlsx,c,Sychronize.jpg,Number10.jpg,10,Computer,,,,,0,5,5,5,0,5,5,9,,,,,,,,,,,,,,,,,,,,,,,,,,,,,1089.6756109734965,None,1089.6756109734965,None,1090.125431048033,None,1090.125431048033,None,v,9.982774759238964,1090.125431048033,None,t,9.237941080425571,1090.125431048033,None,9.982774759238964,9.237941080425571,10.413316698529796,False,False,False,1100.1893788481561,None,1100.1893788481561,None,1100.1893788481561,None,1100.1893788481561,None,1100.1893788481561,None,1100.1893788481561,None,1100.1893788481561,None,1100.1893788481561,None,1101.205489699436,None,1101.205489699436,None,1102.1885435372146,None,1102.1885435372146,None,c,,,,,,,,,,,,,,,,,,,,,,,,,,,,,,,,,,,,,,,,,,,,,,,79_80Exp,001,2021_May_28_1056,ComputerHuman,2020.1.3,60.00103934495221,
Computer.xlsx,c,Sychronize.jpg,Number9.jpg,9,Computer,,,,,0,5,5,5,0,6,6,6,,,,,,,,,,,,,,,,,,,,,,,,,,,,,1103.2382981084893,None,1103.2382981084893,None,1103.688456926633,None,1103.688456926633,None,v,9.102891766926405,1103.688456926633,None,t,8.166006501567608,1103.688456926633,None,9.102891766926405,8.166006501567608,9.594688225579736,False,False,False,1112.8860666670516,None,1112.8860666670516,None,1112.8860666670516,None,1112.8860666670516,None,1112.8860666670516,None,1112.8860666670516,None,1112.8860666670516,None,1112.8860666670516,None,1113.8691041450543,None,1113.8691041450543,None,1114.8522692934694,None,1114.8522692934694,None,c,,,,,,,,,,,,,,,,,,,,,,,,,,,,,,,,,,,,,,,,,,,,,,,79_80Exp,001,2021_May_28_1056,ComputerHuman,2020.1.3,60.00103934495221,
Computer.xlsx,c,Sychronize.jpg,Number8.jpg,8,Computer,,,,,0,5,5,5,0,7,7,4,,,,,,,,,,,,,,,,,,,,,,,,,,,,,1115.91927412634,None,1115.91927412634,None,1116.3691179385914,None,1116.3691179385914,None,v,8.197463143989808,1116.3691179385914,None,t,8.55297937192563,1116.3691179385914,None,8.197463143989808,8.55297937192563,8.49718403414535,False,True,True,1125.001513118937,None,1125.001513118937,None,1125.001513118937,None,1125.001513118937,None,1125.001513118937,None,1125.001513118937,None,1125.001513118937,None,1125.001513118937,None,1126.0162616178472,None,1126.0162616178472,None,1126.9827859865363,None,1126.9827859865363,None,c,,,,,,,,,,,,,,,,,,,,,,,,,,,,,,,,,,,,,,,,,,,,,,,79_80Exp,001,2021_May_28_1056,ComputerHuman,2020.1.3,60.00103934495221,
Computer.xlsx,c,Sychronize.jpg,Number10.jpg,10,Computer,,,,,0,5,5,5,0,8,8,8,,,,,,,,,,,,,,,,,,,,,,,,,,,,,1128.0496076540658,None,1128.0496076540658,None,1128.482591273118,None,1128.482591273118,None,v,10.474948370469974,1128.482591273118,None,t,10.737803465834531,1128.482591273118,None,10.474948370469974,10.737803465834531,9.94276400817437,False,False,False,1139.2976914751453,None,1139.2976914751453,None,1139.2976914751453,None,1139.2976914751453,None,1139.2976914751453,None,1139.2976914751453,None,1139.2976914751453,None,1139.2976914751453,None,1140.2955085677113,None,1140.2955085677113,None,1141.2959846051294,None,1141.2959846051294,None,c,,,,,,,,,,,,,,,,,,,,,,,,,,,,,,,,,,,,,,,,,,,,,,,79_80Exp,001,2021_May_28_1056,ComputerHuman,2020.1.3,60.00103934495221,
Computer.xlsx,c,Sychronize.jpg,Number7.jpg,7,Computer,,,,,0,5,5,5,0,9,9,2,,,,,,,,,,,,,,,,,,,,,,,,,,,,,1142.3458678091565,None,1142.3458678091565,None,1142.7794965166509,None,1142.7794965166509,None,v,7.073295648106978,1142.7794965166509,None,t,7.48007635845488,1142.7794965166509,None,7.073295648106978,7.48007635845488,7.268102114294488,False,True,True,1150.343866463164,None,1150.343866463164,None,1150.343866463164,None,1150.343866463164,None,1150.343866463164,None,1150.343866463164,None,1150.343866463164,None,1150.343866463164,None,1151.3435649300286,None,1151.3435649300286,None,1152.3267005666899,None,1152.3267005666899,None,c,,,,,,,,,,,,,,,,,,,,,,,,,,,,,,,,,,,,,,,,,,,,,,,79_80Exp,001,2021_May_28_1056,ComputerHuman,2020.1.3,60.00103934495221,
Computer.xlsx,c,,,,,,,,,0,5,5,5,,,,,,,,,,,,,,,,,,,,,,,,,,,,,,,,,,,,,,,,,,,,,,,,,,,,,,,,,,,,,,,,,,,,,,,,,,,,,,,c,1153.326814122786,None,1153.326814122786,None,a,0,3.865512692941138,1153.326814122786,None,l,1,3.9363826032063116,1153.326814122786,None,c,c,1157.359145211301,None,1157.359145211301,None,1159.3415661502754,None,None,None,None,None,None,None,None,,,,,,,,,,,,,,,,,,79_80Exp,001,2021_May_28_1056,ComputerHuman,2020.1.3,60.00103934495221,
Human.xlsx,h,Sychronize.jpg,Number7.jpg,7,Human,,,,,0,6,6,8,0,0,0,3,,,,,,,,,,,,,,,,,,,,,,,,,1164.3433644425713,None,1164.3433644425713,None,1167.4229797761086,None,1167.4229797761086,None,1167.8731058746998,None,1167.8731058746998,None,v,7.1858967819998725,1167.8731058746998,None,t,7.35302473020829,1167.8731058746998,None,7.1858967819998725,7.35302473020829,6.505063213729681,True,False,False,1175.3052291619751,None,1175.3052291619751,None,1175.3052291619751,None,1175.3052291619751,None,1175.3052291619751,None,1175.3052291619751,None,1175.3052291619751,None,1175.3052291619751,None,1176.3071140648526,None,1176.3071140648526,None,1177.2874595576704,None,1177.2874595576704,None,h,,,,,,,,,,,,,,,,,,,,,,,,,,,,,,,,,,,,,,,,,,,,,,,79_80Exp,001,2021_May_28_1056,ComputerHuman,2020.1.3,60.00103934495221,
Human.xlsx,h,Sychronize.jpg,Number8.jpg,8,Human,,,,,0,6,6,8,0,1,1,5,,,,,,,,,,,,,,,,,,,,,,,,,,,,,1178.3373212694419,None,1178.3373212694419,None,1178.787338623636,None,1178.787338623636,None,v,8.174880236812442,1178.787338623636,None,t,8.354097097518661,1178.787338623636,None,8.174880236812442,8.354097097518661,7.743525060408275,True,False,False,1187.234936014027,None,1187.234936014027,None,1187.234936014027,None,1187.234936014027,None,1187.234936014027,None,1187.234936014027,None,1187.234936014027,None,1187.234936014027,None,1188.2202112528316,None,1188.2202112528316,None,1189.2179295451792,None,1189.2179295451792,None,h,,,,,,,,,,,,,,,,,,,,,,,,,,,,,,,,,,,,,,,,,,,,,,,79_80Exp,001,2021_May_28_1056,ComputerHuman,2020.1.3,60.00103934495221,
Human.xlsx,h,Sychronize.jpg,Number6.jpg,6,Human,,,,,0,6,6,8,0,2,2,1,,,,,,,,,,,,,,,,,,,,,,,,,,,,,1190.251671103053,None,1190.251671103053,None,1190.7181274663967,None,1190.7181274663967,None,v,6.015416041947901,1190.7181274663967,None,t,6.50307595876302,1190.7181274663967,None,6.015416041947901,6.50307595876302,6.296664281015409,False,False,False,1197.299546224709,None,1197.299546224709,None,1197.299546224709,None,1197.299546224709,None,1197.299546224709,None,1197.299546224709,None,1197.299546224709,None,1197.299546224709,None,1198.2843633897714,None,1198.2843633897714,None,1199.2821913888552,None,1199.2821913888552,None,h,,,,,,,,,,,,,,,,,,,,,,,,,,,,,,,,,,,,,,,,,,,,,,,79_80Exp,001,2021_May_28_1056,ComputerHuman,2020.1.3,60.00103934495221,
Human.xlsx,h,Sychronize.jpg,Number7.jpg,7,Human,,,,,0,6,6,8,0,3,3,2,,,,,,,,,,,,,,,,,,,,,,,,,,,,,1200.348772792216,None,1200.348772792216,None,1200.7987997698083,None,1200.7987997698083,None,v,7.22598047989959,1200.7987997698083,None,t,7.1370561127505425,1200.7987997698083,None,7.22598047989959,7.1370561127505425,7.450724823304114,True,False,False,1208.113313586121,None,1208.113313586121,None,1208.113313586121,None,1208.113313586121,None,1208.113313586121,None,1208.113313586121,None,1208.113313586121,None,1208.113313586121,None,1209.0987610837487,None,1209.0987610837487,None,1210.079678206404,None,1210.079678206404,None,h,,,,,,,,,,,,,,,,,,,,,,,,,,,,,,,,,,,,,,,,,,,,,,,79_80Exp,001,2021_May_28_1056,ComputerHuman,2020.1.3,60.00103934495221,
Human.xlsx,h,Sychronize.jpg,Number8.jpg,8,Human,,,,,0,6,6,8,0,4,4,4,,,,,,,,,,,,,,,,,,,,,,,,,,,,,1211.14600298582,None,1211.14600298582,None,1211.5797128506365,None,1211.5797128506365,None,v,8.236212397374402,1211.5797128506365,None,t,8.272303347467187,1211.5797128506365,None,8.236212397374402,8.272303347467187,8.24087030013133,True,False,False,1219.943886287364,None,1219.943886287364,None,1219.943886287364,None,1219.943886287364,None,1219.943886287364,None,1219.943886287364,None,1219.943886287364,None,1219.943886287364,None,1220.9299673253563,None,1220.9299673253563,None,1221.9268374755648,None,1221.9268374755648,None,h,,,,,,,,,,,,,,,,,,,,,,,,,,,,,,,,,,,,,,,,,,,,,,,79_80Exp,001,2021_May_28_1056,ComputerHuman,2020.1.3,60.00103934495221,
Human.xlsx,h,Sychronize.jpg,Number9.jpg,9,Human,,,,,0,6,6,8,0,5,5,7,,,,,,,,,,,,,,,,,,,,,,,,,,,,,1222.9772361729415,None,1222.9772361729415,None,1223.426826569047,None,1223.426826569047,None,v,9.152244721726674,1223.426826569047,None,t,10.147770483242311,1223.426826569047,None,9.152244721726674,10.147770483242311,9.168983272307639,False,False,False,1233.6421876293143,None,1233.6421876293143,None,1233.6421876293143,None,1233.6421876293143,None,1233.6421876293143,None,1233.6421876293143,None,1233.6421876293143,None,1233.6421876293143,None,1234.6430774728447,None,1234.6430774728447,None,1235.6402690445443,None,1235.6402690445443,None,h,,,,,,,,,,,,,,,,,,,,,,,,,,,,,,,,,,,,,,,,,,,,,,,79_80Exp,001,2021_May_28_1056,ComputerHuman,2020.1.3,60.00103934495221,
Human.xlsx,h,Sychronize.jpg,Number9.jpg,9,Human,,,,,0,6,6,8,0,6,6,6,,,,,,,,,,,,,,,,,,,,,,,,,,,,,1236.690234047454,None,1236.690234047454,None,1237.1402671198648,None,1237.1402671198648,None,v,9.193893504912012,1237.1402671198648,None,t,8.060999190992788,1237.1402671198648,None,9.193893504912012,8.060999190992788,8.81904646002887,False,False,False,1246.404869824296,None,1246.404869824296,None,1246.404869824296,None,1246.404869824296,None,1246.404869824296,None,1246.404869824296,None,1246.404869824296,None,1246.404869824296,None,1247.3898560403823,None,1247.3898560403823,None,1248.3872166631063,None,1248.3872166631063,None,h,,,,,,,,,,,,,,,,,,,,,,,,,,,,,,,,,,,,,,,,,,,,,,,79_80Exp,001,2021_May_28_1056,ComputerHuman,2020.1.3,60.00103934495221,
Human.xlsx,h,Sychronize.jpg,Number10.jpg,10,Human,,,,,0,6,6,8,0,7,7,9,,,,,,,,,,,,,,,,,,,,,,,,,,,,,1249.4534060733909,None,1249.4534060733909,None,1249.9040341925747,None,1249.9040341925747,None,v,10.553187558100944,1249.9040341925747,None,t,10.284853541506891,1249.9040341925747,None,10.553187558100944,10.284853541506891,10.707933018267576,True,False,False,1260.550876980255,None,1260.550876980255,None,1260.550876980255,None,1260.550876980255,None,1260.550876980255,None,1260.550876980255,None,1260.550876980255,None,1260.550876980255,None,1261.5195810485784,None,1261.5195810485784,None,1262.5171934835485,None,1262.5171934835485,None,h,,,,,,,,,,,,,,,,,,,,,,,,,,,,,,,,,,,,,,,,,,,,,,,79_80Exp,001,2021_May_28_1056,ComputerHuman,2020.1.3,60.00103934495221,
Human.xlsx,h,Sychronize.jpg,Number6.jpg,6,Human,,,,,0,6,6,8,0,8,8,0,,,,,,,,,,,,,,,,,,,,,,,,,,,,,1263.584173937144,None,1263.584173937144,None,1264.0170440001002,None,1264.0170440001002,None,v,6.151474529111056,1264.0170440001002,None,t,6.155411781990551,1264.0170440001002,None,6.151474529111056,6.155411781990551,5.766605090191289,True,False,False,1270.281996996217,None,1270.281996996217,None,1270.281996996217,None,1270.281996996217,None,1270.281996996217,None,1270.281996996217,None,1270.281996996217,None,1270.281996996217,None,1271.2675160277695,None,1271.2675160277695,None,1272.2648416854804,None,1272.2648416854804,None,h,,,,,,,,,,,,,,,,,,,,,,,,,,,,,,,,,,,,,,,,,,,,,,,79_80Exp,001,2021_May_28_1056,ComputerHuman,2020.1.3,60.00103934495221,
Human.xlsx,h,Sychronize.jpg,Number10.jpg,10,Human,,,,,0,6,6,8,0,9,9,8,,,,,,,,,,,,,,,,,,,,,,,,,,,,,1273.2989428376577,None,1273.2989428376577,None,1273.764671672117,None,1273.764671672117,None,v,10.350862352690001,1273.764671672117,None,t,10.00182876638928,1273.764671672117,None,10.350862352690001,10.00182876638928,10.497500737798156,False,False,False,1284.1956334152605,None,1284.1956334152605,None,1284.1956334152605,None,1284.1956334152605,None,1284.1956334152605,None,1284.1956334152605,None,1284.1956334152605,None,1284.1956334152605,None,1285.1972940929659,None,1285.1972940929659,None,1286.1948821486612,None,1286.1948821486612,None,h,,,,,,,,,,,,,,,,,,,,,,,,,,,,,,,,,,,,,,,,,,,,,,,79_80Exp,001,2021_May_28_1056,ComputerHuman,2020.1.3,60.00103934495221,
Human.xlsx,h,,,,,,,,,0,6,6,8,,,,,,,,,,,,,,,,,,,,,,,,,,,,,,,,,,,,,,,,,,,,,,,,,,,,,,,,,,,,,,,,,,,,,,,,,,,,,,,h,1287.1959391185355,None,1287.1959391185355,None,a,0,2.759228357459506,1287.1959391185355,None,l,0,5.270234637688645,1287.1959391185355,None,c,c,1292.5441033912216,None,1292.5441033912216,None,1294.5429854731601,None,None,None,None,None,None,None,None,,,,,,,,,,,,,,,,,,79_80Exp,001,2021_May_28_1056,ComputerHuman,2020.1.3,60.00103934495221,
Computer.xlsx,c,Sychronize.jpg,Number10.jpg,10,Computer,,,,,0,7,7,9,0,0,0,9,,,,,,,,,,,,,,,,,,,,,,,,,1299.5610662339986,None,1299.5610662339986,None,1302.6247471452193,None,1302.6247471452193,None,1303.0743654491785,None,1303.0743654491785,None,v,10.247214507464832,1303.0743654491785,None,t,9.610847430007198,1303.0743654491785,None,10.247214507464832,9.610847430007198,10.626107738928741,False,False,False,1313.389609360615,None,1313.389609360615,None,1313.389609360615,None,1313.389609360615,None,1313.389609360615,None,1313.389609360615,None,1313.389609360615,None,1313.389609360615,None,1314.404838067083,None,1314.404838067083,None,1315.387862072328,None,1315.387862072328,None,c,,,,,,,,,,,,,,,,,,,,,,,,,,,,,,,,,,,,,,,,,,,,,,,79_80Exp,001,2021_May_28_1056,ComputerHuman,2020.1.3,60.00103934495221,
Computer.xlsx,c,Sychronize.jpg,Number7.jpg,7,Computer,,,,,0,7,7,9,0,1,1,2,,,,,,,,,,,,,,,,,,,,,,,,,,,,,1316.4551649097552,None,1316.4551649097552,None,1316.9048120839084,None,1316.9048120839084,None,v,7.18394130753768,1316.9048120839084,None,t,6.623106035089677,1316.9048120839084,None,7.18394130753768,6.623106035089677,7.305917547344271,False,True,False,1324.1709256618174,None,1324.1709256618174,None,1324.1709256618174,None,1324.1709256618174,None,1324.1709256618174,None,1324.1709256618174,None,1324.1709256618174,None,1324.1709256618174,None,1325.1856051930422,None,1325.1856051930422,None,1326.1521334110903,None,1326.1521334110903,None,c,,,,,,,,,,,,,,,,,,,,,,,,,,,,,,,,,,,,,,,,,,,,,,,79_80Exp,001,2021_May_28_1056,ComputerHuman,2020.1.3,60.00103934495221,
Computer.xlsx,c,Sychronize.jpg,Number9.jpg,9,Computer,,,,,0,7,7,9,0,2,2,6,,,,,,,,,,,,,,,,,,,,,,,,,,,,,1327.2190275748844,None,1327.2190275748844,None,1327.6520795200622,None,1327.6520795200622,None,v,9.455832773572183,1327.6520795200622,None,t,8.638980792339225,1327.6520795200622,None,9.455832773572183,8.638980792339225,8.691327148872668,False,False,True,1337.1993765962811,None,1337.1993765962811,None,1337.1993765962811,None,1337.1993765962811,None,1337.1993765962811,None,1337.1993765962811,None,1337.1993765962811,None,1337.1993765962811,None,1338.1990587033692,None,1338.1990587033692,None,1339.1823406156795,None,1339.1823406156795,None,c,,,,,,,,,,,,,,,,,,,,,,,,,,,,,,,,,,,,,,,,,,,,,,,79_80Exp,001,2021_May_28_1056,ComputerHuman,2020.1.3,60.00103934495221,
Computer.xlsx,c,Sychronize.jpg,Number7.jpg,7,Computer,,,,,0,7,7,9,0,3,3,3,,,,,,,,,,,,,,,,,,,,,,,,,,,,,1340.232122774028,None,1340.232122774028,None,1340.682229946603,None,1340.682229946603,None,v,6.996936872434162,1340.682229946603,None,t,8.1960055199811,1340.682229946603,None,6.996936872434162,8.1960055199811,7.447438643922431,False,False,False,1348.9312119514907,None,1348.9312119514907,None,1348.9312119514907,None,1348.9312119514907,None,1348.9312119514907,None,1348.9312119514907,None,1348.9312119514907,None,1348.9312119514907,None,1349.9634330124895,None,1349.9634330124895,None,1350.9462080925077,None,1350.9462080925077,None,c,,,,,,,,,,,,,,,,,,,,,,,,,,,,,,,,,,,,,,,,,,,,,,,79_80Exp,001,2021_May_28_1056,ComputerHuman,2020.1.3,60.00103934495221,
Computer.xlsx,c,Sychronize.jpg,Number8.jpg,8,Computer,,,,,0,7,7,9,0,4,4,5,,,,,,,,,,,,,,,,,,,,,,,,,,,,,1351.996281839814,None,1351.996281839814,None,1352.4463303096618,None,1352.4463303096618,None,v,7.851997592867519,1352.4463303096618,None,t,8.494982681091187,1352.4463303096618,None,7.851997592867519,8.494982681091187,8.25126373457961,False,False,True,1361.0271386237646,None,1361.0271386237646,None,1361.0271386237646,None,1361.0271386237646,None,1361.0271386237646,None,1361.0271386237646,None,1361.0271386237646,None,1361.0271386237646,None,1362.0102485980315,None,1362.0102485980315,None,1362.9933030773705,None,1362.9933030773705,None,c,,,,,,,,,,,,,,,,,,,,,,,,,,,,,,,,,,,,,,,,,,,,,,,79_80Exp,001,2021_May_28_1056,ComputerHuman,2020.1.3,60.00103934495221,
Computer.xlsx,c,Sychronize.jpg,Number6.jpg,6,Computer,,,,,0,7,7,9,0,5,5,1,,,,,,,,,,,,,,,,,,,,,,,,,,,,,1364.0603072686808,None,1364.0603072686808,None,1364.4934952245494,None,1364.4934952245494,None,v,5.8521294334191225,1364.4934952245494,None,t,6.971285384432122,1364.4934952245494,None,5.8521294334191225,6.971285384432122,6.346092390672114,False,False,False,1371.5579835388571,None,1371.5579835388571,None,1371.5579835388571,None,1371.5579835388571,None,1371.5579835388571,None,1371.5579835388571,None,1371.5579835388571,None,1371.5579835388571,None,1372.5577156876143,None,1372.5577156876143,None,1373.5408279073408,None,1373.5408279073408,None,c,,,,,,,,,,,,,,,,,,,,,,,,,,,,,,,,,,,,,,,,,,,,,,,79_80Exp,001,2021_May_28_1056,ComputerHuman,2020.1.3,60.00103934495221,
Computer.xlsx,c,Sychronize.jpg,Number8.jpg,8,Computer,,,,,0,7,7,9,0,6,6,4,,,,,,,,,,,,,,,,,,,,,,,,,,,,,1374.5920041752715,None,1374.5920041752715,None,1375.0408327190398,None,1375.0408327190398,None,v,8.115847747579664,1375.0408327190398,None,None,,1375.0408327190398,None,8.115847747579664,13,7.50365479496126,False,False,False,1388.1207223194187,None,1388.1207223194187,None,1388.1207223194187,None,1388.1207223194187,None,1388.1207223194187,None,1388.1207223194187,None,1388.1207223194187,None,1388.1207223194187,None,1389.1204663370331,None,1389.1204663370331,None,1390.1036401465067,None,1390.1036401465067,None,c,,,,,,,,,,,,,,,,,,,,,,,,,,,,,,,,,,,,,,,,,,,,,,,79_80Exp,001,2021_May_28_1056,ComputerHuman,2020.1.3,60.00103934495221,
Computer.xlsx,c,Sychronize.jpg,Number6.jpg,6,Computer,,,,,0,7,7,9,0,7,7,0,,,,,,,,,,,,,,,,,,,,,,,,,,,,,1391.1379924693706,None,1391.1379924693706,None,1391.603712963551,None,1391.603712963551,None,v,5.932027053296224,1391.603712963551,None,t,6.60317405326623,1391.603712963551,None,5.932027053296224,6.60317405326623,5.721524634530051,False,True,False,1398.3014429964442,None,1398.3014429964442,None,1398.3014429964442,None,1398.3014429964442,None,1398.3014429964442,None,1398.3014429964442,None,1398.3014429964442,None,1398.3014429964442,None,1399.2847518542685,None,1399.2847518542685,None,1400.2844878523847,None,1400.2844878523847,None,c,,,,,,,,,,,,,,,,,,,,,,,,,,,,,,,,,,,,,,,,,,,,,,,79_80Exp,001,2021_May_28_1056,ComputerHuman,2020.1.3,60.00103934495221,
Computer.xlsx,c,Sychronize.jpg,Number10.jpg,10,Computer,,,,,0,7,7,9,0,8,8,8,,,,,,,,,,,,,,,,,,,,,,,,,,,,,1401.3516607739393,None,1401.3516607739393,None,1401.784295384426,None,1401.784295384426,None,v,10.050427888350441,1401.784295384426,None,t,10.273880943169843,1401.784295384426,None,10.050427888350441,10.273880943169843,10.119911413398626,False,True,True,1412.1483106766468,None,1412.1483106766468,None,1412.1483106766468,None,1412.1483106766468,None,1412.1483106766468,None,1412.1483106766468,None,1412.1483106766468,None,1412.1483106766468,None,1413.131322492255,None,1413.131322492255,None,1414.1145001510877,None,1414.1145001510877,None,c,,,,,,,,,,,,,,,,,,,,,,,,,,,,,,,,,,,,,,,,,,,,,,,79_80Exp,001,2021_May_28_1056,ComputerHuman,2020.1.3,60.00103934495221,
Computer.xlsx,c,Sychronize.jpg,Number9.jpg,9,Computer,,,,,0,7,7,9,0,9,9,7,,,,,,,,,,,,,,,,,,,,,,,,,,,,,1415.1816002555975,None,1415.1816002555975,None,1415.6146958268455,None,1415.6146958268455,None,v,8.84730169545037,1415.6146958268455,None,t,9.4790209924804,1415.6146958268455,None,8.84730169545037,9.4790209924804,9.131505779709213,False,True,False,1425.1785554124876,None,1425.1785554124876,None,1425.1785554124876,None,1425.1785554124876,None,1425.1785554124876,None,1425.1785554124876,None,1425.1785554124876,None,1425.1785554124876,None,1426.178221801359,None,1426.178221801359,None,1427.1447724740024,None,1427.1447724740024,None,c,,,,,,,,,,,,,,,,,,,,,,,,,,,,,,,,,,,,,,,,,,,,,,,79_80Exp,001,2021_May_28_1056,ComputerHuman,2020.1.3,60.00103934495221,
Computer.xlsx,c,,,,,,,,,0,7,7,9,,,,,,,,,,,,,,,,,,,,,,,,,,,,,,,,,,,,,,,,,,,,,,,,,,,,,,,,,,,,,,,,,,,,,,,,,,,,,,,c,1428.1452674374368,None,1428.1452674374368,None,a,0,3.1403726564622048,1428.1452674374368,None,l,1,3.523328078958002,1428.1452674374368,None,c,c,1431.7610689927064,None,1431.7610689927064,None,1433.7598272535915,None,None,None,None,None,None,None,None,,,,,,,,,,,,,,,,,,79_80Exp,001,2021_May_28_1056,ComputerHuman,2020.1.3,60.00103934495221,
Human.xlsx,h,Sychronize.jpg,Number6.jpg,6,Human,,,,,0,8,8,0,0,0,0,1,,,,,,,,,,,,,,,,,,,,,,,,,1438.7616406225443,None,1438.7616406225443,None,1441.825163068478,None,1441.825163068478,None,1442.2750899627317,None,1442.2750899627317,None,v,6.269131796284455,1442.2750899627317,None,t,6.380170731910766,1442.2750899627317,None,6.269131796284455,6.380170731910766,5.730439323851003,True,False,False,1448.739661743978,None,1448.739661743978,None,1448.739661743978,None,1448.739661743978,None,1448.739661743978,None,1448.739661743978,None,1448.739661743978,None,1448.739661743978,None,1449.7422411354073,None,1449.7422411354073,None,1450.7391860273397,None,1450.7391860273397,None,h,,,,,,,,,,,,,,,,,,,,,,,,,,,,,,,,,,,,,,,,,,,,,,,79_80Exp,001,2021_May_28_1056,ComputerHuman,2020.1.3,60.00103934495221,
Human.xlsx,h,Sychronize.jpg,Number10.jpg,10,Human,,,,,0,8,8,0,0,1,1,8,,,,,,,,,,,,,,,,,,,,,,,,,,,,,1451.789862840917,None,1451.789862840917,None,1452.2393265289497,None,1452.2393265289497,None,v,10.443916119897494,1452.2393265289497,None,t,10.538886547195489,1452.2393265289497,None,10.443916119897494,10.538886547195489,10.35947987937585,True,False,False,1462.8695907682104,None,1462.8695907682104,None,1462.8695907682104,None,1462.8695907682104,None,1462.8695907682104,None,1462.8695907682104,None,1462.8695907682104,None,1462.8695907682104,None,1463.8380805555398,None,1463.8380805555398,None,1464.8358113583045,None,1464.8358113583045,None,h,,,,,,,,,,,,,,,,,,,,,,,,,,,,,,,,,,,,,,,,,,,,,,,79_80Exp,001,2021_May_28_1056,ComputerHuman,2020.1.3,60.00103934495221,
Human.xlsx,h,Sychronize.jpg,Number7.jpg,7,Human,,,,,0,8,8,0,0,2,2,2,,,,,,,,,,,,,,,,,,,,,,,,,,,,,1465.9024742397678,None,1465.9024742397678,None,1466.3524729887258,None,1466.3524729887258,None,v,7.369997196383338,1466.3524729887258,None,t,7.8131341418270495,1466.3524729887258,None,7.369997196383338,7.8131341418270495,7.11658385577561,False,False,False,1474.2502048179863,None,1474.2502048179863,None,1474.2502048179863,None,1474.2502048179863,None,1474.2502048179863,None,1474.2502048179863,None,1474.2502048179863,None,1474.2502048179863,None,1475.2355377971785,None,1475.2355377971785,None,1476.2164699964906,None,1476.2164699964906,None,h,,,,,,,,,,,,,,,,,,,,,,,,,,,,,,,,,,,,,,,,,,,,,,,79_80Exp,001,2021_May_28_1056,ComputerHuman,2020.1.3,60.00103934495221,
Human.xlsx,h,Sychronize.jpg,Number10.jpg,10,Human,,,,,0,8,8,0,0,3,3,9,,,,,,,,,,,,,,,,,,,,,,,,,,,,,1477.2829230878792,None,1477.2829230878792,None,1477.7165367187167,None,1477.7165367187167,None,v,10.272985967161276,1477.7165367187167,None,t,9.035820211830014,1477.7165367187167,None,10.272985967161276,9.035820211830014,9.423552922808751,False,False,False,1488.064042109423,None,1488.064042109423,None,1488.064042109423,None,1488.064042109423,None,1488.064042109423,None,1488.064042109423,None,1488.064042109423,None,1488.064042109423,None,1489.0655295659658,None,1489.0655295659658,None,1490.0631747204884,None,1490.0631747204884,None,h,,,,,,,,,,,,,,,,,,,,,,,,,,,,,,,,,,,,,,,,,,,,,,,79_80Exp,001,2021_May_28_1056,ComputerHuman,2020.1.3,60.00103934495221,
Human.xlsx,h,Sychronize.jpg,Number6.jpg,6,Human,,,,,0,8,8,0,0,4,4,0,,,,,,,,,,,,,,,,,,,,,,,,,,,,,1491.1132840743671,None,1491.1132840743671,None,1491.563430702874,None,1491.563430702874,None,v,6.485368585764718,1491.563430702874,None,t,6.529148310034998,1491.563430702874,None,6.485368585764718,6.529148310034998,5.5582435818045255,True,False,False,1498.1630206819655,None,1498.1630206819655,None,1498.1630206819655,None,1498.1630206819655,None,1498.1630206819655,None,1498.1630206819655,None,1498.1630206819655,None,1498.1630206819655,None,1499.1465617844606,None,1499.1465617844606,None,1500.1607720146458,None,1500.1607720146458,None,h,,,,,,,,,,,,,,,,,,,,,,,,,,,,,,,,,,,,,,,,,,,,,,,79_80Exp,001,2021_May_28_1056,ComputerHuman,2020.1.3,60.00103934495221,
Human.xlsx,h,Sychronize.jpg,Number8.jpg,8,Human,,,,,0,8,8,0,0,5,5,4,,,,,,,,,,,,,,,,,,,,,,,,,,,,,1501.2110080765974,None,1501.2110080765974,None,1501.6609208565337,None,1501.6609208565337,None,v,8.051066561194148,1501.6609208565337,None,t,8.921909012697142,1501.6609208565337,None,8.051066561194148,8.921909012697142,8.196736219611914,False,False,False,1510.67493990188,None,1510.67493990188,None,1510.67493990188,None,1510.67493990188,None,1510.67493990188,None,1510.67493990188,None,1510.67493990188,None,1510.67493990188,None,1511.6437485444612,None,1511.6437485444612,None,1512.6411309802202,None,1512.6411309802202,None,h,,,,,,,,,,,,,,,,,,,,,,,,,,,,,,,,,,,,,,,,,,,,,,,79_80Exp,001,2021_May_28_1056,ComputerHuman,2020.1.3,60.00103934495221,
Human.xlsx,h,Sychronize.jpg,Number9.jpg,9,Human,,,,,0,8,8,0,0,6,6,7,,,,,,,,,,,,,,,,,,,,,,,,,,,,,1513.7081598715854,None,1513.7081598715854,None,1514.1410116500856,None,1514.1410116500856,None,v,9.358089845326504,1514.1410116500856,None,t,8.792938799680087,1514.1410116500856,None,9.358089845326504,8.792938799680087,9.080535891042569,False,False,False,1523.5885423182508,None,1523.5885423182508,None,1523.5885423182508,None,1523.5885423182508,None,1523.5885423182508,None,1523.5885423182508,None,1523.5885423182508,None,1523.5885423182508,None,1524.573829105133,None,1524.573829105133,None,1525.5547484732479,None,1525.5547484732479,None,h,,,,,,,,,,,,,,,,,,,,,,,,,,,,,,,,,,,,,,,,,,,,,,,79_80Exp,001,2021_May_28_1056,ComputerHuman,2020.1.3,60.00103934495221,
Human.xlsx,h,Sychronize.jpg,Number8.jpg,8,Human,,,,,0,8,8,0,0,7,7,5,,,,,,,,,,,,,,,,,,,,,,,,,,,,,1526.6219021480065,None,1526.6219021480065,None,1527.0545730066256,None,1527.0545730066256,None,v,8.215642063487394,1527.0545730066256,None,t,8.43490412850224,1527.0545730066256,None,8.215642063487394,8.43490412850224,8.342719014921482,True,False,False,1535.5705305250976,None,1535.5705305250976,None,1535.5705305250976,None,1535.5705305250976,None,1535.5705305250976,None,1535.5705305250976,None,1535.5705305250976,None,1535.5705305250976,None,1536.5706296460962,None,1536.5706296460962,None,1537.568543614202,None,1537.568543614202,None,h,,,,,,,,,,,,,,,,,,,,,,,,,,,,,,,,,,,,,,,,,,,,,,,79_80Exp,001,2021_May_28_1056,ComputerHuman,2020.1.3,60.00103934495221,
Human.xlsx,h,Sychronize.jpg,Number7.jpg,7,Human,,,,,0,8,8,0,0,8,8,3,,,,,,,,,,,,,,,,,,,,,,,,,,,,,1538.6189121582652,None,1538.6189121582652,None,1539.0684027918119,None,1539.0684027918119,None,v,6.965112936990408,1539.0684027918119,None,t,7.744033653664246,1539.0684027918119,None,6.965112936990408,7.744033653664246,6.493638427275462,False,False,False,1546.86753200261,None,1546.86753200261,None,1546.86753200261,None,1546.86753200261,None,1546.86753200261,None,1546.86753200261,None,1546.86753200261,None,1546.86753200261,None,1547.8685196840192,None,1547.8685196840192,None,1548.8657898468018,None,1548.8657898468018,None,h,,,,,,,,,,,,,,,,,,,,,,,,,,,,,,,,,,,,,,,,,,,,,,,79_80Exp,001,2021_May_28_1056,ComputerHuman,2020.1.3,60.00103934495221,
Human.xlsx,h,Sychronize.jpg,Number9.jpg,9,Human,,,,,0,8,8,0,0,9,9,6,,,,,,,,,,,,,,,,,,,,,,,,,,,,,1549.9334311070565,None,1549.9334311070565,None,1550.382665758218,None,1550.382665758218,None,v,8.769974485163857,1550.382665758218,None,t,9.72089355174603,1550.382665758218,None,8.769974485163857,9.72089355174603,9.081053478672,False,False,False,1560.1964915015774,None,1560.1964915015774,None,1560.1964915015774,None,1560.1964915015774,None,1560.1964915015774,None,1560.1964915015774,None,1560.1964915015774,None,1560.1964915015774,None,1561.1653290143527,None,1561.1653290143527,None,1562.1628224399678,None,1562.1628224399678,None,h,,,,,,,,,,,,,,,,,,,,,,,,,,,,,,,,,,,,,,,,,,,,,,,79_80Exp,001,2021_May_28_1056,ComputerHuman,2020.1.3,60.00103934495221,
Human.xlsx,h,,,,,,,,,0,8,8,0,,,,,,,,,,,,,,,,,,,,,,,,,,,,,,,,,,,,,,,,,,,,,,,,,,,,,,,,,,,,,,,,,,,,,,,,,,,,,,,h,1563.162976414335,None,1563.162976414335,None,q,0,3.281149174858001,1563.162976414335,None,l,0,3.6923005117723733,1563.162976414335,None,h,c,1566.9452226565581,None,1566.9452226565581,None,1568.944469786059,None,None,None,None,None,None,None,None,,,,,,,,,,,,,,,,,,79_80Exp,001,2021_May_28_1056,ComputerHuman,2020.1.3,60.00103934495221,
Computer.xlsx,c,Sychronize.jpg,Number10.jpg,10,Computer,,,,,0,9,9,7,0,0,0,8,,,,,,,,,,,,,,,,,,,,,,,,,1573.9464028059265,None,1573.9464028059265,None,1577.0098896452882,None,1577.0098896452882,None,1577.4425739766639,None,1577.4425739766639,None,v,10.436074012911831,1577.4425739766639,None,t,11.035895274334052,1577.4425739766639,None,10.436074012911831,11.035895274334052,10.135274136735138,False,False,False,1588.5573625089096,None,1588.5573625089096,None,1588.5573625089096,None,1588.5573625089096,None,1588.5573625089096,None,1588.5573625089096,None,1588.5573625089096,None,1588.5573625089096,None,1589.5894963177675,None,1589.5894963177675,None,1590.572664353202,None,1590.572664353202,None,c,,,,,,,,,,,,,,,,,,,,,,,,,,,,,,,,,,,,,,,,,,,,,,,79_80Exp,001,2021_May_28_1056,ComputerHuman,2020.1.3,60.00103934495221,
Computer.xlsx,c,Sychronize.jpg,Number6.jpg,6,Computer,,,,,0,9,9,7,0,1,1,1,,,,,,,,,,,,,,,,,,,,,,,,,,,,,1591.622927681448,None,1591.622927681448,None,1592.0558901290242,None,1592.0558901290242,None,v,5.9940427958922555,1592.0558901290242,None,t,4.725243648396827,1592.0558901290242,None,5.9940427958922555,4.725243648396827,6.109800119565687,False,True,False,1598.1208772561254,None,1598.1208772561254,None,1598.1208772561254,None,1598.1208772561254,None,1598.1208772561254,None,1598.1208772561254,None,1598.1208772561254,None,1598.1208772561254,None,1599.120495848787,None,1599.120495848787,None,1600.1202680950355,None,1600.1202680950355,None,c,,,,,,,,,,,,,,,,,,,,,,,,,,,,,,,,,,,,,,,,,,,,,,,79_80Exp,001,2021_May_28_1056,ComputerHuman,2020.1.3,60.00103934495221,
Computer.xlsx,c,Sychronize.jpg,Number9.jpg,9,Computer,,,,,0,9,9,7,0,2,2,7,,,,,,,,,,,,,,,,,,,,,,,,,,,,,1601.1702372680843,None,1601.1702372680843,None,1601.6201606337586,None,1601.6201606337586,None,v,9.148885514283847,1601.6201606337586,None,t,10.067889543921865,1601.6201606337586,None,9.148885514283847,10.067889543921865,8.877940284143193,False,True,False,1611.7842787038694,None,1611.7842787038694,None,1611.7842787038694,None,1611.7842787038694,None,1611.7842787038694,None,1611.7842787038694,None,1611.7842787038694,None,1611.7842787038694,None,1612.7671769633816,None,1612.7671769633816,None,1613.7504434782554,None,1613.7504434782554,None,c,,,,,,,,,,,,,,,,,,,,,,,,,,,,,,,,,,,,,,,,,,,,,,,79_80Exp,001,2021_May_28_1056,ComputerHuman,2020.1.3,60.00103934495221,
Computer.xlsx,c,Sychronize.jpg,Number10.jpg,10,Computer,,,,,0,9,9,7,0,3,3,9,,,,,,,,,,,,,,,,,,,,,,,,,,,,,1614.8174582553038,None,1614.8174582553038,None,1615.2503222234413,None,1615.2503222234413,None,v,9.993739338077376,1615.2503222234413,None,t,9.856815386658582,1615.2503222234413,None,9.993739338077376,9.856815386658582,10.15440008047082,False,True,True,1625.3310112074096,None,1625.3310112074096,None,1625.3310112074096,None,1625.3310112074096,None,1625.3310112074096,None,1625.3310112074096,None,1625.3310112074096,None,1625.3310112074096,None,1626.3307969264151,None,1626.3307969264151,None,1627.2972654793962,None,1627.2972654793962,None,c,,,,,,,,,,,,,,,,,,,,,,,,,,,,,,,,,,,,,,,,,,,,,,,79_80Exp,001,2021_May_28_1056,ComputerHuman,2020.1.3,60.00103934495221,
Computer.xlsx,c,Sychronize.jpg,Number7.jpg,7,Computer,,,,,0,9,9,7,0,4,4,3,,,,,,,,,,,,,,,,,,,,,,,,,,,,,1628.3471692133385,None,1628.3471692133385,None,1628.7974082264654,None,1628.7974082264654,None,v,7.193908581568849,1628.7974082264654,None,t,8.25699604991587,1628.7974082264654,None,7.193908581568849,8.25699604991587,7.073407060690701,False,True,False,1637.129345846317,None,1637.129345846317,None,1637.129345846317,None,1637.129345846317,None,1637.129345846317,None,1637.129345846317,None,1637.129345846317,None,1637.129345846317,None,1638.1445979697196,None,1638.1445979697196,None,1639.127711793346,None,1639.127711793346,None,c,,,,,,,,,,,,,,,,,,,,,,,,,,,,,,,,,,,,,,,,,,,,,,,79_80Exp,001,2021_May_28_1056,ComputerHuman,2020.1.3,60.00103934495221,
Computer.xlsx,c,Sychronize.jpg,Number8.jpg,8,Computer,,,,,0,9,9,7,0,5,5,5,,,,,,,,,,,,,,,,,,,,,,,,,,,,,1640.1775202556487,None,1640.1775202556487,None,1640.6275879722925,None,1640.6275879722925,None,v,7.870882548994359,1640.6275879722925,None,t,8.18199160711356,1640.6275879722925,None,7.870882548994359,8.18199160711356,7.655951437486516,False,True,False,1648.8754555876976,None,1648.8754555876976,None,1648.8754555876976,None,1648.8754555876976,None,1648.8754555876976,None,1648.8754555876976,None,1648.8754555876976,None,1648.8754555876976,None,1649.8918150434242,None,1649.8918150434242,None,1650.8749551710048,None,1650.8749551710048,None,c,,,,,,,,,,,,,,,,,,,,,,,,,,,,,,,,,,,,,,,,,,,,,,,79_80Exp,001,2021_May_28_1056,ComputerHuman,2020.1.3,60.00103934495221,
Computer.xlsx,c,Sychronize.jpg,Number8.jpg,8,Computer,,,,,0,9,9,7,0,6,6,4,,,,,,,,,,,,,,,,,,,,,,,,,,,,,1651.9255408830818,None,1651.9255408830818,None,1652.3748079330162,None,1652.3748079330162,None,v,7.6108554495053795,1652.3748079330162,None,t,7.854053792228115,1652.3748079330162,None,7.6108554495053795,7.854053792228115,7.702537374706887,False,True,True,1660.3227382929763,None,1660.3227382929763,None,1660.3227382929763,None,1660.3227382929763,None,1660.3227382929763,None,1660.3227382929763,None,1660.3227382929763,None,1660.3227382929763,None,1661.3058030372727,None,1661.3058030372727,None,1662.2889685064679,None,1662.2889685064679,None,c,,,,,,,,,,,,,,,,,,,,,,,,,,,,,,,,,,,,,,,,,,,,,,,79_80Exp,001,2021_May_28_1056,ComputerHuman,2020.1.3,60.00103934495221,
Computer.xlsx,c,Sychronize.jpg,Number9.jpg,9,Computer,,,,,0,9,9,7,0,7,7,6,,,,,,,,,,,,,,,,,,,,,,,,,,,,,1663.3389415288757,None,1663.3389415288757,None,1663.7889415609538,None,1663.7889415609538,None,v,8.527875455266894,1663.7889415609538,None,t,9.298882531030813,1663.7889415609538,None,8.527875455266894,9.298882531030813,8.846089590554394,False,False,False,1673.1862454697857,None,1673.1862454697857,None,1673.1862454697857,None,1673.1862454697857,None,1673.1862454697857,None,1673.1862454697857,None,1673.1862454697857,None,1673.1862454697857,None,1674.1861014395963,None,1674.1861014395963,None,1675.1525600483992,None,1675.1525600483992,None,c,,,,,,,,,,,,,,,,,,,,,,,,,,,,,,,,,,,,,,,,,,,,,,,79_80Exp,001,2021_May_28_1056,ComputerHuman,2020.1.3,60.00103934495221,
Computer.xlsx,c,Sychronize.jpg,Number7.jpg,7,Computer,,,,,0,9,9,7,0,8,8,2,,,,,,,,,,,,,,,,,,,,,,,,,,,,,1676.2196492463918,None,1676.2196492463918,None,1676.652595334192,None,1676.652595334192,None,v,6.459487419332163,1676.652595334192,None,t,7.0950701898568695,1676.652595334192,None,6.459487419332163,7.0950701898568695,7.010546596105485,False,False,True,1683.833850430583,None,1683.833850430583,None,1683.833850430583,None,1683.833850430583,None,1683.833850430583,None,1683.833850430583,None,1683.833850430583,None,1683.833850430583,None,1684.8336047131556,None,1684.8336047131556,None,1685.8166251898215,None,1685.8166251898215,None,c,,,,,,,,,,,,,,,,,,,,,,,,,,,,,,,,,,,,,,,,,,,,,,,79_80Exp,001,2021_May_28_1056,ComputerHuman,2020.1.3,60.00103934495221,
Computer.xlsx,c,Sychronize.jpg,Number6.jpg,6,Computer,,,,,0,9,9,7,0,9,9,0,,,,,,,,,,,,,,,,,,,,,,,,,,,,,1686.866557152398,None,1686.866557152398,None,1687.3167679368912,None,1687.3167679368912,None,v,5.3306958807365845,1687.3167679368912,None,t,6.374092272988946,1687.3167679368912,None,5.3306958807365845,6.374092272988946,5.919613932338634,False,False,False,1693.7814612937314,None,1693.7814612937314,None,1693.7814612937314,None,1693.7814612937314,None,1693.7814612937314,None,1693.7814612937314,None,1693.7814612937314,None,1693.7814612937314,None,1694.7645452848237,None,1694.7645452848237,None,1695.7476613539097,None,1695.7476613539097,None,c,,,,,,,,,,,,,,,,,,,,,,,,,,,,,,,,,,,,,,,,,,,,,,,79_80Exp,001,2021_May_28_1056,ComputerHuman,2020.1.3,60.00103934495221,
Computer.xlsx,c,,,,,,,,,0,9,9,7,,,,,,,,,,,,,,,,,,,,,,,,,,,,,,,,,,,,,,,,,,,,,,,,,,,,,,,,,,,,,,,,,,,,,,,,,,,,,,,c,1696.7487257017224,None,1696.7487257017224,None,a,1,2.742253325044203,1696.7487257017224,None,l,0,1.7734462863627414,1696.7487257017224,None,c,c,1699.5802796687758,None,1699.5802796687758,None,None,None,1701.5796085971588,None,1701.5796085971588,None,"['space', 'space']",1702.5627795196128,None,"[310.04662055134395, 321.6578218016157]",,,,,,,,,,,,,,,,,79_80Exp,001,2021_May_28_1056,ComputerHuman,2020.1.3,60.00103934495221,
Computer.xlsx,c,Sychronize.jpg,Number9.jpg,9,Computer,,,,,1,0,10,7,0,0,0,6,,,,,,,,,,,,,,,,,,,,,,,,,2024.289372368402,None,2024.289372368402,None,2027.3527485386871,None,2027.3527485386871,None,2027.7859204555589,None,2027.7859204555589,None,v,8.481811457104413,2027.7859204555589,None,t,8.76495331689648,2027.7859204555589,None,8.481811457104413,8.76495331689648,9.54487466144584,False,False,False,2036.6332535874426,None,2036.6332535874426,None,2036.6332535874426,None,2036.6332535874426,None,2036.6332535874426,None,2036.6332535874426,None,2036.6332535874426,None,2036.6332535874426,None,2037.6498055111279,None,2037.6498055111279,None,2038.6329414685692,None,2038.6329414685692,None,c,,,,,,,,,,,,,,,,,,,,,,,,,,,,,,,,,,,,,,,,,,,,,,,79_80Exp,001,2021_May_28_1056,ComputerHuman,2020.1.3,60.00103934495221,
Computer.xlsx,c,Sychronize.jpg,Number10.jpg,10,Computer,,,,,1,0,10,7,0,1,1,8,,,,,,,,,,,,,,,,,,,,,,,,,,,,,2039.683312258092,None,2039.683312258092,None,2040.1330078700148,None,2040.1330078700148,None,v,9.253937413268886,2040.1330078700148,None,t,9.213043746042331,2040.1330078700148,None,9.253937413268886,9.213043746042331,10.351596092616319,False,False,False,2049.465220398268,None,2049.465220398268,None,2049.465220398268,None,2049.465220398268,None,2049.465220398268,None,2049.465220398268,None,2049.465220398268,None,2049.465220398268,None,2050.480068018177,None,2050.480068018177,None,2051.463190823641,None,2051.463190823641,None,c,,,,,,,,,,,,,,,,,,,,,,,,,,,,,,,,,,,,,,,,,,,,,,,79_80Exp,001,2021_May_28_1056,ComputerHuman,2020.1.3,60.00103934495221,
Computer.xlsx,c,Sychronize.jpg,Number7.jpg,7,Computer,,,,,1,0,10,7,0,2,2,2,,,,,,,,,,,,,,,,,,,,,,,,,,,,,2052.513115408279,None,2052.513115408279,None,2052.963214561356,None,2052.963214561356,None,v,6.215025524459179,2052.963214561356,None,t,7.01813304796724,2052.963214561356,None,6.215025524459179,7.01813304796724,6.932635235451306,False,False,True,2060.0777009189064,None,2060.0777009189064,None,2060.0777009189064,None,2060.0777009189064,None,2060.0777009189064,None,2060.0777009189064,None,2060.0777009189064,None,2060.0777009189064,None,2061.0609029570137,None,2061.0609029570137,None,2062.0440434053744,None,2062.0440434053744,None,c,,,,,,,,,,,,,,,,,,,,,,,,,,,,,,,,,,,,,,,,,,,,,,,79_80Exp,001,2021_May_28_1056,ComputerHuman,2020.1.3,60.00103934495221,
Computer.xlsx,c,Sychronize.jpg,Number7.jpg,7,Computer,,,,,1,0,10,7,0,3,3,3,,,,,,,,,,,,,,,,,,,,,,,,,,,,,2063.094393985761,None,2063.094393985761,None,2063.544241005812,None,2063.544241005812,None,v,6.2652182811198145,2063.544241005812,None,t,7.412027066127848,2063.544241005812,None,6.2652182811198145,7.412027066127848,6.700441398939386,False,False,False,2071.026443493653,None,2071.026443493653,None,2071.026443493653,None,2071.026443493653,None,2071.026443493653,None,2071.026443493653,None,2071.026443493653,None,2071.026443493653,None,2072.041605798675,None,2072.041605798675,None,2073.0247154521617,None,2073.0247154521617,None,c,,,,,,,,,,,,,,,,,,,,,,,,,,,,,,,,,,,,,,,,,,,,,,,79_80Exp,001,2021_May_28_1056,ComputerHuman,2020.1.3,60.00103934495221,
Computer.xlsx,c,Sychronize.jpg,Number9.jpg,9,Computer,,,,,1,0,10,7,0,4,4,7,,,,,,,,,,,,,,,,,,,,,,,,,,,,,2074.0746461316185,None,2074.0746461316185,None,2074.5245560245357,None,2074.5245560245357,None,v,8.020064143154741,2074.5245560245357,None,t,9.514883547261434,2074.5245560245357,None,8.020064143154741,9.514883547261434,9.251928858513478,False,False,True,2084.1063577940863,None,2084.1063577940863,None,2084.1063577940863,None,2084.1063577940863,None,2084.1063577940863,None,2084.1063577940863,None,2084.1063577940863,None,2084.1063577940863,None,2085.121750419099,None,2085.121750419099,None,2086.1049758741415,None,2086.1049758741415,None,c,,,,,,,,,,,,,,,,,,,,,,,,,,,,,,,,,,,,,,,,,,,,,,,79_80Exp,001,2021_May_28_1056,ComputerHuman,2020.1.3,60.00103934495221,
Computer.xlsx,c,Sychronize.jpg,Number6.jpg,6,Computer,,,,,1,0,10,7,0,5,5,1,,,,,,,,,,,,,,,,,,,,,,,,,,,,,2087.1546419101546,None,2087.1546419101546,None,2087.6050028196555,None,2087.6050028196555,None,v,5.4628748554087,2087.6050028196555,None,t,6.094110095521955,2087.6050028196555,None,5.4628748554087,6.094110095521955,5.570514348496258,False,True,False,2093.786359924065,None,2093.786359924065,None,2093.786359924065,None,2093.786359924065,None,2093.786359924065,None,2093.786359924065,None,2093.786359924065,None,2093.786359924065,None,2094.769537262118,None,2094.769537262118,None,2095.7527091469115,None,2095.7527091469115,None,c,,,,,,,,,,,,,,,,,,,,,,,,,,,,,,,,,,,,,,,,,,,,,,,79_80Exp,001,2021_May_28_1056,ComputerHuman,2020.1.3,60.00103934495221,
Computer.xlsx,c,Sychronize.jpg,Number6.jpg,6,Computer,,,,,1,0,10,7,0,6,6,0,,,,,,,,,,,,,,,,,,,,,,,,,,,,,2096.8029580400603,None,2096.8029580400603,None,2097.253002018989,None,2097.253002018989,None,v,5.398455508785446,2097.253002018989,None,t,6.121208621794722,2097.253002018989,None,5.398455508785446,6.121208621794722,5.90544641651524,False,False,True,2103.467517182577,None,2103.467517182577,None,2103.467517182577,None,2103.467517182577,None,2103.467517182577,None,2103.467517182577,None,2103.467517182577,None,2103.467517182577,None,2104.467185816908,None,2104.467185816908,None,2105.450347757524,None,2105.450347757524,None,c,,,,,,,,,,,,,,,,,,,,,,,,,,,,,,,,,,,,,,,,,,,,,,,79_80Exp,001,2021_May_28_1056,ComputerHuman,2020.1.3,60.00103934495221,
Computer.xlsx,c,Sychronize.jpg,Number10.jpg,10,Computer,,,,,1,0,10,7,0,7,7,9,,,,,,,,,,,,,,,,,,,,,,,,,,,,,2106.5002604733045,None,2106.5002604733045,None,2106.950524507266,None,2106.950524507266,None,v,9.071968581530655,2106.950524507266,None,t,9.750880380522176,2106.950524507266,None,9.071968581530655,9.750880380522176,10.419870730770345,False,False,False,2116.7976812101874,None,2116.7976812101874,None,2116.7976812101874,None,2116.7976812101874,None,2116.7976812101874,None,2116.7976812101874,None,2116.7976812101874,None,2116.7976812101874,None,2117.797495157827,None,2117.797495157827,None,2118.780535522849,None,2118.780535522849,None,c,,,,,,,,,,,,,,,,,,,,,,,,,,,,,,,,,,,,,,,,,,,,,,,79_80Exp,001,2021_May_28_1056,ComputerHuman,2020.1.3,60.00103934495221,
Computer.xlsx,c,Sychronize.jpg,Number8.jpg,8,Computer,,,,,1,0,10,7,0,8,8,5,,,,,,,,,,,,,,,,,,,,,,,,,,,,,2119.81433931203,None,2119.81433931203,None,2120.280474253882,None,2120.280474253882,None,v,7.705072364744865,2120.280474253882,None,t,8.463967752635199,2120.280474253882,None,7.705072364744865,8.463967752635199,8.486862305776036,False,False,True,2128.8281453595014,None,2128.8281453595014,None,2128.8281453595014,None,2128.8281453595014,None,2128.8281453595014,None,2128.8281453595014,None,2128.8281453595014,None,2128.8281453595014,None,2129.8112591831277,None,2129.8112591831277,None,2130.7943434950002,None,2130.7943434950002,None,c,,,,,,,,,,,,,,,,,,,,,,,,,,,,,,,,,,,,,,,,,,,,,,,79_80Exp,001,2021_May_28_1056,ComputerHuman,2020.1.3,60.00103934495221,
Computer.xlsx,c,Sychronize.jpg,Number8.jpg,8,Computer,,,,,1,0,10,7,0,9,9,4,,,,,,,,,,,,,,,,,,,,,,,,,,,,,2131.845082539884,None,2131.845082539884,None,2132.2946373294176,None,2132.2946373294176,None,v,7.638203863345552,2132.2946373294176,None,t,7.67701631037653,2132.2946373294176,None,7.638203863345552,7.67701631037653,7.527688976424615,False,True,True,2140.042910410656,None,2140.042910410656,None,2140.042910410656,None,2140.042910410656,None,2140.042910410656,None,2140.042910410656,None,2140.042910410656,None,2140.042910410656,None,2141.041261922588,None,2141.041261922588,None,2142.0416641806223,None,2142.0416641806223,None,c,,,,,,,,,,,,,,,,,,,,,,,,,,,,,,,,,,,,,,,,,,,,,,,79_80Exp,001,2021_May_28_1056,ComputerHuman,2020.1.3,60.00103934495221,
Computer.xlsx,c,,,,,,,,,1,0,10,7,,,,,,,,,,,,,,,,,,,,,,,,,,,,,,,,,,,,,,,,,,,,,,,,,,,,,,,,,,,,,,,,,,,,,,,,,,,,,,,c,2143.0260489343373,None,2143.0260489343373,None,q,0,3.7221927104683346,2143.0260489343373,None,o,0,2.349383877985474,2143.0260489343373,None,h,h,2146.840696195101,None,2146.840696195101,None,2148.823425403589,None,None,None,None,None,None,None,None,,,,,,,,,,,,,,,,,,79_80Exp,001,2021_May_28_1056,ComputerHuman,2020.1.3,60.00103934495221,
Human.xlsx,h,Sychronize.jpg,Number7.jpg,7,Human,,,,,1,1,11,6,0,0,0,3,,,,,,,,,,,,,,,,,,,,,,,,,2153.841284826275,None,2153.841284826275,None,2156.9049153750466,None,2156.9049153750466,None,2157.3547607911974,None,2157.3547607911974,None,v,6.3483637978033585,2157.3547607911974,None,t,6.079108501245628,2157.3547607911974,None,6.3483637978033585,6.079108501245628,7.480472952211991,True,False,False,2163.7699324629934,None,2163.7699324629934,None,2163.7699324629934,None,2163.7699324629934,None,2163.7699324629934,None,2163.7699324629934,None,2163.7699324629934,None,2163.7699324629934,None,2164.7720569884796,None,2164.7720569884796,None,2165.769353134437,None,2165.769353134437,None,h,,,,,,,,,,,,,,,,,,,,,,,,,,,,,,,,,,,,,,,,,,,,,,,79_80Exp,001,2021_May_28_1056,ComputerHuman,2020.1.3,60.00103934495221,
Human.xlsx,h,Sychronize.jpg,Number9.jpg,9,Human,,,,,1,1,11,6,0,1,1,6,,,,,,,,,,,,,,,,,,,,,,,,,,,,,2166.8362867541628,None,2166.8362867541628,None,2167.286345488968,None,2167.286345488968,None,v,8.331797439021557,2167.286345488968,None,t,9.122918058049436,2167.286345488968,None,8.331797439021557,9.122918058049436,8.64270314859396,False,False,False,2176.500144350969,None,2176.500144350969,None,2176.500144350969,None,2176.500144350969,None,2176.500144350969,None,2176.500144350969,None,2176.500144350969,None,2176.500144350969,None,2177.468885950545,None,2177.468885950545,None,2178.4663700735423,None,2178.4663700735423,None,h,,,,,,,,,,,,,,,,,,,,,,,,,,,,,,,,,,,,,,,,,,,,,,,79_80Exp,001,2021_May_28_1056,ComputerHuman,2020.1.3,60.00103934495221,
Human.xlsx,h,Sychronize.jpg,Number6.jpg,6,Human,,,,,1,1,11,6,0,2,2,0,,,,,,,,,,,,,,,,,,,,,,,,,,,,,2179.499425803923,None,2179.499425803923,None,2179.966530784288,None,2179.966530784288,None,v,5.498937256087174,2179.966530784288,None,t,6.1020971950360945,2179.966530784288,None,5.498937256087174,6.1020971950360945,6.226153905636888,False,False,False,2186.1492390137687,None,2186.1492390137687,None,2186.1492390137687,None,2186.1492390137687,None,2186.1492390137687,None,2186.1492390137687,None,2186.1492390137687,None,2186.1492390137687,None,2187.150343779853,None,2187.150343779853,None,2188.1474038317806,None,2188.1474038317806,None,h,,,,,,,,,,,,,,,,,,,,,,,,,,,,,,,,,,,,,,,,,,,,,,,79_80Exp,001,2021_May_28_1056,ComputerHuman,2020.1.3,60.00103934495221,
Human.xlsx,h,Sychronize.jpg,Number8.jpg,8,Human,,,,,1,1,11,6,0,3,3,4,,,,,,,,,,,,,,,,,,,,,,,,,,,,,2189.1975356402545,None,2189.1975356402545,None,2189.647667192104,None,2189.647667192104,None,v,7.469061096387122,2189.647667192104,None,t,7.936072729792613,2189.647667192104,None,7.469061096387122,7.936072729792613,8.104130020545849,False,False,False,2197.645683809788,None,2197.645683809788,None,2197.645683809788,None,2197.645683809788,None,2197.645683809788,None,2197.645683809788,None,2197.645683809788,None,2197.645683809788,None,2198.647883397778,None,2198.647883397778,None,2199.66140683813,None,2199.66140683813,None,h,,,,,,,,,,,,,,,,,,,,,,,,,,,,,,,,,,,,,,,,,,,,,,,79_80Exp,001,2021_May_28_1056,ComputerHuman,2020.1.3,60.00103934495221,
Human.xlsx,h,Sychronize.jpg,Number10.jpg,10,Human,,,,,1,1,11,6,0,4,4,9,,,,,,,,,,,,,,,,,,,,,,,,,,,,,2200.711866162914,None,2200.711866162914,None,2201.1615563215782,None,2201.1615563215782,None,v,9.630374266776926,2201.1615563215782,None,t,9.121916583103484,2201.1615563215782,None,9.630374266776926,9.121916583103484,10.446857767845609,False,False,False,2210.8752227014675,None,2210.8752227014675,None,2210.8752227014675,None,2210.8752227014675,None,2210.8752227014675,None,2210.8752227014675,None,2210.8752227014675,None,2210.8752227014675,None,2211.8445352893214,None,2211.8445352893214,None,2212.8415254112238,None,2212.8415254112238,None,h,,,,,,,,,,,,,,,,,,,,,,,,,,,,,,,,,,,,,,,,,,,,,,,79_80Exp,001,2021_May_28_1056,ComputerHuman,2020.1.3,60.00103934495221,
Human.xlsx,h,Sychronize.jpg,Number9.jpg,9,Human,,,,,1,1,11,6,0,5,5,7,,,,,,,,,,,,,,,,,,,,,,,,,,,,,2213.8920296451984,None,2213.8920296451984,None,2214.3417512402957,None,2214.3417512402957,None,v,8.557192816325824,2214.3417512402957,None,t,9.023933711468544,2214.3417512402957,None,8.557192816325824,9.023933711468544,8.386073803635313,False,False,False,2223.455623304277,None,2223.455623304277,None,2223.455623304277,None,2223.455623304277,None,2223.455623304277,None,2223.455623304277,None,2223.455623304277,None,2223.455623304277,None,2224.4405521007557,None,2224.4405521007557,None,2225.4218932944805,None,2225.4218932944805,None,h,,,,,,,,,,,,,,,,,,,,,,,,,,,,,,,,,,,,,,,,,,,,,,,79_80Exp,001,2021_May_28_1056,ComputerHuman,2020.1.3,60.00103934495221,
Human.xlsx,h,Sychronize.jpg,Number10.jpg,10,Human,,,,,1,1,11,6,0,6,6,8,,,,,,,,,,,,,,,,,,,,,,,,,,,,,2226.4888352544845,None,2226.4888352544845,None,2226.9219013139787,None,2226.9219013139787,None,v,9.464100555526784,2226.9219013139787,None,t,10.358792353375975,2226.9219013139787,None,9.464100555526784,10.358792353375975,10.52435398102753,False,False,False,2237.35315657076,None,2237.35315657076,None,2237.35315657076,None,2237.35315657076,None,2237.35315657076,None,2237.35315657076,None,2237.35315657076,None,2237.35315657076,None,2238.3546988806706,None,2238.3546988806706,None,2239.351933436881,None,2239.351933436881,None,h,,,,,,,,,,,,,,,,,,,,,,,,,,,,,,,,,,,,,,,,,,,,,,,79_80Exp,001,2021_May_28_1056,ComputerHuman,2020.1.3,60.00103934495221,
Human.xlsx,h,Sychronize.jpg,Number8.jpg,8,Human,,,,,1,1,11,6,0,7,7,5,,,,,,,,,,,,,,,,,,,,,,,,,,,,,2240.4020925116492,None,2240.4020925116492,None,2240.8521470763158,None,2240.8521470763158,None,v,7.625070812169724,2240.8521470763158,None,t,7.83605579261166,2240.8521470763158,None,7.625070812169724,7.83605579261166,7.613757761357131,True,False,False,2248.7513419828433,None,2248.7513419828433,None,2248.7513419828433,None,2248.7513419828433,None,2248.7513419828433,None,2248.7513419828433,None,2248.7513419828433,None,2248.7513419828433,None,2249.7682239890783,None,2249.7682239890783,None,2250.765809478534,None,2250.765809478534,None,h,,,,,,,,,,,,,,,,,,,,,,,,,,,,,,,,,,,,,,,,,,,,,,,79_80Exp,001,2021_May_28_1056,ComputerHuman,2020.1.3,60.00103934495221,
Human.xlsx,h,Sychronize.jpg,Number6.jpg,6,Human,,,,,1,1,11,6,0,8,8,1,,,,,,,,,,,,,,,,,,,,,,,,,,,,,2251.83273956968,None,2251.83273956968,None,2252.265900580034,None,2252.265900580034,None,v,5.726612737144478,2252.265900580034,None,t,6.326092047159818,2252.265900580034,None,5.726612737144478,6.326092047159818,6.115973523798266,False,False,False,2258.6806792964144,None,2258.6806792964144,None,2258.6806792964144,None,2258.6806792964144,None,2258.6806792964144,None,2258.6806792964144,None,2258.6806792964144,None,2258.6806792964144,None,2259.6494831272967,None,2259.6494831272967,None,2260.6468277110234,None,2260.6468277110234,None,h,,,,,,,,,,,,,,,,,,,,,,,,,,,,,,,,,,,,,,,,,,,,,,,79_80Exp,001,2021_May_28_1056,ComputerHuman,2020.1.3,60.00103934495221,
Human.xlsx,h,Sychronize.jpg,Number7.jpg,7,Human,,,,,1,1,11,6,0,9,9,2,,,,,,,,,,,,,,,,,,,,,,,,,,,,,2261.680362045062,None,2261.680362045062,None,2262.147050973856,None,2262.147050973856,None,v,6.676734665596541,2262.147050973856,None,t,6.164099464874653,2262.147050973856,None,6.676734665596541,6.164099464874653,7.358373971106962,False,False,False,2268.9116517536077,None,2268.9116517536077,None,2268.9116517536077,None,2268.9116517536077,None,2268.9116517536077,None,2268.9116517536077,None,2268.9116517536077,None,2268.9116517536077,None,2269.896676142506,None,2269.896676142506,None,2270.8944149647687,None,2270.8944149647687,None,h,,,,,,,,,,,,,,,,,,,,,,,,,,,,,,,,,,,,,,,,,,,,,,,79_80Exp,001,2021_May_28_1056,ComputerHuman,2020.1.3,60.00103934495221,
Human.xlsx,h,,,,,,,,,1,1,11,6,,,,,,,,,,,,,,,,,,,,,,,,,,,,,,,,,,,,,,,,,,,,,,,,,,,,,,,,,,,,,,,,,,,,,,,,,,,,,,,h,2271.895134794935,None,2271.895134794935,None,q,1,3.4041618629871664,2271.895134794935,None,o,0,2.047373742622767,2271.895134794935,None,h,h,2275.377216348742,None,2275.377216348742,None,2277.376202684158,None,None,None,None,None,None,None,None,,,,,,,,,,,,,,,,,,79_80Exp,001,2021_May_28_1056,ComputerHuman,2020.1.3,60.00103934495221,
