Condition,CorrectTuringReply,Sychronize,NumberImage,Number,Partner,trials.thisRepN,trials.thisTrialN,trials.thisN,trials.thisIndex,Block.thisRepN,Block.thisTrialN,Block.thisN,Block.thisIndex,trials_loop.thisRepN,trials_loop.thisTrialN,trials_loop.thisN,trials_loop.thisIndex,key_resp_Istr.keys,key_resp_Istr.rt,key_resp_Istr.started,key_resp_Istr.stopped,key_respPrLeft.keys,key_respPrLeft.rt,key_respPrRight.keys,key_respPrRight.rt,RTPrLeft,RTPrRight,CompPr,SychronizedRTsPr,SychronizedRTsLeftCPr,SychronizedRTsRightCPr,CreditLeftPr.started,CreditLeftPr.stopped,CreditRightPr.started,CreditRightPr.stopped,text_StartExp.started,text_StartExp.stopped,key_startExp.keys,key_startExp.rt,key_startExp.started,key_startExp.stopped,SychroLeft.started,SychroLeft.stopped,SychroRight.started,SychroRight.stopped,NumberLeft.started,NumberLeft.stopped,NumberRight.started,NumberRight.stopped,CrossLeft.started,CrossLeft.stopped,CrossRight.started,CrossRight.stopped,key_respLeft.keys,key_respLeft.rt,key_respLeft.started,key_respLeft.stopped,key_respRight.keys,key_respRight.rt,key_respRight.started,key_respRight.stopped,RTLeft,RTRight,Comp,SychronizedRTs,SychronizedRTsLeftC,SychronizedRTsRightC,FeedbackLeftLeft.started,FeedbackLeftLeft.stopped,FeedbackLeftRight.started,FeedbackLeftRight.stopped,FeedbackRightLeft.started,FeedbackRightLeft.stopped,FeedbackRightRight.started,FeedbackRightRight.stopped,textLeftLeft.started,textLeftLeft.stopped,textLeftRight.started,textLeftRight.stopped,textRightLeft.started,textRightLeft.stopped,textRightRight.started,textRightRight.stopped,CreditLeft.started,CreditLeft.stopped,CreditRight.started,CreditRight.stopped,BlankLeft.started,BlankLeft.stopped,BlankRight.started,BlankRight.stopped,CorrectTuringReply,TuringtextLeft.started,TuringtextLeft.stopped,TuringtextRight.started,TuringtextRight.stopped,keyTuringLeft.keys,keyTuringLeft.corr,keyTuringLeft.rt,keyTuringLeft.started,keyTuringLeft.stopped,keyTuringRight.keys,keyTuringRight.corr,keyTuringRight.rt,keyTuringRight.started,keyTuringRight.stopped,RespTuringLeft,RespTuringRight,ScoreLeft.started,ScoreLeft.stopped,ScoreRight.started,ScoreRight.stopped,BlockText.started,BlockText.stopped,text_Pause.started,text_Pause.stopped,text_LongPause.started,text_LongPause.stopped,key_respPause.keys,key_respPause.started,key_respPause.stopped,key_respPause.rt,QuestImageLeft.started,QuestImageLeft.stopped,QuestImageRight.started,QuestImageRight.stopped,respQuestLeft.keys,respQuestLeft.rt,respQuestLeft.started,respQuestLeft.stopped,respQuestRight.keys,respQuestRight.rt,respQuestRight.started,respQuestRight.stopped,RespInclusionLeft,RespInclusionRight,EndText.started,EndText.stopped,participant,session,date,expName,psychopyVersion,frameRate,
,,,,,,,,,,,,,,,,,,"['t', 't', 'v']","[65.11071564336089, 317.08834186378226, 319.4161327317379]",18.020476924484683,None,,,,,,,,,,,,,,,,,,,,,,,,,,,,,,,,,,,,,,,,,,,,,,,,,,,,,,,,,,,,,,,,,,,,,,,,,,,,,,,,,,,,,,,,,,,,,,,,,,,,,,,,,,,,,,,,,,,,,,7_8Exp,001,2021_Apr_26_1501,ComputerHuman,2020.1.3,59.997247713127976,
,,,,,,,,,,,,,,,,,,,,,,v,7.568320627218782,t,3.4322378751894576,7.568320627218782,3.4322378751894576,7,False,False,False,398.14621984335463,None,398.14621984335463,None,399.16284338995683,None,"['space', 'space']","[77.98707585014563, 79.27108282420886]",400.1459718695696,None,,,,,,,,,,,,,,,,,,,,,,,,,,,,,,,,,,,,,,,,,,,,,,,,,,,,,,,,,,,,,,,,,,,,,,,,,,,,,,,,,,,,,,,,,,,,,,,,,,7_8Exp,001,2021_Apr_26_1501,ComputerHuman,2020.1.3,59.997247713127976,
Human.xlsx,h,Sychronize.jpg,Number6.jpg,6,Human,,,,,0,0,0,6,0,0,0,0,,,,,,,,,,,,,,,,,,,,,,,,,479.4838161016123,None,479.4838161016123,None,482.5306690319885,None,482.5306690319885,None,482.9967609426858,None,482.9967609426858,None,v,5.712025445383915,482.9967609426858,None,t,4.003270815926953,482.9967609426858,None,5.712025445383915,4.003270815926953,6.108050600318601,False,False,False,488.76291107749785,None,488.76291107749785,None,488.76291107749785,None,488.76291107749785,None,488.76291107749785,None,488.76291107749785,None,488.76291107749785,None,488.76291107749785,None,489.76505269843983,None,489.76505269843983,None,490.76190057630447,None,490.76190057630447,None,h,,,,,,,,,,,,,,,,,,,,,,,,,,,,,,,,,,,,,,,,,,,,,,,7_8Exp,001,2021_Apr_26_1501,ComputerHuman,2020.1.3,59.997247713127976,
Human.xlsx,h,Sychronize.jpg,Number9.jpg,9,Human,,,,,0,0,0,6,0,1,1,6,,,,,,,,,,,,,,,,,,,,,,,,,,,,,491.7955595690437,None,491.7955595690437,None,492.262225059465,None,492.262225059465,None,v,9.322287325590878,492.262225059465,None,t,1.7942978861283336,492.262225059465,None,9.322287325590878,1.7942978861283336,8.547062580591994,False,False,False,501.6601998867591,None,501.6601998867591,None,501.6601998867591,None,501.6601998867591,None,501.6601998867591,None,501.6601998867591,None,501.6601998867591,None,501.6601998867591,None,502.66208006056695,None,502.66208006056695,None,503.65921184114995,None,503.65921184114995,None,h,,,,,,,,,,,,,,,,,,,,,,,,,,,,,,,,,,,,,,,,,,,,,,,7_8Exp,001,2021_Apr_26_1501,ComputerHuman,2020.1.3,59.997247713127976,
Human.xlsx,h,Sychronize.jpg,Number6.jpg,6,Human,,,,,0,0,0,6,0,2,2,1,,,,,,,,,,,,,,,,,,,,,,,,,,,,,504.6767284783273,None,504.6767284783273,None,505.1422833798206,None,505.1422833798206,None,v,6.297945474638254,505.1422833798206,None,t,4.713193456442241,505.1422833798206,None,6.297945474638254,4.713193456442241,6.202833208578765,False,False,False,511.4917945699199,None,511.4917945699199,None,511.4917945699199,None,511.4917945699199,None,511.4917945699199,None,511.4917945699199,None,511.4917945699199,None,511.4917945699199,None,512.4929625809782,None,512.4929625809782,None,513.4906291252119,None,513.4906291252119,None,h,,,,,,,,,,,,,,,,,,,,,,,,,,,,,,,,,,,,,,,,,,,,,,,7_8Exp,001,2021_Apr_26_1501,ComputerHuman,2020.1.3,59.997247713127976,
Human.xlsx,h,Sychronize.jpg,Number7.jpg,7,Human,,,,,0,0,0,6,0,3,3,2,,,,,,,,,,,,,,,,,,,,,,,,,,,,,514.5408924169096,None,514.5408924169096,None,514.9903662345023,None,514.9903662345023,None,v,7.597606555747916,514.9903662345023,None,t,3.1332164573723276,514.9903662345023,None,7.597606555747916,3.1332164573723276,6.700491764229271,False,False,False,522.6396193458058,None,522.6396193458058,None,522.6396193458058,None,522.6396193458058,None,522.6396193458058,None,522.6396193458058,None,522.6396193458058,None,522.6396193458058,None,523.6411825751093,None,523.6411825751093,None,524.6384709031772,None,524.6384709031772,None,h,,,,,,,,,,,,,,,,,,,,,,,,,,,,,,,,,,,,,,,,,,,,,,,7_8Exp,001,2021_Apr_26_1501,ComputerHuman,2020.1.3,59.997247713127976,
Human.xlsx,h,Sychronize.jpg,Number10.jpg,10,Human,,,,,0,0,0,6,0,4,4,9,,,,,,,,,,,,,,,,,,,,,,,,,,,,,525.6723018415178,None,525.6723018415178,None,526.1382044837374,None,526.1382044837374,None,v,10.813345031623612,526.1382044837374,None,t,1.4772828104141809,526.1382044837374,None,10.813345031623612,1.4772828104141809,9.34924738400475,False,False,False,537.0031238922566,None,537.0031238922566,None,537.0031238922566,None,537.0031238922566,None,537.0031238922566,None,537.0031238922566,None,537.0031238922566,None,537.0031238922566,None,538.0215358655732,None,538.0215358655732,None,539.0023677807294,None,539.0023677807294,None,h,,,,,,,,,,,,,,,,,,,,,,,,,,,,,,,,,,,,,,,,,,,,,,,7_8Exp,001,2021_Apr_26_1501,ComputerHuman,2020.1.3,59.997247713127976,
Human.xlsx,h,Sychronize.jpg,Number7.jpg,7,Human,,,,,0,0,0,6,0,5,5,3,,,,,,,,,,,,,,,,,,,,,,,,,,,,,540.0365875214338,None,540.0365875214338,None,540.502495617151,None,540.502495617151,None,v,7.1049605984735535,540.502495617151,None,t,3.824205513486959,540.502495617151,None,7.1049605984735535,3.824205513486959,6.755659731129083,False,False,False,547.668060623655,None,547.668060623655,None,547.668060623655,None,547.668060623655,None,547.668060623655,None,547.668060623655,None,547.668060623655,None,547.668060623655,None,548.686364489382,None,548.686364489382,None,549.6838513889561,None,549.6838513889561,None,h,,,,,,,,,,,,,,,,,,,,,,,,,,,,,,,,,,,,,,,,,,,,,,,7_8Exp,001,2021_Apr_26_1501,ComputerHuman,2020.1.3,59.997247713127976,
Human.xlsx,h,Sychronize.jpg,Number9.jpg,9,Human,,,,,0,0,0,6,0,6,6,7,,,,,,,,,,,,,,,,,,,,,,,,,,,,,550.7011306385575,None,550.7011306385575,None,551.1835169611804,None,551.1835169611804,None,v,9.731754919775994,551.1835169611804,None,t,2.163264913313469,551.1835169611804,None,9.731754919775994,2.163264913313469,9.144450913321368,False,False,False,560.965584254147,None,560.965584254147,None,560.965584254147,None,560.965584254147,None,560.965584254147,None,560.965584254147,None,560.965584254147,None,560.965584254147,None,561.9671391428055,None,561.9671391428055,None,562.9643456683989,None,562.9643456683989,None,h,,,,,,,,,,,,,,,,,,,,,,,,,,,,,,,,,,,,,,,,,,,,,,,7_8Exp,001,2021_Apr_26_1501,ComputerHuman,2020.1.3,59.997247713127976,
Human.xlsx,h,Sychronize.jpg,Number8.jpg,8,Human,,,,,0,0,0,6,0,7,7,4,,,,,,,,,,,,,,,,,,,,,,,,,,,,,563.998395709059,None,563.998395709059,None,564.4649306363099,None,564.4649306363099,None,v,8.157780939382064,564.4649306363099,None,t,3.23321244744875,564.4649306363099,None,8.157780939382064,3.23321244744875,8.013132142952891,False,False,False,572.6794058252999,None,572.6794058252999,None,572.6794058252999,None,572.6794058252999,None,572.6794058252999,None,572.6794058252999,None,572.6794058252999,None,572.6794058252999,None,573.6817450553608,None,573.6817450553608,None,574.6787501223007,None,574.6787501223007,None,h,,,,,,,,,,,,,,,,,,,,,,,,,,,,,,,,,,,,,,,,,,,,,,,7_8Exp,001,2021_Apr_26_1501,ComputerHuman,2020.1.3,59.997247713127976,
Human.xlsx,h,Sychronize.jpg,Number10.jpg,10,Human,,,,,0,0,0,6,0,8,8,8,,,,,,,,,,,,,,,,,,,,,,,,,,,,,575.7123994912217,None,575.7123994912217,None,576.1786463454337,None,576.1786463454337,None,v,10.535820021719701,576.1786463454337,None,t,1.1192805231512466,576.1786463454337,None,10.535820021719701,1.1192805231512466,9.60316052272534,False,False,False,586.7768280848759,None,586.7768280848759,None,586.7768280848759,None,586.7768280848759,None,586.7768280848759,None,586.7768280848759,None,586.7768280848759,None,586.7768280848759,None,587.7946257376243,None,587.7946257376243,None,588.7761297162724,None,588.7761297162724,None,h,,,,,,,,,,,,,,,,,,,,,,,,,,,,,,,,,,,,,,,,,,,,,,,7_8Exp,001,2021_Apr_26_1501,ComputerHuman,2020.1.3,59.997247713127976,
Human.xlsx,h,Sychronize.jpg,Number8.jpg,8,Human,,,,,0,0,0,6,0,9,9,5,,,,,,,,,,,,,,,,,,,,,,,,,,,,,589.8101916263113,None,589.8101916263113,None,590.2761488035176,None,590.2761488035176,None,v,8.357921447168337,590.2761488035176,None,t,3.1376876845570223,590.2761488035176,None,8.357921447168337,3.1376876845570223,7.584140538246556,False,False,False,598.7075192516495,None,598.7075192516495,None,598.7075192516495,None,598.7075192516495,None,598.7075192516495,None,598.7075192516495,None,598.7075192516495,None,598.7075192516495,None,599.7085275072859,None,599.7085275072859,None,600.7071221086444,None,600.7071221086444,None,h,,,,,,,,,,,,,,,,,,,,,,,,,,,,,,,,,,,,,,,,,,,,,,,7_8Exp,001,2021_Apr_26_1501,ComputerHuman,2020.1.3,59.997247713127976,
Human.xlsx,h,,,,,,,,,0,0,0,6,,,,,,,,,,,,,,,,,,,,,,,,,,,,,,,,,,,,,,,,,,,,,,,,,,,,,,,,,,,,,,,,,,,,,,,,,,,,,,,h,601.7075343289689,None,601.7075343289689,None,a,0,6.0263570790411904,601.7075343289689,None,l,0,8.162198914757028,601.7075343289689,None,c,c,609.9722638274252,None,609.9722638274252,None,611.9386224783593,None,None,None,None,None,None,None,None,,,,,,,,,,,,,,,,,,7_8Exp,001,2021_Apr_26_1501,ComputerHuman,2020.1.3,59.997247713127976,
Human.xlsx,h,Sychronize.jpg,Number8.jpg,8,Human,,,,,0,1,1,2,0,0,0,4,,,,,,,,,,,,,,,,,,,,,,,,,616.9575018485739,None,616.9575018485739,None,620.0205635388702,None,620.0205635388702,None,620.4708386999482,None,620.4708386999482,None,v,7.9305869087147585,620.4708386999482,None,t,2.258213209337555,620.4708386999482,None,7.9305869087147585,2.258213209337555,8.275324729547949,False,False,False,628.4855685993971,None,628.4855685993971,None,628.4855685993971,None,628.4855685993971,None,628.4855685993971,None,628.4855685993971,None,628.4855685993971,None,628.4855685993971,None,629.471464569102,None,629.471464569102,None,630.468536681994,None,630.468536681994,None,h,,,,,,,,,,,,,,,,,,,,,,,,,,,,,,,,,,,,,,,,,,,,,,,7_8Exp,001,2021_Apr_26_1501,ComputerHuman,2020.1.3,59.997247713127976,
Human.xlsx,h,Sychronize.jpg,Number6.jpg,6,Human,,,,,0,1,1,2,0,1,1,0,,,,,,,,,,,,,,,,,,,,,,,,,,,,,631.5349869196216,None,631.5349869196216,None,631.9851587850244,None,631.9851587850244,None,v,5.612018548312335,631.9851587850244,None,t,4.719224704989756,631.9851587850244,None,5.612018548312335,4.719224704989756,6.290977624884652,False,False,False,637.668748406053,None,637.668748406053,None,637.668748406053,None,637.668748406053,None,637.668748406053,None,637.668748406053,None,637.668748406053,None,637.668748406053,None,638.6692947182855,None,638.6692947182855,None,639.6668364736397,None,639.6668364736397,None,h,,,,,,,,,,,,,,,,,,,,,,,,,,,,,,,,,,,,,,,,,,,,,,,7_8Exp,001,2021_Apr_26_1501,ComputerHuman,2020.1.3,59.997247713127976,
Human.xlsx,h,Sychronize.jpg,Number7.jpg,7,Human,,,,,0,1,1,2,0,2,2,2,,,,,,,,,,,,,,,,,,,,,,,,,,,,,640.7002731561151,None,640.7002731561151,None,641.1501909526451,None,641.1501909526451,None,v,6.814801115724549,641.1501909526451,None,t,3.494216244045674,641.1501909526451,None,6.814801115724549,3.494216244045674,7.280778527826173,False,False,False,648.0171156446413,None,648.0171156446413,None,648.0171156446413,None,648.0171156446413,None,648.0171156446413,None,648.0171156446413,None,648.0171156446413,None,648.0171156446413,None,649.0342354596105,None,649.0342354596105,None,650.0314394188499,None,650.0314394188499,None,h,,,,,,,,,,,,,,,,,,,,,,,,,,,,,,,,,,,,,,,,,,,,,,,7_8Exp,001,2021_Apr_26_1501,ComputerHuman,2020.1.3,59.997247713127976,
Human.xlsx,h,Sychronize.jpg,Number9.jpg,9,Human,,,,,0,1,1,2,0,3,3,6,,,,,,,,,,,,,,,,,,,,,,,,,,,,,651.0814367722996,None,651.0814367722996,None,651.5316468121891,None,651.5316468121891,None,v,9.80535693949787,651.5316468121891,None,t,1.8642495905878604,651.5316468121891,None,9.80535693949787,1.8642495905878604,9.214019337790427,False,False,False,661.4140203030547,None,661.4140203030547,None,661.4140203030547,None,661.4140203030547,None,661.4140203030547,None,661.4140203030547,None,661.4140203030547,None,661.4140203030547,None,662.3979347280365,None,662.3979347280365,None,663.3955027885022,None,663.3955027885022,None,h,,,,,,,,,,,,,,,,,,,,,,,,,,,,,,,,,,,,,,,,,,,,,,,7_8Exp,001,2021_Apr_26_1501,ComputerHuman,2020.1.3,59.997247713127976,
Human.xlsx,h,Sychronize.jpg,Number10.jpg,10,Human,,,,,0,1,1,2,0,4,4,9,,,,,,,,,,,,,,,,,,,,,,,,,,,,,664.4790811817402,None,664.4790811817402,None,664.8953338904466,None,664.8953338904466,None,v,10.084914179577027,664.8953338904466,None,t,2.192231651784823,664.8953338904466,None,10.084914179577027,2.192231651784823,9.381958215462381,False,False,False,675.0765799506917,None,675.0765799506917,None,675.0765799506917,None,675.0765799506917,None,675.0765799506917,None,675.0765799506917,None,675.0765799506917,None,675.0765799506917,None,676.0455270886487,None,676.0455270886487,None,677.0428815002888,None,677.0428815002888,None,h,,,,,,,,,,,,,,,,,,,,,,,,,,,,,,,,,,,,,,,,,,,,,,,7_8Exp,001,2021_Apr_26_1501,ComputerHuman,2020.1.3,59.997247713127976,
Human.xlsx,h,Sychronize.jpg,Number8.jpg,8,Human,,,,,0,1,1,2,0,5,5,5,,,,,,,,,,,,,,,,,,,,,,,,,,,,,678.109907563201,None,678.109907563201,None,678.542955443314,None,678.542955443314,None,v,7.2329779470128415,678.542955443314,None,t,4.2001883060947875,678.542955443314,None,7.2329779470128415,4.2001883060947875,8.369231518350562,False,False,False,685.874487732035,None,685.874487732035,None,685.874487732035,None,685.874487732035,None,685.874487732035,None,685.874487732035,None,685.874487732035,None,685.874487732035,None,686.8600645116785,None,686.8600645116785,None,687.8573749745374,None,687.8573749745374,None,h,,,,,,,,,,,,,,,,,,,,,,,,,,,,,,,,,,,,,,,,,,,,,,,7_8Exp,001,2021_Apr_26_1501,ComputerHuman,2020.1.3,59.997247713127976,
Human.xlsx,h,Sychronize.jpg,Number9.jpg,9,Human,,,,,0,1,1,2,0,6,6,7,,,,,,,,,,,,,,,,,,,,,,,,,,,,,688.8915812418891,None,688.8915812418891,None,689.3577036280185,None,689.3577036280185,None,v,8.657976463342493,689.3577036280185,None,t,9.365064888610505,689.3577036280185,None,8.657976463342493,9.365064888610505,9.451810787527375,False,False,False,698.8219682959243,None,698.8219682959243,None,698.8219682959243,None,698.8219682959243,None,698.8219682959243,None,698.8219682959243,None,698.8219682959243,None,698.8219682959243,None,699.8082318955858,None,699.8082318955858,None,700.8049071862661,None,700.8049071862661,None,h,,,,,,,,,,,,,,,,,,,,,,,,,,,,,,,,,,,,,,,,,,,,,,,7_8Exp,001,2021_Apr_26_1501,ComputerHuman,2020.1.3,59.997247713127976,
Human.xlsx,h,Sychronize.jpg,Number6.jpg,6,Human,,,,,0,1,1,2,0,7,7,1,,,,,,,,,,,,,,,,,,,,,,,,,,,,,701.8550129680989,None,701.8550129680989,None,702.3052679191533,None,702.3052679191533,None,v,5.722513806173083,702.3052679191533,None,t,6.181084700852807,702.3052679191533,None,5.722513806173083,6.181084700852807,6.216026543725367,False,False,False,708.5700455367114,None,708.5700455367114,None,708.5700455367114,None,708.5700455367114,None,708.5700455367114,None,708.5700455367114,None,708.5700455367114,None,708.5700455367114,None,709.5387626653501,None,709.5387626653501,None,710.5363535021897,None,710.5363535021897,None,h,,,,,,,,,,,,,,,,,,,,,,,,,,,,,,,,,,,,,,,,,,,,,,,7_8Exp,001,2021_Apr_26_1501,ComputerHuman,2020.1.3,59.997247713127976,
Human.xlsx,h,Sychronize.jpg,Number10.jpg,10,Human,,,,,0,1,1,2,0,8,8,8,,,,,,,,,,,,,,,,,,,,,,,,,,,,,711.603203128383,None,711.603203128383,None,712.0366051651035,None,712.0366051651035,None,v,9.890457179611985,712.0366051651035,None,t,10.954506915517413,712.0366051651035,None,9.890457179611985,10.954506915517413,9.815175925593067,False,False,False,723.0839097734715,None,723.0839097734715,None,723.0839097734715,None,723.0839097734715,None,723.0839097734715,None,723.0839097734715,None,723.0839097734715,None,723.0839097734715,None,724.0693473285064,None,724.0693473285064,None,725.0502260795911,None,725.0502260795911,None,h,,,,,,,,,,,,,,,,,,,,,,,,,,,,,,,,,,,,,,,,,,,,,,,7_8Exp,001,2021_Apr_26_1501,ComputerHuman,2020.1.3,59.997247713127976,
Human.xlsx,h,Sychronize.jpg,Number7.jpg,7,Human,,,,,0,1,1,2,0,9,9,3,,,,,,,,,,,,,,,,,,,,,,,,,,,,,726.116616328738,None,726.116616328738,None,726.5505297111413,None,726.5505297111413,None,v,6.14424471451639,726.5505297111413,None,t,6.083203385016532,726.5505297111413,None,6.14424471451639,6.083203385016532,6.5031546781342895,True,False,False,732.7820974476017,None,732.7820974476017,None,732.7820974476017,None,732.7820974476017,None,732.7820974476017,None,732.7820974476017,None,732.7820974476017,None,732.7820974476017,None,733.7681583054364,None,733.7681583054364,None,734.764986935661,None,734.764986935661,None,h,,,,,,,,,,,,,,,,,,,,,,,,,,,,,,,,,,,,,,,,,,,,,,,7_8Exp,001,2021_Apr_26_1501,ComputerHuman,2020.1.3,59.997247713127976,
Human.xlsx,h,,,,,,,,,0,1,1,2,,,,,,,,,,,,,,,,,,,,,,,,,,,,,,,,,,,,,,,,,,,,,,,,,,,,,,,,,,,,,,,,,,,,,,,,,,,,,,,h,735.765563081739,None,735.765563081739,None,q,0,3.661016307563841,735.765563081739,None,o,1,4.236263840259198,735.765563081739,None,h,h,740.0973850474693,None,740.0973850474693,None,742.0802735731486,None,None,None,None,None,None,None,None,,,,,,,,,,,,,,,,,,7_8Exp,001,2021_Apr_26_1501,ComputerHuman,2020.1.3,59.997247713127976,
Computer.xlsx,c,Sychronize.jpg,Number8.jpg,8,Computer,,,,,0,2,2,1,0,0,0,5,,,,,,,,,,,,,,,,,,,,,,,,,747.0820937584722,None,747.0820937584722,None,750.1794255541317,None,750.1794255541317,None,750.6120477405675,None,750.6120477405675,None,v,7.754074164371559,750.6120477405675,None,t,7.717068006732006,750.6120477405675,None,7.754074164371559,7.717068006732006,8.3388331792735,False,False,False,758.4604180266979,None,758.4604180266979,None,758.4604180266979,None,758.4604180266979,None,758.4604180266979,None,758.4604180266979,None,758.4604180266979,None,758.4604180266979,None,759.4768064312775,None,759.4768064312775,None,760.4433678240384,None,760.4433678240384,None,c,,,,,,,,,,,,,,,,,,,,,,,,,,,,,,,,,,,,,,,,,,,,,,,7_8Exp,001,2021_Apr_26_1501,ComputerHuman,2020.1.3,59.997247713127976,
Computer.xlsx,c,Sychronize.jpg,Number6.jpg,6,Computer,,,,,0,2,2,1,0,1,1,0,,,,,,,,,,,,,,,,,,,,,,,,,,,,,761.5099364346643,None,761.5099364346643,None,761.9437003270505,None,761.9437003270505,None,v,5.526205503862002,761.9437003270505,None,t,5.793191146727622,761.9437003270505,None,5.526205503862002,5.793191146727622,6.271628086273126,False,False,False,767.8253193103556,None,767.8253193103556,None,767.8253193103556,None,767.8253193103556,None,767.8253193103556,None,767.8253193103556,None,767.8253193103556,None,767.8253193103556,None,768.8250283501729,None,768.8250283501729,None,769.8081911547451,None,769.8081911547451,None,c,,,,,,,,,,,,,,,,,,,,,,,,,,,,,,,,,,,,,,,,,,,,,,,7_8Exp,001,2021_Apr_26_1501,ComputerHuman,2020.1.3,59.997247713127976,
Computer.xlsx,c,Sychronize.jpg,Number6.jpg,6,Computer,,,,,0,2,2,1,0,2,2,1,,,,,,,,,,,,,,,,,,,,,,,,,,,,,770.8415181256642,None,770.8415181256642,None,771.3086936785912,None,771.3086936785912,None,v,6.300969920746866,771.3086936785912,None,t,6.148118944009184,771.3086936785912,None,6.300969920746866,6.148118944009184,5.994526289014314,False,False,True,777.7067416469254,None,777.7067416469254,None,777.7067416469254,None,777.7067416469254,None,777.7067416469254,None,777.7067416469254,None,777.7067416469254,None,777.7067416469254,None,778.6897966647048,None,778.6897966647048,None,779.6729466375182,None,779.6729466375182,None,c,,,,,,,,,,,,,,,,,,,,,,,,,,,,,,,,,,,,,,,,,,,,,,,7_8Exp,001,2021_Apr_26_1501,ComputerHuman,2020.1.3,59.997247713127976,
Computer.xlsx,c,Sychronize.jpg,Number7.jpg,7,Computer,,,,,0,2,2,1,0,3,3,3,,,,,,,,,,,,,,,,,,,,,,,,,,,,,780.7403534829391,None,780.7403534829391,None,781.1732489858878,None,781.1732489858878,None,v,7.02419236093192,781.1732489858878,None,t,6.483079879315483,781.1732489858878,None,7.02419236093192,6.483079879315483,6.93101177355397,False,True,False,788.272759614596,None,788.272759614596,None,788.272759614596,None,788.272759614596,None,788.272759614596,None,788.272759614596,None,788.272759614596,None,788.272759614596,None,789.287771491996,None,789.287771491996,None,790.2709365421288,None,790.2709365421288,None,c,,,,,,,,,,,,,,,,,,,,,,,,,,,,,,,,,,,,,,,,,,,,,,,7_8Exp,001,2021_Apr_26_1501,ComputerHuman,2020.1.3,59.997247713127976,
Computer.xlsx,c,Sychronize.jpg,Number7.jpg,7,Computer,,,,,0,2,2,1,0,4,4,2,,,,,,,,,,,,,,,,,,,,,,,,,,,,,791.3039719112749,None,791.3039719112749,None,791.7542429020323,None,791.7542429020323,None,v,6.730922780065157,791.7542429020323,None,t,6.638358946063818,791.7542429020323,None,6.730922780065157,6.638358946063818,7.466073670637954,False,False,False,798.569243230846,None,798.569243230846,None,798.569243230846,None,798.569243230846,None,798.569243230846,None,798.569243230846,None,798.569243230846,None,798.569243230846,None,799.5691248578478,None,799.5691248578478,None,800.5522520542836,None,800.5522520542836,None,c,,,,,,,,,,,,,,,,,,,,,,,,,,,,,,,,,,,,,,,,,,,,,,,7_8Exp,001,2021_Apr_26_1501,ComputerHuman,2020.1.3,59.997247713127976,
Computer.xlsx,c,Sychronize.jpg,Number10.jpg,10,Computer,,,,,0,2,2,1,0,5,5,8,,,,,,,,,,,,,,,,,,,,,,,,,,,,,801.6024813418153,None,801.6024813418153,None,802.0521412199487,None,802.0521412199487,None,v,10.140675880938943,802.0521412199487,None,t,9.51999300668831,802.0521412199487,None,10.140675880938943,9.51999300668831,9.346890520697269,False,False,True,812.2832851874955,None,812.2832851874955,None,812.2832851874955,None,812.2832851874955,None,812.2832851874955,None,812.2832851874955,None,812.2832851874955,None,812.2832851874955,None,813.2664335563386,None,813.2664335563386,None,814.2496114382302,None,814.2496114382302,None,c,,,,,,,,,,,,,,,,,,,,,,,,,,,,,,,,,,,,,,,,,,,,,,,7_8Exp,001,2021_Apr_26_1501,ComputerHuman,2020.1.3,59.997247713127976,
Computer.xlsx,c,Sychronize.jpg,Number9.jpg,9,Computer,,,,,0,2,2,1,0,6,6,6,,,,,,,,,,,,,,,,,,,,,,,,,,,,,815.3164463079011,None,815.3164463079011,None,815.7664683624898,None,815.7664683624898,None,v,0.3942552205226093,815.7664683624898,None,t,9.053088845510501,815.7664683624898,None,0.3942552205226093,9.053088845510501,8.400889182188031,False,False,False,824.899116372846,None,824.899116372846,None,824.899116372846,None,824.899116372846,None,824.899116372846,None,824.899116372846,None,824.899116372846,None,824.899116372846,None,825.8972865637006,None,825.8972865637006,None,826.880187600349,None,826.880187600349,None,c,,,,,,,,,,,,,,,,,,,,,,,,,,,,,,,,,,,,,,,,,,,,,,,7_8Exp,001,2021_Apr_26_1501,ComputerHuman,2020.1.3,59.997247713127976,
Computer.xlsx,c,Sychronize.jpg,Number10.jpg,10,Computer,,,,,0,2,2,1,0,7,7,9,,,,,,,,,,,,,,,,,,,,,,,,,,,,,827.9308839639889,None,827.9308839639889,None,828.3808277448334,None,828.3808277448334,None,v,10.187261589886475,828.3808277448334,None,t,10.159012788451946,828.3808277448334,None,10.187261589886475,10.159012788451946,9.909526301790839,False,True,True,838.6615446553296,None,838.6615446553296,None,838.6615446553296,None,838.6615446553296,None,838.6615446553296,None,838.6615446553296,None,838.6615446553296,None,838.6615446553296,None,839.661367897821,None,839.661367897821,None,840.6445185122211,None,840.6445185122211,None,c,,,,,,,,,,,,,,,,,,,,,,,,,,,,,,,,,,,,,,,,,,,,,,,7_8Exp,001,2021_Apr_26_1501,ComputerHuman,2020.1.3,59.997247713127976,
Computer.xlsx,c,Sychronize.jpg,Number8.jpg,8,Computer,,,,,0,2,2,1,0,8,8,4,,,,,,,,,,,,,,,,,,,,,,,,,,,,,841.6948167704686,None,841.6948167704686,None,842.1279284885932,None,842.1279284885932,None,v,7.927926243035472,842.1279284885932,None,t,8.087084351187514,842.1279284885932,None,7.927926243035472,8.087084351187514,8.497231841056706,False,False,False,850.309280731668,None,850.309280731668,None,850.309280731668,None,850.309280731668,None,850.309280731668,None,850.309280731668,None,850.309280731668,None,850.309280731668,None,851.3090905008066,None,851.3090905008066,None,852.2922202635964,None,852.2922202635964,None,c,,,,,,,,,,,,,,,,,,,,,,,,,,,,,,,,,,,,,,,,,,,,,,,7_8Exp,001,2021_Apr_26_1501,ComputerHuman,2020.1.3,59.997247713127976,
Computer.xlsx,c,Sychronize.jpg,Number9.jpg,9,Computer,,,,,0,2,2,1,0,9,9,7,,,,,,,,,,,,,,,,,,,,,,,,,,,,,853.3424354361923,None,853.3424354361923,None,853.7924995147987,None,853.7924995147987,None,v,9.76300956126579,853.7924995147987,None,t,9.042084006330697,853.7924995147987,None,9.76300956126579,9.042084006330697,8.57307196382659,False,False,False,863.6076839793859,None,863.6076839793859,None,863.6076839793859,None,863.6076839793859,None,863.6076839793859,None,863.6076839793859,None,863.6076839793859,None,863.6076839793859,None,864.6231706319486,None,864.6231706319486,None,865.62301312208,None,865.62301312208,None,c,,,,,,,,,,,,,,,,,,,,,,,,,,,,,,,,,,,,,,,,,,,,,,,7_8Exp,001,2021_Apr_26_1501,ComputerHuman,2020.1.3,59.997247713127976,
Computer.xlsx,c,,,,,,,,,0,2,2,1,,,,,,,,,,,,,,,,,,,,,,,,,,,,,,,,,,,,,,,,,,,,,,,,,,,,,,,,,,,,,,,,,,,,,,,,,,,,,,,c,866.6232979871784,None,866.6232979871784,None,q,0,2.852076419556397,866.6232979871784,None,o,0,5.399125515476044,866.6232979871784,None,h,h,872.1055441228127,None,872.1055441228127,None,874.1046988305461,None,None,None,None,None,None,None,None,,,,,,,,,,,,,,,,,,7_8Exp,001,2021_Apr_26_1501,ComputerHuman,2020.1.3,59.997247713127976,
Human.xlsx,h,Sychronize.jpg,Number9.jpg,9,Human,,,,,0,3,3,0,0,0,0,6,,,,,,,,,,,,,,,,,,,,,,,,,879.0902136969416,None,879.0902136969416,None,882.1699191438638,None,882.1699191438638,None,882.6202206100534,None,882.6202206100534,None,v,9.758566563959903,882.6202206100534,None,t,8.402060460051871,882.6202206100534,None,9.758566563959903,8.402060460051871,8.525754882625733,False,False,False,892.4678007804905,None,892.4678007804905,None,892.4678007804905,None,892.4678007804905,None,892.4678007804905,None,892.4678007804905,None,892.4678007804905,None,892.4678007804905,None,893.4699327776107,None,893.4699327776107,None,894.4508169821929,None,894.4508169821929,None,h,,,,,,,,,,,,,,,,,,,,,,,,,,,,,,,,,,,,,,,,,,,,,,,7_8Exp,001,2021_Apr_26_1501,ComputerHuman,2020.1.3,59.997247713127976,
Human.xlsx,h,Sychronize.jpg,Number8.jpg,8,Human,,,,,0,3,3,0,0,1,1,5,,,,,,,,,,,,,,,,,,,,,,,,,,,,,895.5012076291241,None,895.5012076291241,None,895.9506198542622,None,895.9506198542622,None,v,7.115921809661813,895.9506198542622,None,t,8.487084030391998,895.9506198542622,None,7.115921809661813,8.487084030391998,8.12135568951965,False,False,False,904.5170542125852,None,904.5170542125852,None,904.5170542125852,None,904.5170542125852,None,904.5170542125852,None,904.5170542125852,None,904.5170542125852,None,904.5170542125852,None,905.5175488769783,None,905.5175488769783,None,906.5151217493549,None,906.5151217493549,None,h,,,,,,,,,,,,,,,,,,,,,,,,,,,,,,,,,,,,,,,,,,,,,,,7_8Exp,001,2021_Apr_26_1501,ComputerHuman,2020.1.3,59.997247713127976,
Human.xlsx,h,Sychronize.jpg,Number6.jpg,6,Human,,,,,0,3,3,0,0,2,2,1,,,,,,,,,,,,,,,,,,,,,,,,,,,,,907.5648913390432,None,907.5648913390432,None,907.9983536850414,None,907.9983536850414,None,v,5.927956397674279,907.9983536850414,None,t,6.263186479172873,907.9983536850414,None,5.927956397674279,6.263186479172873,5.84263769185497,False,False,False,914.3469528577116,None,914.3469528577116,None,914.3469528577116,None,914.3469528577116,None,914.3469528577116,None,914.3469528577116,None,914.3469528577116,None,914.3469528577116,None,915.3323570501707,None,915.3323570501707,None,916.3299010510818,None,916.3299010510818,None,h,,,,,,,,,,,,,,,,,,,,,,,,,,,,,,,,,,,,,,,,,,,,,,,7_8Exp,001,2021_Apr_26_1501,ComputerHuman,2020.1.3,59.997247713127976,
Human.xlsx,h,Sychronize.jpg,Number7.jpg,7,Human,,,,,0,3,3,0,0,3,3,2,,,,,,,,,,,,,,,,,,,,,,,,,,,,,917.396682348146,None,917.396682348146,None,917.8296888458317,None,917.8296888458317,None,v,7.244335338829842,917.8296888458317,None,t,7.85109158188061,917.8296888458317,None,7.244335338829842,7.85109158188061,7.391201013312271,False,False,False,925.7779922464069,None,925.7779922464069,None,925.7779922464069,None,925.7779922464069,None,925.7779922464069,None,925.7779922464069,None,925.7779922464069,None,925.7779922464069,None,926.7473025232066,None,926.7473025232066,None,927.7443130436441,None,927.7443130436441,None,h,,,,,,,,,,,,,,,,,,,,,,,,,,,,,,,,,,,,,,,,,,,,,,,7_8Exp,001,2021_Apr_26_1501,ComputerHuman,2020.1.3,59.997247713127976,
Human.xlsx,h,Sychronize.jpg,Number10.jpg,10,Human,,,,,0,3,3,0,0,4,4,8,,,,,,,,,,,,,,,,,,,,,,,,,,,,,928.8114594043182,None,928.8114594043182,None,929.2446060889924,None,929.2446060889924,None,v,9.873073030365049,929.2446060889924,None,t,10.960040933317941,929.2446060889924,None,9.873073030365049,10.960040933317941,10.138338040014581,False,False,False,940.2919126221204,None,940.2919126221204,None,940.2919126221204,None,940.2919126221204,None,940.2919126221204,None,940.2919126221204,None,940.2919126221204,None,940.2919126221204,None,941.2779818206,None,941.2779818206,None,942.25822796586,None,942.25822796586,None,h,,,,,,,,,,,,,,,,,,,,,,,,,,,,,,,,,,,,,,,,,,,,,,,7_8Exp,001,2021_Apr_26_1501,ComputerHuman,2020.1.3,59.997247713127976,
Human.xlsx,h,Sychronize.jpg,Number8.jpg,8,Human,,,,,0,3,3,0,0,5,5,4,,,,,,,,,,,,,,,,,,,,,,,,,,,,,943.3246634469651,None,943.3246634469651,None,943.7583814658028,None,943.7583814658028,None,v,8.670932371805975,943.7583814658028,None,t,8.66610153451984,943.7583814658028,None,8.670932371805975,8.66610153451984,8.518072062303695,True,False,False,952.5396012209421,None,952.5396012209421,None,952.5396012209421,None,952.5396012209421,None,952.5396012209421,None,952.5396012209421,None,952.5396012209421,None,952.5396012209421,None,953.5252748803832,None,953.5252748803832,None,954.5225667371888,None,954.5225667371888,None,h,,,,,,,,,,,,,,,,,,,,,,,,,,,,,,,,,,,,,,,,,,,,,,,7_8Exp,001,2021_Apr_26_1501,ComputerHuman,2020.1.3,59.997247713127976,
Human.xlsx,h,Sychronize.jpg,Number10.jpg,10,Human,,,,,0,3,3,0,0,6,6,9,,,,,,,,,,,,,,,,,,,,,,,,,,,,,955.572859862732,None,955.572859862732,None,956.0227025934582,None,956.0227025934582,None,v,10.32230657323089,956.0227025934582,None,t,11.357012637679873,956.0227025934582,None,10.32230657323089,11.357012637679873,10.715489487918862,False,False,False,967.4699818590962,None,967.4699818590962,None,967.4699818590962,None,967.4699818590962,None,967.4699818590962,None,967.4699818590962,None,967.4699818590962,None,967.4699818590962,None,968.4552137851606,None,968.4552137851606,None,969.4532684901678,None,969.4532684901678,None,h,,,,,,,,,,,,,,,,,,,,,,,,,,,,,,,,,,,,,,,,,,,,,,,7_8Exp,001,2021_Apr_26_1501,ComputerHuman,2020.1.3,59.997247713127976,
Human.xlsx,h,Sychronize.jpg,Number6.jpg,6,Human,,,,,0,3,3,0,0,7,7,0,,,,,,,,,,,,,,,,,,,,,,,,,,,,,970.4697717390081,None,970.4697717390081,None,970.9528285211563,None,970.9528285211563,None,v,5.963903935018607,970.9528285211563,None,t,6.203042731365713,970.9528285211563,None,5.963903935018607,6.203042731365713,6.153630847426115,True,False,False,977.2362975236283,None,977.2362975236283,None,977.2362975236283,None,977.2362975236283,None,977.2362975236283,None,977.2362975236283,None,977.2362975236283,None,977.2362975236283,None,978.2197423061552,None,978.2197423061552,None,979.217689545163,None,979.217689545163,None,h,,,,,,,,,,,,,,,,,,,,,,,,,,,,,,,,,,,,,,,,,,,,,,,7_8Exp,001,2021_Apr_26_1501,ComputerHuman,2020.1.3,59.997247713127976,
Human.xlsx,h,Sychronize.jpg,Number9.jpg,9,Human,,,,,0,3,3,0,0,8,8,7,,,,,,,,,,,,,,,,,,,,,,,,,,,,,980.284286064867,None,980.284286064867,None,980.7177378246633,None,980.7177378246633,None,v,9.4106686470368,980.7177378246633,None,t,9.938555111613823,980.7177378246633,None,9.4106686470368,9.938555111613823,8.953334460953862,False,False,False,990.7339222042392,None,990.7339222042392,None,990.7339222042392,None,990.7339222042392,None,990.7339222042392,None,990.7339222042392,None,990.7339222042392,None,990.7339222042392,None,991.7171177298042,None,991.7171177298042,None,992.7150835748653,None,992.7150835748653,None,h,,,,,,,,,,,,,,,,,,,,,,,,,,,,,,,,,,,,,,,,,,,,,,,7_8Exp,001,2021_Apr_26_1501,ComputerHuman,2020.1.3,59.997247713127976,
Human.xlsx,h,Sychronize.jpg,Number7.jpg,7,Human,,,,,0,3,3,0,0,9,9,3,,,,,,,,,,,,,,,,,,,,,,,,,,,,,993.7819566190228,None,993.7819566190228,None,994.2150997749632,None,994.2150997749632,None,v,8.840952244994696,994.2150997749632,None,t,7.6681286319908395,994.2150997749632,None,8.840952244994696,7.6681286319908395,6.812389782997587,False,False,False,1003.1464328505899,None,1003.1464328505899,None,1003.1464328505899,None,1003.1464328505899,None,1003.1464328505899,None,1003.1464328505899,None,1003.1464328505899,None,1003.1464328505899,None,1004.1323650700215,None,1004.1323650700215,None,1005.1293813647535,None,1005.1293813647535,None,h,,,,,,,,,,,,,,,,,,,,,,,,,,,,,,,,,,,,,,,,,,,,,,,7_8Exp,001,2021_Apr_26_1501,ComputerHuman,2020.1.3,59.997247713127976,
Human.xlsx,h,,,,,,,,,0,3,3,0,,,,,,,,,,,,,,,,,,,,,,,,,,,,,,,,,,,,,,,,,,,,,,,,,,,,,,,,,,,,,,,,,,,,,,,,,,,,,,,h,1006.1298279100411,None,1006.1298279100411,None,a,0,5.322146497012,1006.1298279100411,None,l,0,4.589619426002173,1006.1298279100411,None,c,c,1011.5286756178903,None,1011.5286756178903,None,1013.5276850059272,None,None,None,None,None,None,None,None,,,,,,,,,,,,,,,,,,7_8Exp,001,2021_Apr_26_1501,ComputerHuman,2020.1.3,59.997247713127976,
Computer.xlsx,c,Sychronize.jpg,Number8.jpg,8,Computer,,,,,0,4,4,3,0,0,0,4,,,,,,,,,,,,,,,,,,,,,,,,,1018.5469371388062,None,1018.5469371388062,None,1021.6265065690604,None,1021.6265065690604,None,1022.0596930321917,None,1022.0596930321917,None,v,7.93187200959801,1022.0596930321917,None,t,8.387099268107704,1022.0596930321917,None,7.93187200959801,8.387099268107704,8.46489702375642,False,False,True,1030.5410524931322,None,1030.5410524931322,None,1030.5410524931322,None,1030.5410524931322,None,1030.5410524931322,None,1030.5410524931322,None,1030.5410524931322,None,1030.5410524931322,None,1031.5409119853466,None,1031.5409119853466,None,1032.5407284911598,None,1032.5407284911598,None,c,,,,,,,,,,,,,,,,,,,,,,,,,,,,,,,,,,,,,,,,,,,,,,,7_8Exp,001,2021_Apr_26_1501,ComputerHuman,2020.1.3,59.997247713127976,
Computer.xlsx,c,Sychronize.jpg,Number9.jpg,9,Computer,,,,,0,4,4,3,0,1,1,7,,,,,,,,,,,,,,,,,,,,,,,,,,,,,1033.6078386021072,None,1033.6078386021072,None,1034.0407430872874,None,1034.0407430872874,None,v,9.354397203958797,1034.0407430872874,None,t,9.530015253756574,1034.0407430872874,None,9.354397203958797,9.530015253756574,8.68812724232185,False,False,False,1043.6553379324505,None,1043.6553379324505,None,1043.6553379324505,None,1043.6553379324505,None,1043.6553379324505,None,1043.6553379324505,None,1043.6553379324505,None,1043.6553379324505,None,1044.6383643995614,None,1044.6383643995614,None,1045.6215987412033,None,1045.6215987412033,None,c,,,,,,,,,,,,,,,,,,,,,,,,,,,,,,,,,,,,,,,,,,,,,,,7_8Exp,001,2021_Apr_26_1501,ComputerHuman,2020.1.3,59.997247713127976,
Computer.xlsx,c,Sychronize.jpg,Number9.jpg,9,Computer,,,,,0,4,4,3,0,2,2,6,,,,,,,,,,,,,,,,,,,,,,,,,,,,,1046.6719431937927,None,1046.6719431937927,None,1047.1218285901268,None,1047.1218285901268,None,v,9.584874882308213,1047.1218285901268,None,t,8.864058076553192,1047.1218285901268,None,9.584874882308213,8.864058076553192,8.337874984504012,False,False,False,1056.787187486465,None,1056.787187486465,None,1056.787187486465,None,1056.787187486465,None,1056.787187486465,None,1056.787187486465,None,1056.787187486465,None,1056.787187486465,None,1057.802401464105,None,1057.802401464105,None,1058.7688043846138,None,1058.7688043846138,None,c,,,,,,,,,,,,,,,,,,,,,,,,,,,,,,,,,,,,,,,,,,,,,,,7_8Exp,001,2021_Apr_26_1501,ComputerHuman,2020.1.3,59.997247713127976,
Computer.xlsx,c,Sychronize.jpg,Number10.jpg,10,Computer,,,,,0,4,4,3,0,3,3,9,,,,,,,,,,,,,,,,,,,,,,,,,,,,,1059.819361202848,None,1059.819361202848,None,1060.2688067905692,None,1060.2688067905692,None,v,9.906021785125631,1060.2688067905692,None,t,10.62149704949843,1060.2688067905692,None,9.906021785125631,10.62149704949843,10.18581111221658,False,True,False,1070.9831814106255,None,1070.9831814106255,None,1070.9831814106255,None,1070.9831814106255,None,1070.9831814106255,None,1070.9831814106255,None,1070.9831814106255,None,1070.9831814106255,None,1071.983042186017,None,1071.983042186017,None,1072.966191838037,None,1072.966191838037,None,c,,,,,,,,,,,,,,,,,,,,,,,,,,,,,,,,,,,,,,,,,,,,,,,7_8Exp,001,2021_Apr_26_1501,ComputerHuman,2020.1.3,59.997247713127976,
Computer.xlsx,c,Sychronize.jpg,Number6.jpg,6,Computer,,,,,0,4,4,3,0,4,4,0,,,,,,,,,,,,,,,,,,,,,,,,,,,,,1074.0172356216099,None,1074.0172356216099,None,1074.450005373299,None,1074.450005373299,None,v,6.184100485523231,1074.450005373299,None,t,6.123130051502812,1074.450005373299,None,6.184100485523231,6.123130051502812,6.403315381749209,False,True,True,1080.6994641135716,None,1080.6994641135716,None,1080.6994641135716,None,1080.6994641135716,None,1080.6994641135716,None,1080.6994641135716,None,1080.6994641135716,None,1080.6994641135716,None,1081.7145160902255,None,1081.7145160902255,None,1082.7143374079533,None,1082.7143374079533,None,c,,,,,,,,,,,,,,,,,,,,,,,,,,,,,,,,,,,,,,,,,,,,,,,7_8Exp,001,2021_Apr_26_1501,ComputerHuman,2020.1.3,59.997247713127976,
Computer.xlsx,c,Sychronize.jpg,Number10.jpg,10,Computer,,,,,0,4,4,3,0,5,5,8,,,,,,,,,,,,,,,,,,,,,,,,,,,,,1083.7647065616802,None,1083.7647065616802,None,1084.2146384731495,None,1084.2146384731495,None,v,10.175173108476883,1084.2146384731495,None,t,10.330204522233544,1084.2146384731495,None,10.175173108476883,10.330204522233544,9.50497837788977,False,False,False,1094.6285006247454,None,1094.6285006247454,None,1094.6285006247454,None,1094.6285006247454,None,1094.6285006247454,None,1094.6285006247454,None,1094.6285006247454,None,1094.6285006247454,None,1095.6115841931933,None,1095.6115841931933,None,1096.5950241638093,None,1096.5950241638093,None,c,,,,,,,,,,,,,,,,,,,,,,,,,,,,,,,,,,,,,,,,,,,,,,,7_8Exp,001,2021_Apr_26_1501,ComputerHuman,2020.1.3,59.997247713127976,
Computer.xlsx,c,Sychronize.jpg,Number7.jpg,7,Computer,,,,,0,4,4,3,0,6,6,3,,,,,,,,,,,,,,,,,,,,,,,,,,,,,1097.6791774199482,None,1097.6791774199482,None,1098.095256579083,None,1098.095256579083,None,v,7.494248965038423,1098.095256579083,None,t,7.269039045444515,1098.095256579083,None,7.494248965038423,7.269039045444515,7.330673813775057,False,True,True,1105.6764702391338,None,1105.6764702391338,None,1105.6764702391338,None,1105.6764702391338,None,1105.6764702391338,None,1105.6764702391338,None,1105.6764702391338,None,1105.6764702391338,None,1106.676493657098,None,1106.676493657098,None,1107.6428725180558,None,1107.6428725180558,None,c,,,,,,,,,,,,,,,,,,,,,,,,,,,,,,,,,,,,,,,,,,,,,,,7_8Exp,001,2021_Apr_26_1501,ComputerHuman,2020.1.3,59.997247713127976,
Computer.xlsx,c,Sychronize.jpg,Number7.jpg,7,Computer,,,,,0,4,4,3,0,7,7,2,,,,,,,,,,,,,,,,,,,,,,,,,,,,,1108.692957769068,None,1108.692957769068,None,1109.1431549771987,None,1109.1431549771987,None,v,7.434061589246994,1109.1431549771987,None,t,5.977134763968934,1109.1431549771987,None,7.434061589246994,5.977134763968934,6.580993904727895,False,False,False,1116.6744328762543,None,1116.6744328762543,None,1116.6744328762543,None,1116.6744328762543,None,1116.6744328762543,None,1116.6744328762543,None,1116.6744328762543,None,1116.6744328762543,None,1117.6742137739311,None,1117.6742137739311,None,1118.6573127404954,None,1118.6573127404954,None,c,,,,,,,,,,,,,,,,,,,,,,,,,,,,,,,,,,,,,,,,,,,,,,,7_8Exp,001,2021_Apr_26_1501,ComputerHuman,2020.1.3,59.997247713127976,
Computer.xlsx,c,Sychronize.jpg,Number8.jpg,8,Computer,,,,,0,4,4,3,0,8,8,5,,,,,,,,,,,,,,,,,,,,,,,,,,,,,1119.7079167154552,None,1119.7079167154552,None,1120.1577427648917,None,1120.1577427648917,None,v,7.887233199613547,1120.1577427648917,None,t,8.470536832770449,1120.1577427648917,None,7.887233199613547,8.470536832770449,7.6992689586758285,False,True,False,1128.7219408680357,None,1128.7219408680357,None,1128.7219408680357,None,1128.7219408680357,None,1128.7219408680357,None,1128.7219408680357,None,1128.7219408680357,None,1128.7219408680357,None,1129.7052002316123,None,1129.7052002316123,None,1130.6883813214445,None,1130.6883813214445,None,c,,,,,,,,,,,,,,,,,,,,,,,,,,,,,,,,,,,,,,,,,,,,,,,7_8Exp,001,2021_Apr_26_1501,ComputerHuman,2020.1.3,59.997247713127976,
Computer.xlsx,c,Sychronize.jpg,Number6.jpg,6,Computer,,,,,0,4,4,3,0,9,9,1,,,,,,,,,,,,,,,,,,,,,,,,,,,,,1131.7720553113068,None,1131.7720553113068,None,1132.2052311882362,None,1132.2052311882362,None,v,6.111432618017716,1132.2052311882362,None,t,6.198999443422508,1132.2052311882362,None,6.111432618017716,6.198999443422508,6.297291128399738,False,True,True,1138.4719707820805,None,1138.4719707820805,None,1138.4719707820805,None,1138.4719707820805,None,1138.4719707820805,None,1138.4719707820805,None,1138.4719707820805,None,1138.4719707820805,None,1139.486492165408,None,1139.486492165408,None,1140.4698285195518,None,1140.4698285195518,None,c,,,,,,,,,,,,,,,,,,,,,,,,,,,,,,,,,,,,,,,,,,,,,,,7_8Exp,001,2021_Apr_26_1501,ComputerHuman,2020.1.3,59.997247713127976,
Computer.xlsx,c,,,,,,,,,0,4,4,3,,,,,,,,,,,,,,,,,,,,,,,,,,,,,,,,,,,,,,,,,,,,,,,,,,,,,,,,,,,,,,,,,,,,,,,,,,,,,,,c,1141.4704951295425,None,1141.4704951295425,None,a,0,2.7460892801864247,1141.4704951295425,None,o,0,5.945149995266547,1141.4704951295425,None,c,h,1147.5024160602334,None,1147.5024160602334,None,None,None,1149.5013680261363,None,1149.5013680261363,None,"['space', 'space']",1150.484618086688,None,"[2.3637274983011594, 6.735609901628777]",,,,,,,,,,,,,,,,,7_8Exp,001,2021_Apr_26_1501,ComputerHuman,2020.1.3,59.997247713127976,
Human.xlsx,h,Sychronize.jpg,Number6.jpg,6,Human,,,,,0,5,5,4,0,0,0,0,,,,,,,,,,,,,,,,,,,,,,,,,1157.286051715204,None,1157.286051715204,None,1160.3496087114836,None,1160.3496087114836,None,1160.7826925205263,None,1160.7826925205263,None,v,6.149319676063897,1160.7826925205263,None,t,5.7761974038148765,1160.7826925205263,None,6.149319676063897,5.7761974038148765,5.843830936520812,False,False,False,1167.0313701273371,None,1167.0313701273371,None,1167.0313701273371,None,1167.0313701273371,None,1167.0313701273371,None,1167.0313701273371,None,1167.0313701273371,None,1167.0313701273371,None,1168.0167903594956,None,1168.0167903594956,None,1169.0143292277025,None,1169.0143292277025,None,h,,,,,,,,,,,,,,,,,,,,,,,,,,,,,,,,,,,,,,,,,,,,,,,7_8Exp,001,2021_Apr_26_1501,ComputerHuman,2020.1.3,59.997247713127976,
Human.xlsx,h,Sychronize.jpg,Number10.jpg,10,Human,,,,,0,5,5,4,0,1,1,9,,,,,,,,,,,,,,,,,,,,,,,,,,,,,1170.064725007338,None,1170.064725007338,None,1170.5146071957315,None,1170.5146071957315,None,v,10.221476518679992,1170.5146071957315,None,t,9.29205088434901,1170.5146071957315,None,10.221476518679992,9.29205088434901,9.53180680463958,False,False,False,1180.8120673090016,None,1180.8120673090016,None,1180.8120673090016,None,1180.8120673090016,None,1180.8120673090016,None,1180.8120673090016,None,1180.8120673090016,None,1180.8120673090016,None,1181.8149602295598,None,1181.8149602295598,None,1182.8115424899697,None,1182.8115424899697,None,h,,,,,,,,,,,,,,,,,,,,,,,,,,,,,,,,,,,,,,,,,,,,,,,7_8Exp,001,2021_Apr_26_1501,ComputerHuman,2020.1.3,59.997247713127976,
Human.xlsx,h,Sychronize.jpg,Number9.jpg,9,Human,,,,,0,5,5,4,0,2,2,6,,,,,,,,,,,,,,,,,,,,,,,,,,,,,1183.8784601244988,None,1183.8784601244988,None,1184.3119288863782,None,1184.3119288863782,None,v,8.723414275013056,1184.3119288863782,None,t,10.138988825139677,1184.3119288863782,None,8.723414275013056,10.138988825139677,9.539170585198766,False,False,False,1194.5427000912641,None,1194.5427000912641,None,1194.5427000912641,None,1194.5427000912641,None,1194.5427000912641,None,1194.5427000912641,None,1194.5427000912641,None,1194.5427000912641,None,1195.5116456252508,None,1195.5116456252508,None,1196.508975656543,None,1196.508975656543,None,h,,,,,,,,,,,,,,,,,,,,,,,,,,,,,,,,,,,,,,,,,,,,,,,7_8Exp,001,2021_Apr_26_1501,ComputerHuman,2020.1.3,59.997247713127976,
Human.xlsx,h,Sychronize.jpg,Number10.jpg,10,Human,,,,,0,5,5,4,0,3,3,8,,,,,,,,,,,,,,,,,,,,,,,,,,,,,1197.5763494601815,None,1197.5763494601815,None,1198.0090306727216,None,1198.0090306727216,None,v,10.385934464986349,1198.0090306727216,None,t,11.052999343977717,1198.0090306727216,None,10.385934464986349,11.052999343977717,9.73766110083745,False,False,False,1209.1417014594517,None,1209.1417014594517,None,1209.1417014594517,None,1209.1417014594517,None,1209.1417014594517,None,1209.1417014594517,None,1209.1417014594517,None,1209.1417014594517,None,1210.1250041302228,None,1210.1250041302228,None,1211.1228015584165,None,1211.1228015584165,None,h,,,,,,,,,,,,,,,,,,,,,,,,,,,,,,,,,,,,,,,,,,,,,,,7_8Exp,001,2021_Apr_26_1501,ComputerHuman,2020.1.3,59.997247713127976,
Human.xlsx,h,Sychronize.jpg,Number7.jpg,7,Human,,,,,0,5,5,4,0,4,4,3,,,,,,,,,,,,,,,,,,,,,,,,,,,,,1212.1893724145993,None,1212.1893724145993,None,1212.6227885662593,None,1212.6227885662593,None,v,7.399856284275302,1212.6227885662593,None,t,7.627062505114736,1212.6227885662593,None,7.399856284275302,7.627062505114736,6.927073072726324,True,False,False,1220.3376158266947,None,1220.3376158266947,None,1220.3376158266947,None,1220.3376158266947,None,1220.3376158266947,None,1220.3376158266947,None,1220.3376158266947,None,1220.3376158266947,None,1221.3224249462255,None,1221.3224249462255,None,1222.3206054024922,None,1222.3206054024922,None,h,,,,,,,,,,,,,,,,,,,,,,,,,,,,,,,,,,,,,,,,,,,,,,,7_8Exp,001,2021_Apr_26_1501,ComputerHuman,2020.1.3,59.997247713127976,
Human.xlsx,h,Sychronize.jpg,Number8.jpg,8,Human,,,,,0,5,5,4,0,5,5,4,,,,,,,,,,,,,,,,,,,,,,,,,,,,,1223.370272338092,None,1223.370272338092,None,1223.8209449629721,None,1223.8209449629721,None,v,9.301366101375606,1223.8209449629721,None,t,8.429088319411676,1223.8209449629721,None,9.301366101375606,8.429088319411676,7.6855178128972,False,False,False,1233.2185698039793,None,1233.2185698039793,None,1233.2185698039793,None,1233.2185698039793,None,1233.2185698039793,None,1233.2185698039793,None,1233.2185698039793,None,1233.2185698039793,None,1234.204156528238,None,1234.204156528238,None,1235.2015289043447,None,1235.2015289043447,None,h,,,,,,,,,,,,,,,,,,,,,,,,,,,,,,,,,,,,,,,,,,,,,,,7_8Exp,001,2021_Apr_26_1501,ComputerHuman,2020.1.3,59.997247713127976,
Human.xlsx,h,Sychronize.jpg,Number8.jpg,8,Human,,,,,0,5,5,4,0,6,6,5,,,,,,,,,,,,,,,,,,,,,,,,,,,,,1236.2513183832634,None,1236.2513183832634,None,1236.7015553698511,None,1236.7015553698511,None,v,8.67253602116034,1236.7015553698511,None,t,8.128132192803605,1236.7015553698511,None,8.67253602116034,8.128132192803605,7.476700483708583,False,False,False,1245.4660303182427,None,1245.4660303182427,None,1245.4660303182427,None,1245.4660303182427,None,1245.4660303182427,None,1245.4660303182427,None,1245.4660303182427,None,1245.4660303182427,None,1246.4351256630398,None,1246.4351256630398,None,1247.432491302472,None,1247.432491302472,None,h,,,,,,,,,,,,,,,,,,,,,,,,,,,,,,,,,,,,,,,,,,,,,,,7_8Exp,001,2021_Apr_26_1501,ComputerHuman,2020.1.3,59.997247713127976,
Human.xlsx,h,Sychronize.jpg,Number9.jpg,9,Human,,,,,0,5,5,4,0,7,7,7,,,,,,,,,,,,,,,,,,,,,,,,,,,,,1248.5003100474278,None,1248.5003100474278,None,1248.9482732459364,None,1248.9482732459364,None,v,9.27351155580618,1248.9482732459364,None,t,8.25726045106785,1248.9482732459364,None,9.27351155580618,8.25726045106785,9.033650784883765,False,False,False,1258.3135819380113,None,1258.3135819380113,None,1258.3135819380113,None,1258.3135819380113,None,1258.3135819380113,None,1258.3135819380113,None,1258.3135819380113,None,1258.3135819380113,None,1259.282781220074,None,1259.282781220074,None,1260.2800836630813,None,1260.2800836630813,None,h,,,,,,,,,,,,,,,,,,,,,,,,,,,,,,,,,,,,,,,,,,,,,,,7_8Exp,001,2021_Apr_26_1501,ComputerHuman,2020.1.3,59.997247713127976,
Human.xlsx,h,Sychronize.jpg,Number7.jpg,7,Human,,,,,0,5,5,4,0,8,8,2,,,,,,,,,,,,,,,,,,,,,,,,,,,,,1261.3310462857662,None,1261.3310462857662,None,1261.7802471076393,None,1261.7802471076393,None,v,7.045207257004222,1261.7802471076393,None,t,7.504511486833508,1261.7802471076393,None,7.045207257004222,7.504511486833508,6.607444875145371,False,False,False,1269.378135320545,None,1269.378135320545,None,1269.378135320545,None,1269.378135320545,None,1269.378135320545,None,1269.378135320545,None,1269.378135320545,None,1269.378135320545,None,1270.36379422346,None,1270.36379422346,None,1271.361120405225,None,1271.361120405225,None,h,,,,,,,,,,,,,,,,,,,,,,,,,,,,,,,,,,,,,,,,,,,,,,,7_8Exp,001,2021_Apr_26_1501,ComputerHuman,2020.1.3,59.997247713127976,
Human.xlsx,h,Sychronize.jpg,Number6.jpg,6,Human,,,,,0,5,5,4,0,9,9,1,,,,,,,,,,,,,,,,,,,,,,,,,,,,,1272.4114382319094,None,1272.4114382319094,None,1272.861159060907,None,1272.861159060907,None,v,6.7280340298311785,1272.861159060907,None,t,6.863182629644143,1272.861159060907,None,6.7280340298311785,6.863182629644143,6.294891864556766,True,False,False,1279.80952277076,None,1279.80952277076,None,1279.80952277076,None,1279.80952277076,None,1279.80952277076,None,1279.80952277076,None,1279.80952277076,None,1279.80952277076,None,1280.7785084040006,None,1280.7785084040006,None,1281.7925084970302,None,1281.7925084970302,None,h,,,,,,,,,,,,,,,,,,,,,,,,,,,,,,,,,,,,,,,,,,,,,,,7_8Exp,001,2021_Apr_26_1501,ComputerHuman,2020.1.3,59.997247713127976,
Human.xlsx,h,,,,,,,,,0,5,5,4,,,,,,,,,,,,,,,,,,,,,,,,,,,,,,,,,,,,,,,,,,,,,,,,,,,,,,,,,,,,,,,,,,,,,,,,,,,,,,,h,1282.7930082941275,None,1282.7930082941275,None,q,0,2.588060046226019,1282.7930082941275,None,l,0,13.814853725943976,1282.7930082941275,None,h,c,1296.7067317023102,None,1296.7067317023102,None,1298.7058421404654,None,None,None,None,None,None,None,None,,,,,,,,,,,,,,,,,,7_8Exp,001,2021_Apr_26_1501,ComputerHuman,2020.1.3,59.997247713127976,
Computer.xlsx,c,Sychronize.jpg,Number7.jpg,7,Computer,,,,,0,6,6,9,0,0,0,2,,,,,,,,,,,,,,,,,,,,,,,,,1303.70764885244,None,1303.70764885244,None,1306.7881283753559,None,1306.7881283753559,None,1307.2214473264212,None,1307.2214473264212,None,v,7.142905720240378,1307.2214473264212,None,t,12.729978041650611,1307.2214473264212,None,7.142905720240378,12.729978041650611,6.550367546170484,False,False,False,1320.0349662284098,None,1320.0349662284098,None,1320.0349662284098,None,1320.0349662284098,None,1320.0349662284098,None,1320.0349662284098,None,1320.0349662284098,None,1320.0349662284098,None,1321.0348571584364,None,1321.0348571584364,None,1322.0347901124842,None,1322.0347901124842,None,c,,,,,,,,,,,,,,,,,,,,,,,,,,,,,,,,,,,,,,,,,,,,,,,7_8Exp,001,2021_Apr_26_1501,ComputerHuman,2020.1.3,59.997247713127976,
Computer.xlsx,c,Sychronize.jpg,Number10.jpg,10,Computer,,,,,0,6,6,9,0,1,1,8,,,,,,,,,,,,,,,,,,,,,,,,,,,,,1323.1013891985422,None,1323.1013891985422,None,1323.5345663586486,None,1323.5345663586486,None,v,11.529318809920369,1323.5345663586486,None,t,11.05705033097911,1323.5345663586486,None,11.529318809920369,11.05705033097911,10.729213106823837,False,False,False,1335.1488246908739,None,1335.1488246908739,None,1335.1488246908739,None,1335.1488246908739,None,1335.1488246908739,None,1335.1488246908739,None,1335.1488246908739,None,1335.1488246908739,None,1336.1485577902422,None,1336.1485577902422,None,1337.1318716888018,None,1337.1318716888018,None,c,,,,,,,,,,,,,,,,,,,,,,,,,,,,,,,,,,,,,,,,,,,,,,,7_8Exp,001,2021_Apr_26_1501,ComputerHuman,2020.1.3,59.997247713127976,
Computer.xlsx,c,Sychronize.jpg,Number6.jpg,6,Computer,,,,,0,6,6,9,0,2,2,1,,,,,,,,,,,,,,,,,,,,,,,,,,,,,1338.1822078007463,None,1338.1822078007463,None,1338.6316658994328,None,1338.6316658994328,None,v,6.8438717914577865,1338.6316658994328,None,t,6.163134029349749,1338.6316658994328,None,6.8438717914577865,6.163134029349749,5.8848493349813875,False,False,True,1345.53144952386,None,1345.53144952386,None,1345.53144952386,None,1345.53144952386,None,1345.53144952386,None,1345.53144952386,None,1345.53144952386,None,1345.53144952386,None,1346.5464036583362,None,1346.5464036583362,None,1347.529799359374,None,1347.529799359374,None,c,,,,,,,,,,,,,,,,,,,,,,,,,,,,,,,,,,,,,,,,,,,,,,,7_8Exp,001,2021_Apr_26_1501,ComputerHuman,2020.1.3,59.997247713127976,
Computer.xlsx,c,Sychronize.jpg,Number9.jpg,9,Computer,,,,,0,6,6,9,0,3,3,7,,,,,,,,,,,,,,,,,,,,,,,,,,,,,1348.6131509512343,None,1348.6131509512343,None,1349.0467605416925,None,1349.0467605416925,None,v,10.428437428323377,1349.0467605416925,None,t,8.57212845234244,1349.0467605416925,None,10.428437428323377,8.57212845234244,8.558779050585525,False,False,True,1359.5458124349389,None,1359.5458124349389,None,1359.5458124349389,None,1359.5458124349389,None,1359.5458124349389,None,1359.5458124349389,None,1359.5458124349389,None,1359.5458124349389,None,1360.5438818964685,None,1360.5438818964685,None,1361.5269850333534,None,1361.5269850333534,None,c,,,,,,,,,,,,,,,,,,,,,,,,,,,,,,,,,,,,,,,,,,,,,,,7_8Exp,001,2021_Apr_26_1501,ComputerHuman,2020.1.3,59.997247713127976,
Computer.xlsx,c,Sychronize.jpg,Number6.jpg,6,Computer,,,,,0,6,6,9,0,4,4,0,,,,,,,,,,,,,,,,,,,,,,,,,,,,,1362.59385230322,None,1362.59385230322,None,1363.026978136284,None,1363.026978136284,None,v,6.0920287495609955,1363.026978136284,None,t,5.971680303086032,1363.026978136284,None,6.0920287495609955,5.971680303086032,6.136719985530529,False,True,True,1369.2089209611622,None,1369.2089209611622,None,1369.2089209611622,None,1369.2089209611622,None,1369.2089209611622,None,1369.2089209611622,None,1369.2089209611622,None,1369.2089209611622,None,1370.2086819696124,None,1370.2086819696124,None,1371.1918489445052,None,1371.1918489445052,None,c,,,,,,,,,,,,,,,,,,,,,,,,,,,,,,,,,,,,,,,,,,,,,,,7_8Exp,001,2021_Apr_26_1501,ComputerHuman,2020.1.3,59.997247713127976,
Computer.xlsx,c,Sychronize.jpg,Number10.jpg,10,Computer,,,,,0,6,6,9,0,5,5,9,,,,,,,,,,,,,,,,,,,,,,,,,,,,,1372.2584137056037,None,1372.2584137056037,None,1372.6918250453527,None,1372.6918250453527,None,v,10.422803964371269,1372.6918250453527,None,t,11.514017255511135,1372.6918250453527,None,10.422803964371269,11.514017255511135,9.31281740651298,False,False,False,1384.274058830415,None,1384.274058830415,None,1384.274058830415,None,1384.274058830415,None,1384.274058830415,None,1384.274058830415,None,1384.274058830415,None,1384.274058830415,None,1385.2890184183889,None,1385.2890184183889,None,1386.2722319084205,None,1386.2722319084205,None,c,,,,,,,,,,,,,,,,,,,,,,,,,,,,,,,,,,,,,,,,,,,,,,,7_8Exp,001,2021_Apr_26_1501,ComputerHuman,2020.1.3,59.997247713127976,
Computer.xlsx,c,Sychronize.jpg,Number8.jpg,8,Computer,,,,,0,6,6,9,0,6,6,4,,,,,,,,,,,,,,,,,,,,,,,,,,,,,1387.322261662066,None,1387.322261662066,None,1387.7723193247912,None,1387.7723193247912,None,v,8.106018897975446,1387.7723193247912,None,t,7.745110858395492,1387.7723193247912,None,8.106018897975446,7.745110858395492,7.788890146573888,False,False,True,1395.970362802007,None,1395.970362802007,None,1395.970362802007,None,1395.970362802007,None,1395.970362802007,None,1395.970362802007,None,1395.970362802007,None,1395.970362802007,None,1396.953532984844,None,1396.953532984844,None,1397.9366970725932,None,1397.9366970725932,None,c,,,,,,,,,,,,,,,,,,,,,,,,,,,,,,,,,,,,,,,,,,,,,,,7_8Exp,001,2021_Apr_26_1501,ComputerHuman,2020.1.3,59.997247713127976,
Computer.xlsx,c,Sychronize.jpg,Number9.jpg,9,Computer,,,,,0,6,6,9,0,7,7,6,,,,,,,,,,,,,,,,,,,,,,,,,,,,,1399.0206880069527,None,1399.0206880069527,None,1399.453550468119,None,1399.453550468119,None,v,8.76045796555627,1399.453550468119,None,t,9.467995502465783,1399.453550468119,None,8.76045796555627,9.467995502465783,9.009013936604601,False,True,False,1409.0177565911144,None,1409.0177565911144,None,1409.0177565911144,None,1409.0177565911144,None,1409.0177565911144,None,1409.0177565911144,None,1409.0177565911144,None,1409.0177565911144,None,1410.0008584448224,None,1410.0008584448224,None,1410.9841607948001,None,1410.9841607948001,None,c,,,,,,,,,,,,,,,,,,,,,,,,,,,,,,,,,,,,,,,,,,,,,,,7_8Exp,001,2021_Apr_26_1501,ComputerHuman,2020.1.3,59.997247713127976,
Computer.xlsx,c,Sychronize.jpg,Number7.jpg,7,Computer,,,,,0,6,6,9,0,8,8,3,,,,,,,,,,,,,,,,,,,,,,,,,,,,,1412.050638941506,None,1412.050638941506,None,1412.484251098318,None,1412.484251098318,None,v,6.861487553993356,1412.484251098318,None,t,7.461010212478868,1412.484251098318,None,6.861487553993356,7.461010212478868,7.247224583838597,False,False,True,1420.0163383607105,None,1420.0163383607105,None,1420.0163383607105,None,1420.0163383607105,None,1420.0163383607105,None,1420.0163383607105,None,1420.0163383607105,None,1420.0163383607105,None,1421.0322359504244,None,1421.0322359504244,None,1422.015316952522,None,1422.015316952522,None,c,,,,,,,,,,,,,,,,,,,,,,,,,,,,,,,,,,,,,,,,,,,,,,,7_8Exp,001,2021_Apr_26_1501,ComputerHuman,2020.1.3,59.997247713127976,
Computer.xlsx,c,Sychronize.jpg,Number8.jpg,8,Computer,,,,,0,6,6,9,0,9,9,5,,,,,,,,,,,,,,,,,,,,,,,,,,,,,1423.0654057322681,None,1423.0654057322681,None,1423.5154085392169,None,1423.5154085392169,None,v,8.178003474196885,1423.5154085392169,None,t,8.277092579555756,1423.5154085392169,None,8.178003474196885,8.277092579555756,8.34686251962309,False,True,True,1431.8800862294338,None,1431.8800862294338,None,1431.8800862294338,None,1431.8800862294338,None,1431.8800862294338,None,1431.8800862294338,None,1431.8800862294338,None,1431.8800862294338,None,1432.879889582695,None,1432.879889582695,None,1433.8630443674192,None,1433.8630443674192,None,c,,,,,,,,,,,,,,,,,,,,,,,,,,,,,,,,,,,,,,,,,,,,,,,7_8Exp,001,2021_Apr_26_1501,ComputerHuman,2020.1.3,59.997247713127976,
Computer.xlsx,c,,,,,,,,,0,6,6,9,,,,,,,,,,,,,,,,,,,,,,,,,,,,,,,,,,,,,,,,,,,,,,,,,,,,,,,,,,,,,,,,,,,,,,,,,,,,,,,c,1434.8638944715967,None,1434.8638944715967,None,a,1,7.0052645508149,1434.8638944715967,None,l,0,4.1921642850356875,1434.8638944715967,None,c,c,1441.9615396830231,None,1441.9615396830231,None,1443.9444878763898,None,None,None,None,None,None,None,None,,,,,,,,,,,,,,,,,,7_8Exp,001,2021_Apr_26_1501,ComputerHuman,2020.1.3,59.997247713127976,
Computer.xlsx,c,Sychronize.jpg,Number6.jpg,6,Computer,,,,,0,7,7,5,0,0,0,1,,,,,,,,,,,,,,,,,,,,,,,,,1448.9627686449494,None,1448.9627686449494,None,1452.0270076493325,None,1452.0270076493325,None,1452.4763454502572,None,1452.4763454502572,None,v,6.028425238149794,1452.4763454502572,None,t,6.1161402703946806,1452.4763454502572,None,6.028425238149794,6.1161402703946806,6.290517693363007,False,True,True,1458.6596571032605,None,1458.6596571032605,None,1458.6596571032605,None,1458.6596571032605,None,1458.6596571032605,None,1458.6596571032605,None,1458.6596571032605,None,1458.6596571032605,None,1459.6913608563918,None,1459.6913608563918,None,1460.6578783003679,None,1460.6578783003679,None,c,,,,,,,,,,,,,,,,,,,,,,,,,,,,,,,,,,,,,,,,,,,,,,,7_8Exp,001,2021_Apr_26_1501,ComputerHuman,2020.1.3,59.997247713127976,
Computer.xlsx,c,Sychronize.jpg,Number9.jpg,9,Computer,,,,,0,7,7,5,0,1,1,6,,,,,,,,,,,,,,,,,,,,,,,,,,,,,1461.724352276753,None,1461.724352276753,None,1462.158128359315,None,1462.158128359315,None,v,9.590302075699583,1462.158128359315,None,t,9.129120559206058,1462.158128359315,None,9.590302075699583,9.129120559206058,9.26719858150178,False,False,True,1471.8390454452856,None,1471.8390454452856,None,1471.8390454452856,None,1471.8390454452856,None,1471.8390454452856,None,1471.8390454452856,None,1471.8390454452856,None,1471.8390454452856,None,1472.8389020503528,None,1472.8389020503528,None,1473.8220610054013,None,1473.8220610054013,None,c,,,,,,,,,,,,,,,,,,,,,,,,,,,,,,,,,,,,,,,,,,,,,,,7_8Exp,001,2021_Apr_26_1501,ComputerHuman,2020.1.3,59.997247713127976,
Computer.xlsx,c,Sychronize.jpg,Number8.jpg,8,Computer,,,,,0,7,7,5,0,2,2,5,,,,,,,,,,,,,,,,,,,,,,,,,,,,,1474.8719977287765,None,1474.8719977287765,None,1475.3056130935292,None,1475.3056130935292,None,v,8.070522397039895,1475.3056130935292,None,None,,1475.3056130935292,None,8.070522397039895,13,8.245440118045327,False,True,False,1488.3857509708032,None,1488.3857509708032,None,1488.3857509708032,None,1488.3857509708032,None,1488.3857509708032,None,1488.3857509708032,None,1488.3857509708032,None,1488.3857509708032,None,1489.385649599888,None,1489.385649599888,None,1490.3688297273402,None,1490.3688297273402,None,c,,,,,,,,,,,,,,,,,,,,,,,,,,,,,,,,,,,,,,,,,,,,,,,7_8Exp,001,2021_Apr_26_1501,ComputerHuman,2020.1.3,59.997247713127976,
Computer.xlsx,c,Sychronize.jpg,Number9.jpg,9,Computer,,,,,0,7,7,5,0,3,3,7,,,,,,,,,,,,,,,,,,,,,,,,,,,,,1491.4190529197876,None,1491.4190529197876,None,1491.8523468489184,None,1491.8523468489184,None,v,9.423310498146748,1491.8523468489184,None,t,9.347160732242628,1491.8523468489184,None,9.423310498146748,9.347160732242628,9.49608806937204,False,True,True,1501.3665832067527,None,1501.3665832067527,None,1501.3665832067527,None,1501.3665832067527,None,1501.3665832067527,None,1501.3665832067527,None,1501.3665832067527,None,1501.3665832067527,None,1502.3663419696422,None,1502.3663419696422,None,1503.349592030194,None,1503.349592030194,None,c,,,,,,,,,,,,,,,,,,,,,,,,,,,,,,,,,,,,,,,,,,,,,,,7_8Exp,001,2021_Apr_26_1501,ComputerHuman,2020.1.3,59.997247713127976,
Computer.xlsx,c,Sychronize.jpg,Number10.jpg,10,Computer,,,,,0,7,7,5,0,4,4,8,,,,,,,,,,,,,,,,,,,,,,,,,,,,,1504.399926217371,None,1504.399926217371,None,1504.8495302773408,None,1504.8495302773408,None,v,10.949768466911337,1504.8495302773408,None,t,10.488972544844728,1504.8495302773408,None,10.949768466911337,10.488972544844728,10.616339083901156,False,False,True,1515.8971832680254,None,1515.8971832680254,None,1515.8971832680254,None,1515.8971832680254,None,1515.8971832680254,None,1515.8971832680254,None,1515.8971832680254,None,1515.8971832680254,None,1516.8969696191998,None,1516.8969696191998,None,1517.8801141385156,None,1517.8801141385156,None,c,,,,,,,,,,,,,,,,,,,,,,,,,,,,,,,,,,,,,,,,,,,,,,,7_8Exp,001,2021_Apr_26_1501,ComputerHuman,2020.1.3,59.997247713127976,
Computer.xlsx,c,Sychronize.jpg,Number7.jpg,7,Computer,,,,,0,7,7,5,0,5,5,3,,,,,,,,,,,,,,,,,,,,,,,,,,,,,1518.929888540115,None,1518.929888540115,None,1519.3800709917195,None,1519.3800709917195,None,v,6.978974517725874,1519.3800709917195,None,t,7.870140010552859,1519.3800709917195,None,6.978974517725874,7.870140010552859,7.200663377037596,False,True,False,1527.344983182371,None,1527.344983182371,None,1527.344983182371,None,1527.344983182371,None,1527.344983182371,None,1527.344983182371,None,1527.344983182371,None,1527.344983182371,None,1528.3280106118655,None,1528.3280106118655,None,1529.3112940349965,None,1529.3112940349965,None,c,,,,,,,,,,,,,,,,,,,,,,,,,,,,,,,,,,,,,,,,,,,,,,,7_8Exp,001,2021_Apr_26_1501,ComputerHuman,2020.1.3,59.997247713127976,
Computer.xlsx,c,Sychronize.jpg,Number8.jpg,8,Computer,,,,,0,7,7,5,0,6,6,4,,,,,,,,,,,,,,,,,,,,,,,,,,,,,1530.3611614668625,None,1530.3611614668625,None,1530.8115469810873,None,1530.8115469810873,None,v,8.119226308957877,1530.8115469810873,None,t,7.682126479459839,1530.8115469810873,None,8.119226308957877,7.682126479459839,7.769500462124215,False,False,True,1539.0260061303743,None,1539.0260061303743,None,1539.0260061303743,None,1539.0260061303743,None,1539.0260061303743,None,1539.0260061303743,None,1539.0260061303743,None,1539.0260061303743,None,1540.0257450040335,None,1540.0257450040335,None,1540.992235180518,None,1540.992235180518,None,c,,,,,,,,,,,,,,,,,,,,,,,,,,,,,,,,,,,,,,,,,,,,,,,7_8Exp,001,2021_Apr_26_1501,ComputerHuman,2020.1.3,59.997247713127976,
Computer.xlsx,c,Sychronize.jpg,Number10.jpg,10,Computer,,,,,0,7,7,5,0,7,7,9,,,,,,,,,,,,,,,,,,,,,,,,,,,,,1542.0594075255067,None,1542.0594075255067,None,1542.4926129154883,None,1542.4926129154883,None,v,10.929784923642728,1542.4926129154883,None,t,10.029068109382933,1542.4926129154883,None,10.929784923642728,10.029068109382933,10.206967718323684,False,False,True,1553.5065202990445,None,1553.5065202990445,None,1553.5065202990445,None,1553.5065202990445,None,1553.5065202990445,None,1553.5065202990445,None,1553.5065202990445,None,1553.5065202990445,None,1554.5062691173189,None,1554.5062691173189,None,1555.4895060253148,None,1555.4895060253148,None,c,,,,,,,,,,,,,,,,,,,,,,,,,,,,,,,,,,,,,,,,,,,,,,,7_8Exp,001,2021_Apr_26_1501,ComputerHuman,2020.1.3,59.997247713127976,
Computer.xlsx,c,Sychronize.jpg,Number6.jpg,6,Computer,,,,,0,7,7,5,0,8,8,0,,,,,,,,,,,,,,,,,,,,,,,,,,,,,1556.5399778331303,None,1556.5399778331303,None,1556.9898064489207,None,1556.9898064489207,None,v,6.160336705412192,1556.9898064489207,None,t,7.179117912655784,1556.9898064489207,None,6.160336705412192,7.179117912655784,6.028730295032592,False,True,False,1564.2544865450946,None,1564.2544865450946,None,1564.2544865450946,None,1564.2544865450946,None,1564.2544865450946,None,1564.2544865450946,None,1564.2544865450946,None,1564.2544865450946,None,1565.2543216569647,None,1565.2543216569647,None,1566.2377516829656,None,1566.2377516829656,None,c,,,,,,,,,,,,,,,,,,,,,,,,,,,,,,,,,,,,,,,,,,,,,,,7_8Exp,001,2021_Apr_26_1501,ComputerHuman,2020.1.3,59.997247713127976,
Computer.xlsx,c,Sychronize.jpg,Number7.jpg,7,Computer,,,,,0,7,7,5,0,9,9,2,,,,,,,,,,,,,,,,,,,,,,,,,,,,,1567.287752244356,None,1567.287752244356,None,1567.7377460690695,None,1567.7377460690695,None,v,6.864128972032631,1567.7377460690695,None,t,9.163165467165527,1567.7377460690695,None,6.864128972032631,9.163165467165527,7.007595774058971,False,True,False,1576.9702466745694,None,1576.9702466745694,None,1576.9702466745694,None,1576.9702466745694,None,1576.9702466745694,None,1576.9702466745694,None,1576.9702466745694,None,1576.9702466745694,None,1577.9684765331149,None,1577.9684765331149,None,1578.951629713869,None,1578.951629713869,None,c,,,,,,,,,,,,,,,,,,,,,,,,,,,,,,,,,,,,,,,,,,,,,,,7_8Exp,001,2021_Apr_26_1501,ComputerHuman,2020.1.3,59.997247713127976,
Computer.xlsx,c,,,,,,,,,0,7,7,5,,,,,,,,,,,,,,,,,,,,,,,,,,,,,,,,,,,,,,,,,,,,,,,,,,,,,,,,,,,,,,,,,,,,,,,,,,,,,,,c,1579.9522116342378,None,1579.9522116342378,None,q,0,5.477406316116685,1579.9522116342378,None,l,0,2.132235469234729,1579.9522116342378,None,h,c,1585.5175309125152,None,1585.5175309125152,None,1587.5167010183613,None,None,None,None,None,None,None,None,,,,,,,,,,,,,,,,,,7_8Exp,001,2021_Apr_26_1501,ComputerHuman,2020.1.3,59.997247713127976,
Computer.xlsx,c,Sychronize.jpg,Number9.jpg,9,Computer,,,,,0,8,8,7,0,0,0,7,,,,,,,,,,,,,,,,,,,,,,,,,1592.5182421128775,None,1592.5182421128775,None,1595.5988201195578,None,1595.5988201195578,None,1596.0153355585753,None,1596.0153355585753,None,v,8.657758644196292,1596.0153355585753,None,t,8.79719882653444,1596.0153355585753,None,8.657758644196292,8.79719882653444,9.469563475122346,False,False,False,1604.8817678317355,None,1604.8817678317355,None,1604.8817678317355,None,1604.8817678317355,None,1604.8817678317355,None,1604.8817678317355,None,1604.8817678317355,None,1604.8817678317355,None,1605.9130346633974,None,1605.9130346633974,None,1606.8962783080678,None,1606.8962783080678,None,c,,,,,,,,,,,,,,,,,,,,,,,,,,,,,,,,,,,,,,,,,,,,,,,7_8Exp,001,2021_Apr_26_1501,ComputerHuman,2020.1.3,59.997247713127976,
Computer.xlsx,c,Sychronize.jpg,Number6.jpg,6,Computer,,,,,0,8,8,7,0,1,1,1,,,,,,,,,,,,,,,,,,,,,,,,,,,,,1607.9468328807452,None,1607.9468328807452,None,1608.3786886902453,None,1608.3786886902453,None,v,5.814182945629,1608.3786886902453,None,t,5.6132641915282875,1608.3786886902453,None,5.814182945629,5.6132641915282875,5.600322997926435,False,True,True,1614.2781495958807,None,1614.2781495958807,None,1614.2781495958807,None,1614.2781495958807,None,1614.2781495958807,None,1614.2781495958807,None,1614.2781495958807,None,1614.2781495958807,None,1615.277858314901,None,1615.277858314901,None,1616.2611353221473,None,1616.2611353221473,None,c,,,,,,,,,,,,,,,,,,,,,,,,,,,,,,,,,,,,,,,,,,,,,,,7_8Exp,001,2021_Apr_26_1501,ComputerHuman,2020.1.3,59.997247713127976,
Computer.xlsx,c,Sychronize.jpg,Number10.jpg,10,Computer,,,,,0,8,8,7,0,2,2,8,,,,,,,,,,,,,,,,,,,,,,,,,,,,,1617.311366213653,None,1617.311366213653,None,1617.761445690372,None,1617.761445690372,None,v,10.53907543953028,1617.761445690372,None,t,10.646110933783348,1617.761445690372,None,10.53907543953028,10.646110933783348,10.302575818855336,False,True,False,1628.4770983538438,None,1628.4770983538438,None,1628.4770983538438,None,1628.4770983538438,None,1628.4770983538438,None,1628.4770983538438,None,1628.4770983538438,None,1628.4770983538438,None,1629.4751751936383,None,1629.4751751936383,None,1630.4582699898783,None,1630.4582699898783,None,c,,,,,,,,,,,,,,,,,,,,,,,,,,,,,,,,,,,,,,,,,,,,,,,7_8Exp,001,2021_Apr_26_1501,ComputerHuman,2020.1.3,59.997247713127976,
Computer.xlsx,c,Sychronize.jpg,Number8.jpg,8,Computer,,,,,0,8,8,7,0,3,3,4,,,,,,,,,,,,,,,,,,,,,,,,,,,,,1631.525301506288,None,1631.525301506288,None,1631.9752879527405,None,1631.9752879527405,None,v,9.328916534206655,1631.9752879527405,None,None,,1631.9752879527405,None,9.328916534206655,13,8.527216219720096,False,False,False,1645.0406519817843,None,1645.0406519817843,None,1645.0406519817843,None,1645.0406519817843,None,1645.0406519817843,None,1645.0406519817843,None,1645.0406519817843,None,1645.0406519817843,None,1646.038752239543,None,1646.038752239543,None,1647.0217899344461,None,1647.0217899344461,None,c,,,,,,,,,,,,,,,,,,,,,,,,,,,,,,,,,,,,,,,,,,,,,,,7_8Exp,001,2021_Apr_26_1501,ComputerHuman,2020.1.3,59.997247713127976,
Computer.xlsx,c,Sychronize.jpg,Number9.jpg,9,Computer,,,,,0,8,8,7,0,4,4,6,,,,,,,,,,,,,,,,,,,,,,,,,,,,,1648.1055839012733,None,1648.1055839012733,None,1648.5387783842561,None,1648.5387783842561,None,v,9.288985055809462,1648.5387783842561,None,t,10.31211911723949,1648.5387783842561,None,9.288985055809462,10.31211911723949,8.881540693728535,False,False,False,1658.936162950533,None,1658.936162950533,None,1658.936162950533,None,1658.936162950533,None,1658.936162950533,None,1658.936162950533,None,1658.936162950533,None,1658.936162950533,None,1659.919370987067,None,1659.919370987067,None,1660.9024558386918,None,1660.9024558386918,None,c,,,,,,,,,,,,,,,,,,,,,,,,,,,,,,,,,,,,,,,,,,,,,,,7_8Exp,001,2021_Apr_26_1501,ComputerHuman,2020.1.3,59.997247713127976,
Computer.xlsx,c,Sychronize.jpg,Number6.jpg,6,Computer,,,,,0,8,8,7,0,5,5,0,,,,,,,,,,,,,,,,,,,,,,,,,,,,,1661.9694334617052,None,1661.9694334617052,None,1662.4024790962576,None,1662.4024790962576,None,v,6.045037236166536,1662.4024790962576,None,t,6.204122844865196,1662.4024790962576,None,6.045037236166536,6.204122844865196,5.574345133531266,False,False,False,1668.701045948932,None,1668.701045948932,None,1668.701045948932,None,1668.701045948932,None,1668.701045948932,None,1668.701045948932,None,1668.701045948932,None,1668.701045948932,None,1669.7008409615482,None,1669.7008409615482,None,1670.6839033575889,None,1670.6839033575889,None,c,,,,,,,,,,,,,,,,,,,,,,,,,,,,,,,,,,,,,,,,,,,,,,,7_8Exp,001,2021_Apr_26_1501,ComputerHuman,2020.1.3,59.997247713127976,
Computer.xlsx,c,Sychronize.jpg,Number7.jpg,7,Computer,,,,,0,8,8,7,0,6,6,3,,,,,,,,,,,,,,,,,,,,,,,,,,,,,1671.7175520849196,None,1671.7175520849196,None,1672.183731893183,None,1672.183731893183,None,v,6.4559143993210455,1672.183731893183,None,t,6.36311189456319,1672.183731893183,None,6.4559143993210455,6.36311189456319,7.376309759476392,False,False,False,1678.7322948161273,None,1678.7322948161273,None,1678.7322948161273,None,1678.7322948161273,None,1678.7322948161273,None,1678.7322948161273,None,1678.7322948161273,None,1678.7322948161273,None,1679.7155076645722,None,1679.7155076645722,None,1680.6986204252753,None,1680.6986204252753,None,c,,,,,,,,,,,,,,,,,,,,,,,,,,,,,,,,,,,,,,,,,,,,,,,7_8Exp,001,2021_Apr_26_1501,ComputerHuman,2020.1.3,59.997247713127976,
Computer.xlsx,c,Sychronize.jpg,Number7.jpg,7,Computer,,,,,0,8,8,7,0,7,7,2,,,,,,,,,,,,,,,,,,,,,,,,,,,,,1681.7654447087407,None,1681.7654447087407,None,1682.2151915220566,None,1682.2151915220566,None,v,6.823852960846125,1682.2151915220566,None,t,7.183127196436544,1682.2151915220566,None,6.823852960846125,7.183127196436544,6.944406405496595,False,True,True,1689.4967380059134,None,1689.4967380059134,None,1689.4967380059134,None,1689.4967380059134,None,1689.4967380059134,None,1689.4967380059134,None,1689.4967380059134,None,1689.4967380059134,None,1690.4966744886951,None,1690.4966744886951,None,1691.4632297863682,None,1691.4632297863682,None,c,,,,,,,,,,,,,,,,,,,,,,,,,,,,,,,,,,,,,,,,,,,,,,,7_8Exp,001,2021_Apr_26_1501,ComputerHuman,2020.1.3,59.997247713127976,
Computer.xlsx,c,Sychronize.jpg,Number10.jpg,10,Computer,,,,,0,8,8,7,0,8,8,9,,,,,,,,,,,,,,,,,,,,,,,,,,,,,1692.5296004670745,None,1692.5296004670745,None,1692.9635998222802,None,1692.9635998222802,None,v,9.731085101844656,1692.9635998222802,None,t,10.858055699467513,1692.9635998222802,None,9.731085101844656,10.858055699467513,9.911133607587914,False,True,False,1703.8952678068745,None,1703.8952678068745,None,1703.8952678068745,None,1703.8952678068745,None,1703.8952678068745,None,1703.8952678068745,None,1703.8952678068745,None,1703.8952678068745,None,1704.9106582212298,None,1704.9106582212298,None,1705.893778680991,None,1705.893778680991,None,c,,,,,,,,,,,,,,,,,,,,,,,,,,,,,,,,,,,,,,,,,,,,,,,7_8Exp,001,2021_Apr_26_1501,ComputerHuman,2020.1.3,59.997247713127976,
Computer.xlsx,c,Sychronize.jpg,Number8.jpg,8,Computer,,,,,0,8,8,7,0,9,9,5,,,,,,,,,,,,,,,,,,,,,,,,,,,,,1706.9434462581776,None,1706.9434462581776,None,1707.393730722284,None,1707.393730722284,None,v,7.764737678702659,1707.393730722284,None,t,7.91610979496545,1707.393730722284,None,7.764737678702659,7.91610979496545,8.402827946985608,False,False,False,1715.408475057462,None,1715.408475057462,None,1715.408475057462,None,1715.408475057462,None,1715.408475057462,None,1715.408475057462,None,1715.408475057462,None,1715.408475057462,None,1716.4083342288832,None,1716.4083342288832,None,1717.3915945548433,None,1717.3915945548433,None,c,,,,,,,,,,,,,,,,,,,,,,,,,,,,,,,,,,,,,,,,,,,,,,,7_8Exp,001,2021_Apr_26_1501,ComputerHuman,2020.1.3,59.997247713127976,
Computer.xlsx,c,,,,,,,,,0,8,8,7,,,,,,,,,,,,,,,,,,,,,,,,,,,,,,,,,,,,,,,,,,,,,,,,,,,,,,,,,,,,,,,,,,,,,,,,,,,,,,,c,1718.3921431126328,None,1718.3921431126328,None,a,1,4.090479955990304,1718.3921431126328,None,o,0,2.657208803229878,1718.3921431126328,None,c,h,1722.57389538586,None,1722.57389538586,None,1724.5735033755554,None,None,None,None,None,None,None,None,,,,,,,,,,,,,,,,,,7_8Exp,001,2021_Apr_26_1501,ComputerHuman,2020.1.3,59.997247713127976,
Human.xlsx,h,Sychronize.jpg,Number7.jpg,7,Human,,,,,0,9,9,8,0,0,0,3,,,,,,,,,,,,,,,,,,,,,,,,,1729.559058341205,None,1729.559058341205,None,1732.6559496866648,None,1732.6559496866648,None,1733.088759537608,None,1733.088759537608,None,v,6.797034900788276,1733.088759537608,None,t,6.376113997364882,1733.088759537608,None,6.797034900788276,6.376113997364882,7.419435766435603,False,False,False,1739.9548748662673,None,1739.9548748662673,None,1739.9548748662673,None,1739.9548748662673,None,1739.9548748662673,None,1739.9548748662673,None,1739.9548748662673,None,1739.9548748662673,None,1740.9725156507375,None,1740.9725156507375,None,1741.9534341802828,None,1741.9534341802828,None,h,,,,,,,,,,,,,,,,,,,,,,,,,,,,,,,,,,,,,,,,,,,,,,,7_8Exp,001,2021_Apr_26_1501,ComputerHuman,2020.1.3,59.997247713127976,
Human.xlsx,h,Sychronize.jpg,Number10.jpg,10,Human,,,,,0,9,9,8,0,1,1,9,,,,,,,,,,,,,,,,,,,,,,,,,,,,,1743.0034511021659,None,1743.0034511021659,None,1743.4535100480716,None,1743.4535100480716,None,v,9.62793025296196,1743.4535100480716,None,t,9.327085441884265,1743.4535100480716,None,9.62793025296196,9.327085441884265,10.285702605540955,False,False,False,1753.1679411278783,None,1753.1679411278783,None,1753.1679411278783,None,1753.1679411278783,None,1753.1679411278783,None,1753.1679411278783,None,1753.1679411278783,None,1753.1679411278783,None,1754.1537424633461,None,1754.1537424633461,None,1755.1508694320182,None,1755.1508694320182,None,h,,,,,,,,,,,,,,,,,,,,,,,,,,,,,,,,,,,,,,,,,,,,,,,7_8Exp,001,2021_Apr_26_1501,ComputerHuman,2020.1.3,59.997247713127976,
Human.xlsx,h,Sychronize.jpg,Number6.jpg,6,Human,,,,,0,9,9,8,0,2,2,0,,,,,,,,,,,,,,,,,,,,,,,,,,,,,1756.2178457718546,None,1756.2178457718546,None,1756.6511804418296,None,1756.6511804418296,None,v,6.509990969647333,1756.6511804418296,None,t,6.36115344701102,1756.6511804418296,None,6.509990969647333,6.36115344701102,6.13747738657397,True,False,False,1763.2491498156232,None,1763.2491498156232,None,1763.2491498156232,None,1763.2491498156232,None,1763.2491498156232,None,1763.2491498156232,None,1763.2491498156232,None,1763.2491498156232,None,1764.2179971866353,None,1764.2179971866353,None,1765.2322904854082,None,1765.2322904854082,None,h,,,,,,,,,,,,,,,,,,,,,,,,,,,,,,,,,,,,,,,,,,,,,,,7_8Exp,001,2021_Apr_26_1501,ComputerHuman,2020.1.3,59.997247713127976,
Human.xlsx,h,Sychronize.jpg,Number6.jpg,6,Human,,,,,0,9,9,8,0,3,3,1,,,,,,,,,,,,,,,,,,,,,,,,,,,,,1766.2825784782472,None,1766.2825784782472,None,1766.732570698994,None,1766.732570698994,None,v,5.880354413246096,1766.732570698994,None,t,6.195130025840626,1766.732570698994,None,5.880354413246096,6.195130025840626,5.807398050791275,False,False,False,1773.013867925889,None,1773.013867925889,None,1773.013867925889,None,1773.013867925889,None,1773.013867925889,None,1773.013867925889,None,1773.013867925889,None,1773.013867925889,None,1773.9990578279358,None,1773.9990578279358,None,1774.9804293186498,None,1774.9804293186498,None,h,,,,,,,,,,,,,,,,,,,,,,,,,,,,,,,,,,,,,,,,,,,,,,,7_8Exp,001,2021_Apr_26_1501,ComputerHuman,2020.1.3,59.997247713127976,
Human.xlsx,h,Sychronize.jpg,Number8.jpg,8,Human,,,,,0,9,9,8,0,4,4,5,,,,,,,,,,,,,,,,,,,,,,,,,,,,,1776.0473376501504,None,1776.0473376501504,None,1776.4802706860028,None,1776.4802706860028,None,v,8.04040817832356,1776.4802706860028,None,t,9.37240144806492,1776.4802706860028,None,8.04040817832356,9.37240144806492,8.004529532223316,False,False,False,1785.9449446870894,None,1785.9449446870894,None,1785.9449446870894,None,1785.9449446870894,None,1785.9449446870894,None,1785.9449446870894,None,1785.9449446870894,None,1785.9449446870894,None,1786.9311284090363,None,1786.9311284090363,None,1787.927928488596,None,1787.927928488596,None,h,,,,,,,,,,,,,,,,,,,,,,,,,,,,,,,,,,,,,,,,,,,,,,,7_8Exp,001,2021_Apr_26_1501,ComputerHuman,2020.1.3,59.997247713127976,
Human.xlsx,h,Sychronize.jpg,Number9.jpg,9,Human,,,,,0,9,9,8,0,5,5,6,,,,,,,,,,,,,,,,,,,,,,,,,,,,,1788.9782216141393,None,1788.9782216141393,None,1789.4279026646764,None,1789.4279026646764,None,v,8.764486817770376,1789.4279026646764,None,t,8.052070966055908,1789.4279026646764,None,8.764486817770376,8.052070966055908,8.986052817081505,False,False,False,1798.2590514441326,None,1798.2590514441326,None,1798.2590514441326,None,1798.2590514441326,None,1798.2590514441326,None,1798.2590514441326,None,1798.2590514441326,None,1798.2590514441326,None,1799.2613002102808,None,1799.2613002102808,None,1800.2588461359555,None,1800.2588461359555,None,h,,,,,,,,,,,,,,,,,,,,,,,,,,,,,,,,,,,,,,,,,,,,,,,7_8Exp,001,2021_Apr_26_1501,ComputerHuman,2020.1.3,59.997247713127976,
Human.xlsx,h,Sychronize.jpg,Number7.jpg,7,Human,,,,,0,9,9,8,0,6,6,2,,,,,,,,,,,,,,,,,,,,,,,,,,,,,1801.3089114977374,None,1801.3089114977374,None,1801.7588341061783,None,1801.7588341061783,None,v,7.245103961326095,1801.7588341061783,None,t,7.620079139884183,1801.7588341061783,None,7.245103961326095,7.620079139884183,7.0492169023622795,False,False,False,1809.473686067755,None,1809.473686067755,None,1809.473686067755,None,1809.473686067755,None,1809.473686067755,None,1809.473686067755,None,1809.473686067755,None,1809.473686067755,None,1810.442412178625,None,1810.442412178625,None,1811.439983767821,None,1811.439983767821,None,h,,,,,,,,,,,,,,,,,,,,,,,,,,,,,,,,,,,,,,,,,,,,,,,7_8Exp,001,2021_Apr_26_1501,ComputerHuman,2020.1.3,59.997247713127976,
Human.xlsx,h,Sychronize.jpg,Number10.jpg,10,Human,,,,,0,9,9,8,0,7,7,8,,,,,,,,,,,,,,,,,,,,,,,,,,,,,1812.5070152842309,None,1812.5070152842309,None,1812.939878707777,None,1812.939878707777,None,v,9.307850311091897,1812.939878707777,None,t,9.962977481864073,1812.939878707777,None,9.307850311091897,9.962977481864073,9.560801785854341,False,False,False,1822.9877004361188,None,1822.9877004361188,None,1822.9877004361188,None,1822.9877004361188,None,1822.9877004361188,None,1822.9877004361188,None,1822.9877004361188,None,1822.9877004361188,None,1823.9734603891557,None,1823.9734603891557,None,1824.9540379146456,None,1824.9540379146456,None,h,,,,,,,,,,,,,,,,,,,,,,,,,,,,,,,,,,,,,,,,,,,,,,,7_8Exp,001,2021_Apr_26_1501,ComputerHuman,2020.1.3,59.997247713127976,
Human.xlsx,h,Sychronize.jpg,Number8.jpg,8,Human,,,,,0,9,9,8,0,8,8,4,,,,,,,,,,,,,,,,,,,,,,,,,,,,,1826.0213976033483,None,1826.0213976033483,None,1826.4543274312564,None,1826.4543274312564,None,v,8.917007376658148,1826.4543274312564,None,t,8.39203083472239,1826.4543274312564,None,8.917007376658148,8.39203083472239,7.709045723303706,False,False,False,1835.468670453105,None,1835.468670453105,None,1835.468670453105,None,1835.468670453105,None,1835.468670453105,None,1835.468670453105,None,1835.468670453105,None,1835.468670453105,None,1836.45458470807,None,1836.45458470807,None,1837.4516436684062,None,1837.4516436684062,None,h,,,,,,,,,,,,,,,,,,,,,,,,,,,,,,,,,,,,,,,,,,,,,,,7_8Exp,001,2021_Apr_26_1501,ComputerHuman,2020.1.3,59.997247713127976,
Human.xlsx,h,Sychronize.jpg,Number9.jpg,9,Human,,,,,0,9,9,8,0,9,9,7,,,,,,,,,,,,,,,,,,,,,,,,,,,,,1838.5019682317652,None,1838.5019682317652,None,1838.9518199447266,None,1838.9518199447266,None,v,10.571638920657279,1838.9518199447266,None,t,7.874098608874192,1838.9518199447266,None,10.571638920657279,7.874098608874192,9.552899456505607,False,False,False,1849.599549925977,None,1849.599549925977,None,1849.599549925977,None,1849.599549925977,None,1849.599549925977,None,1849.599549925977,None,1849.599549925977,None,1849.599549925977,None,1850.6014714822122,None,1850.6014714822122,None,1851.598743128994,None,1851.598743128994,None,h,,,,,,,,,,,,,,,,,,,,,,,,,,,,,,,,,,,,,,,,,,,,,,,7_8Exp,001,2021_Apr_26_1501,ComputerHuman,2020.1.3,59.997247713127976,
Human.xlsx,h,,,,,,,,,0,9,9,8,,,,,,,,,,,,,,,,,,,,,,,,,,,,,,,,,,,,,,,,,,,,,,,,,,,,,,,,,,,,,,,,,,,,,,,,,,,,,,,h,1852.5998290167809,None,1852.5998290167809,None,q,1,6.0711027134348114,1852.5998290167809,None,l,0,3.1582399956350855,1852.5998290167809,None,h,c,1858.7643636328648,None,1858.7643636328648,None,None,None,1860.7471443717477,None,1860.7471443717477,None,"['space', 'space']",1861.7303289903175,None,"[561.3904182031365, 563.0703806060774]",,,,,,,,,,,,,,,,,7_8Exp,001,2021_Apr_26_1501,ComputerHuman,2020.1.3,59.997247713127976,
Computer.xlsx,c,Sychronize.jpg,Number9.jpg,9,Computer,,,,,1,0,10,5,0,0,0,6,,,,,,,,,,,,,,,,,,,,,,,,,2424.857450040341,None,2424.857450040341,None,2427.920916893494,None,2427.920916893494,None,2428.354323421332,None,2428.354323421332,None,v,8.486077378725895,2428.354323421332,None,t,9.497070669320237,2428.354323421332,None,8.486077378725895,9.497070669320237,9.059715268765059,False,False,False,2437.935217891325,None,2437.935217891325,None,2437.935217891325,None,2437.935217891325,None,2437.935217891325,None,2437.935217891325,None,2437.935217891325,None,2437.935217891325,None,2438.951885707502,None,2438.951885707502,None,2439.9350408130194,None,2439.9350408130194,None,c,,,,,,,,,,,,,,,,,,,,,,,,,,,,,,,,,,,,,,,,,,,,,,,7_8Exp,001,2021_Apr_26_1501,ComputerHuman,2020.1.3,59.997247713127976,
Computer.xlsx,c,Sychronize.jpg,Number6.jpg,6,Computer,,,,,1,0,10,5,0,1,1,1,,,,,,,,,,,,,,,,,,,,,,,,,,,,,2440.9857740679727,None,2440.9857740679727,None,2441.4182891092023,None,2441.4182891092023,None,v,6.585813204841543,2441.4182891092023,None,t,5.397158406485687,2441.4182891092023,None,6.585813204841543,5.397158406485687,6.272464470604029,False,False,False,2448.116837676618,None,2448.116837676618,None,2448.116837676618,None,2448.116837676618,None,2448.116837676618,None,2448.116837676618,None,2448.116837676618,None,2448.116837676618,None,2449.0999510789115,None,2449.0999510789115,None,2450.0830282314782,None,2450.0830282314782,None,c,,,,,,,,,,,,,,,,,,,,,,,,,,,,,,,,,,,,,,,,,,,,,,,7_8Exp,001,2021_Apr_26_1501,ComputerHuman,2020.1.3,59.997247713127976,
Computer.xlsx,c,Sychronize.jpg,Number10.jpg,10,Computer,,,,,1,0,10,5,0,2,2,8,,,,,,,,,,,,,,,,,,,,,,,,,,,,,2451.133014357136,None,2451.133014357136,None,2451.583180448244,None,2451.583180448244,None,v,10.532571019786701,2451.583180448244,None,t,9.992048799187614,2451.583180448244,None,10.532571019786701,9.992048799187614,9.359397534631862,False,False,False,2462.214135788905,None,2462.214135788905,None,2462.214135788905,None,2462.214135788905,None,2462.214135788905,None,2462.214135788905,None,2462.214135788905,None,2462.214135788905,None,2463.1972078087674,None,2463.1972078087674,None,2464.180117186057,None,2464.180117186057,None,c,,,,,,,,,,,,,,,,,,,,,,,,,,,,,,,,,,,,,,,,,,,,,,,7_8Exp,001,2021_Apr_26_1501,ComputerHuman,2020.1.3,59.997247713127976,
Computer.xlsx,c,Sychronize.jpg,Number8.jpg,8,Computer,,,,,1,0,10,5,0,3,3,5,,,,,,,,,,,,,,,,,,,,,,,,,,,,,2465.247219277153,None,2465.247219277153,None,2465.697215347427,None,2465.697215347427,None,v,7.84631560037451,2465.697215347427,None,t,7.709120013860229,2465.697215347427,None,7.84631560037451,7.709120013860229,8.355627261848209,False,False,False,2473.6284242757683,None,2473.6284242757683,None,2473.6284242757683,None,2473.6284242757683,None,2473.6284242757683,None,2473.6284242757683,None,2473.6284242757683,None,2473.6284242757683,None,2474.6283405485265,None,2474.6283405485265,None,2475.594858634089,None,2475.594858634089,None,c,,,,,,,,,,,,,,,,,,,,,,,,,,,,,,,,,,,,,,,,,,,,,,,7_8Exp,001,2021_Apr_26_1501,ComputerHuman,2020.1.3,59.997247713127976,
Computer.xlsx,c,Sychronize.jpg,Number9.jpg,9,Computer,,,,,1,0,10,5,0,4,4,7,,,,,,,,,,,,,,,,,,,,,,,,,,,,,2476.661092977338,None,2476.661092977338,None,2477.09500154783,None,2477.09500154783,None,v,8.996193137256341,2477.09500154783,None,t,10.155050982193643,2477.09500154783,None,8.996193137256341,10.155050982193643,8.62876746781962,False,False,False,2487.3425499596597,None,2487.3425499596597,None,2487.3425499596597,None,2487.3425499596597,None,2487.3425499596597,None,2487.3425499596597,None,2487.3425499596597,None,2487.3425499596597,None,2488.3423199503413,None,2488.3423199503413,None,2489.3254952658826,None,2489.3254952658826,None,c,,,,,,,,,,,,,,,,,,,,,,,,,,,,,,,,,,,,,,,,,,,,,,,7_8Exp,001,2021_Apr_26_1501,ComputerHuman,2020.1.3,59.997247713127976,
Computer.xlsx,c,Sychronize.jpg,Number7.jpg,7,Computer,,,,,1,0,10,5,0,5,5,2,,,,,,,,,,,,,,,,,,,,,,,,,,,,,2490.3755933486573,None,2490.3755933486573,None,2490.8259185536044,None,2490.8259185536044,None,v,6.876988642285141,2490.8259185536044,None,t,7.876102288384573,2490.8259185536044,None,6.876988642285141,7.876102288384573,7.460747411657207,False,False,False,2498.7903004717264,None,2498.7903004717264,None,2498.7903004717264,None,2498.7903004717264,None,2498.7903004717264,None,2498.7903004717264,None,2498.7903004717264,None,2498.7903004717264,None,2499.7901320548626,None,2499.7901320548626,None,2500.773291651494,None,2500.773291651494,None,c,,,,,,,,,,,,,,,,,,,,,,,,,,,,,,,,,,,,,,,,,,,,,,,7_8Exp,001,2021_Apr_26_1501,ComputerHuman,2020.1.3,59.997247713127976,
Computer.xlsx,c,Sychronize.jpg,Number6.jpg,6,Computer,,,,,1,0,10,5,0,6,6,0,,,,,,,,,,,,,,,,,,,,,,,,,,,,,2501.8234753862744,None,2501.8234753862744,None,2502.2736392318257,None,2502.2736392318257,None,v,5.925020169925119,2502.2736392318257,None,t,0.5202589449399966,2502.2736392318257,None,5.925020169925119,0.5202589449399966,5.991718995895557,False,True,False,2508.288334485518,None,2508.288334485518,None,2508.288334485518,None,2508.288334485518,None,2508.288334485518,None,2508.288334485518,None,2508.288334485518,None,2508.288334485518,None,2509.2882764217975,None,2509.2882764217975,None,2510.2546812670735,None,2510.2546812670735,None,c,,,,,,,,,,,,,,,,,,,,,,,,,,,,,,,,,,,,,,,,,,,,,,,7_8Exp,001,2021_Apr_26_1501,ComputerHuman,2020.1.3,59.997247713127976,
Computer.xlsx,c,Sychronize.jpg,Number10.jpg,10,Computer,,,,,1,0,10,5,0,7,7,9,,,,,,,,,,,,,,,,,,,,,,,,,,,,,2511.3213518901975,None,2511.3213518901975,None,2511.7552068880905,None,2511.7552068880905,None,v,10.47152038726199,2511.7552068880905,None,t,10.21403217243278,2511.7552068880905,None,10.47152038726199,10.21403217243278,10.320126779008353,False,True,True,2522.3190890091137,None,2522.3190890091137,None,2522.3190890091137,None,2522.3190890091137,None,2522.3190890091137,None,2522.3190890091137,None,2522.3190890091137,None,2522.3190890091137,None,2523.3189517092687,None,2523.3189517092687,None,2524.2853818972726,None,2524.2853818972726,None,c,,,,,,,,,,,,,,,,,,,,,,,,,,,,,,,,,,,,,,,,,,,,,,,7_8Exp,001,2021_Apr_26_1501,ComputerHuman,2020.1.3,59.997247713127976,
Computer.xlsx,c,Sychronize.jpg,Number8.jpg,8,Computer,,,,,1,0,10,5,0,8,8,4,,,,,,,,,,,,,,,,,,,,,,,,,,,,,2525.3533430747775,None,2525.3533430747775,None,2525.785549512151,None,2525.785549512151,None,v,7.668406760414655,2525.785549512151,None,t,7.384083804234251,2525.785549512151,None,7.668406760414655,7.384083804234251,7.816140905590149,False,True,False,2533.5501973685277,None,2533.5501973685277,None,2533.5501973685277,None,2533.5501973685277,None,2533.5501973685277,None,2533.5501973685277,None,2533.5501973685277,None,2533.5501973685277,None,2534.5500132327543,None,2534.5500132327543,None,2535.533207154349,None,2535.533207154349,None,c,,,,,,,,,,,,,,,,,,,,,,,,,,,,,,,,,,,,,,,,,,,,,,,7_8Exp,001,2021_Apr_26_1501,ComputerHuman,2020.1.3,59.997247713127976,
Computer.xlsx,c,Sychronize.jpg,Number7.jpg,7,Computer,,,,,1,0,10,5,0,9,9,3,,,,,,,,,,,,,,,,,,,,,,,,,,,,,2536.5833758118097,None,2536.5833758118097,None,2537.0336788819695,None,2537.0336788819695,None,v,7.012084311088984,2537.0336788819695,None,t,6.871553108252556,2537.0336788819695,None,7.012084311088984,6.871553108252556,6.885665000819036,False,True,True,2544.1158072861945,None,2544.1158072861945,None,2544.1158072861945,None,2544.1158072861945,None,2544.1158072861945,None,2544.1158072861945,None,2544.1158072861945,None,2544.1158072861945,None,2545.1146434454567,None,2545.1146434454567,None,2546.0978011173247,None,2546.0978011173247,None,c,,,,,,,,,,,,,,,,,,,,,,,,,,,,,,,,,,,,,,,,,,,,,,,7_8Exp,001,2021_Apr_26_1501,ComputerHuman,2020.1.3,59.997247713127976,
Computer.xlsx,c,,,,,,,,,1,0,10,5,,,,,,,,,,,,,,,,,,,,,,,,,,,,,,,,,,,,,,,,,,,,,,,,,,,,,,,,,,,,,,,,,,,,,,,,,,,,,,,c,2547.0985312445373,None,2547.0985312445373,None,a,0,4.878966337477323,2547.0985312445373,None,o,0,5.946191292689036,2547.0985312445373,None,c,h,2553.1301323435764,None,2553.1301323435764,None,2555.1293630794935,None,None,None,None,None,None,None,None,,,,,,,,,,,,,,,,,,7_8Exp,001,2021_Apr_26_1501,ComputerHuman,2020.1.3,59.997247713127976,
Human.xlsx,h,Sychronize.jpg,Number7.jpg,7,Human,,,,,1,1,11,0,0,0,0,3,,,,,,,,,,,,,,,,,,,,,,,,,2560.114954615663,None,2560.114954615663,None,2563.178071803326,None,2563.178071803326,None,2563.627937631223,None,2563.627937631223,None,v,6.985126705618313,2563.627937631223,None,t,6.252067437319056,2563.627937631223,None,6.985126705618313,6.252067437319056,7.0720218847887075,False,False,False,2570.694771217717,None,2570.694771217717,None,2570.694771217717,None,2570.694771217717,None,2570.694771217717,None,2570.694771217717,None,2570.694771217717,None,2570.694771217717,None,2571.7124565925587,None,2571.7124565925587,None,2572.709447223766,None,2572.709447223766,None,h,,,,,,,,,,,,,,,,,,,,,,,,,,,,,,,,,,,,,,,,,,,,,,,7_8Exp,001,2021_Apr_26_1501,ComputerHuman,2020.1.3,59.997247713127976,
Human.xlsx,h,Sychronize.jpg,Number8.jpg,8,Human,,,,,1,1,11,0,0,1,1,5,,,,,,,,,,,,,,,,,,,,,,,,,,,,,2573.759832096406,None,2573.759832096406,None,2574.19273754397,None,2574.19273754397,None,v,8.336016347664554,2574.19273754397,None,t,7.423133419841179,2574.19273754397,None,8.336016347664554,7.423133419841179,8.282389810000874,False,False,False,2582.6240941979595,None,2582.6240941979595,None,2582.6240941979595,None,2582.6240941979595,None,2582.6240941979595,None,2582.6240941979595,None,2582.6240941979595,None,2582.6240941979595,None,2583.6101932302845,None,2583.6101932302845,None,2584.606968287906,None,2584.606968287906,None,h,,,,,,,,,,,,,,,,,,,,,,,,,,,,,,,,,,,,,,,,,,,,,,,7_8Exp,001,2021_Apr_26_1501,ComputerHuman,2020.1.3,59.997247713127976,
Human.xlsx,h,Sychronize.jpg,Number9.jpg,9,Human,,,,,1,1,11,0,0,2,2,6,,,,,,,,,,,,,,,,,,,,,,,,,,,,,2585.657231900401,None,2585.657231900401,None,2586.1073322287302,None,2586.1073322287302,None,v,8.629139325657889,2586.1073322287302,None,t,8.508102775991574,2586.1073322287302,None,8.629139325657889,8.508102775991574,8.681026570863649,True,False,False,2594.8217957087363,None,2594.8217957087363,None,2594.8217957087363,None,2594.8217957087363,None,2594.8217957087363,None,2594.8217957087363,None,2594.8217957087363,None,2594.8217957087363,None,2595.7907540744854,None,2595.7907540744854,None,2596.7880873137183,None,2596.7880873137183,None,h,,,,,,,,,,,,,,,,,,,,,,,,,,,,,,,,,,,,,,,,,,,,,,,7_8Exp,001,2021_Apr_26_1501,ComputerHuman,2020.1.3,59.997247713127976,
Human.xlsx,h,Sychronize.jpg,Number10.jpg,10,Human,,,,,1,1,11,0,0,3,3,8,,,,,,,,,,,,,,,,,,,,,,,,,,,,,2597.8711697593862,None,2597.8711697593862,None,2598.3050456088895,None,2598.3050456088895,None,v,9.803088925706106,2598.3050456088895,None,t,9.326062429729063,2598.3050456088895,None,9.803088925706106,9.326062429729063,10.384280643366592,False,False,False,2608.2024749259363,None,2608.2024749259363,None,2608.2024749259363,None,2608.2024749259363,None,2608.2024749259363,None,2608.2024749259363,None,2608.2024749259363,None,2608.2024749259363,None,2609.171292463103,None,2609.171292463103,None,2610.1687010889364,None,2610.1687010889364,None,h,,,,,,,,,,,,,,,,,,,,,,,,,,,,,,,,,,,,,,,,,,,,,,,7_8Exp,001,2021_Apr_26_1501,ComputerHuman,2020.1.3,59.997247713127976,
Human.xlsx,h,Sychronize.jpg,Number9.jpg,9,Human,,,,,1,1,11,0,0,4,4,7,,,,,,,,,,,,,,,,,,,,,,,,,,,,,2611.218962135077,None,2611.218962135077,None,2611.6689190684774,None,2611.6689190684774,None,v,9.010990082653734,2611.6689190684774,None,t,8.978066991418018,2611.6689190684774,None,9.010990082653734,8.978066991418018,9.011123468009506,True,False,False,2620.7666335714166,None,2620.7666335714166,None,2620.7666335714166,None,2620.7666335714166,None,2620.7666335714166,None,2620.7666335714166,None,2620.7666335714166,None,2620.7666335714166,None,2621.751702213318,None,2621.751702213318,None,2622.749676078227,None,2622.749676078227,None,h,,,,,,,,,,,,,,,,,,,,,,,,,,,,,,,,,,,,,,,,,,,,,,,7_8Exp,001,2021_Apr_26_1501,ComputerHuman,2020.1.3,59.997247713127976,
Human.xlsx,h,Sychronize.jpg,Number8.jpg,8,Human,,,,,1,1,11,0,0,5,5,4,,,,,,,,,,,,,,,,,,,,,,,,,,,,,2623.799517204985,None,2623.799517204985,None,2624.2332685864058,None,2624.2332685864058,None,v,7.58632198417763,2624.2332685864058,None,t,7.593143669208075,2624.2332685864058,None,7.58632198417763,7.593143669208075,7.500918728151533,True,False,False,2631.9162958555025,None,2631.9162958555025,None,2631.9162958555025,None,2631.9162958555025,None,2631.9162958555025,None,2631.9162958555025,None,2631.9162958555025,None,2631.9162958555025,None,2632.9166750340446,None,2632.9166750340446,None,2633.9142103735176,None,2633.9142103735176,None,h,,,,,,,,,,,,,,,,,,,,,,,,,,,,,,,,,,,,,,,,,,,,,,,7_8Exp,001,2021_Apr_26_1501,ComputerHuman,2020.1.3,59.997247713127976,
Human.xlsx,h,Sychronize.jpg,Number7.jpg,7,Human,,,,,1,1,11,0,0,6,6,2,,,,,,,,,,,,,,,,,,,,,,,,,,,,,2634.96391195487,None,2634.96391195487,None,2635.413766234182,None,2635.413766234182,None,v,6.749547119030467,2635.413766234182,None,t,6.969204735560197,2635.413766234182,None,6.749547119030467,6.969204735560197,7.0386668529505325,True,False,False,2642.4791668337457,None,2642.4791668337457,None,2642.4791668337457,None,2642.4791668337457,None,2642.4791668337457,None,2642.4791668337457,None,2642.4791668337457,None,2642.4791668337457,None,2643.448432840967,None,2643.448432840967,None,2644.4454911597168,None,2644.4454911597168,None,h,,,,,,,,,,,,,,,,,,,,,,,,,,,,,,,,,,,,,,,,,,,,,,,7_8Exp,001,2021_Apr_26_1501,ComputerHuman,2020.1.3,59.997247713127976,
Human.xlsx,h,Sychronize.jpg,Number6.jpg,6,Human,,,,,1,1,11,0,0,7,7,1,,,,,,,,,,,,,,,,,,,,,,,,,,,,,2645.5118996941237,None,2645.5118996941237,None,2645.9456568498354,None,2645.9456568498354,None,v,5.653411564304406,2645.9456568498354,None,t,5.665193687415012,2645.9456568498354,None,5.653411564304406,5.665193687415012,5.653628395651689,True,False,False,2651.6957175601055,None,2651.6957175601055,None,2651.6957175601055,None,2651.6957175601055,None,2651.6957175601055,None,2651.6957175601055,None,2651.6957175601055,None,2651.6957175601055,None,2652.696434855552,None,2652.696434855552,None,2653.6936808388127,None,2653.6936808388127,None,h,,,,,,,,,,,,,,,,,,,,,,,,,,,,,,,,,,,,,,,,,,,,,,,7_8Exp,001,2021_Apr_26_1501,ComputerHuman,2020.1.3,59.997247713127976,
Human.xlsx,h,Sychronize.jpg,Number6.jpg,6,Human,,,,,1,1,11,0,0,8,8,0,,,,,,,,,,,,,,,,,,,,,,,,,,,,,2654.7437192538964,None,2654.7437192538964,None,2655.1938744380095,None,2655.1938744380095,None,v,5.493025456609757,2655.1938744380095,None,t,5.760155135994864,2655.1938744380095,None,5.493025456609757,5.760155135994864,5.65017060952275,True,False,False,2661.0422444033466,None,2661.0422444033466,None,2661.0422444033466,None,2661.0422444033466,None,2661.0422444033466,None,2661.0422444033466,None,2661.0422444033466,None,2661.0422444033466,None,2662.011235810878,None,2662.011235810878,None,2663.008354118112,None,2663.008354118112,None,h,,,,,,,,,,,,,,,,,,,,,,,,,,,,,,,,,,,,,,,,,,,,,,,7_8Exp,001,2021_Apr_26_1501,ComputerHuman,2020.1.3,59.997247713127976,
Human.xlsx,h,Sychronize.jpg,Number10.jpg,10,Human,,,,,1,1,11,0,0,9,9,9,,,,,,,,,,,,,,,,,,,,,,,,,,,,,2664.092147764146,None,2664.092147764146,None,2664.5086869419174,None,2664.5086869419174,None,v,9.501845046859671,2664.5086869419174,None,t,10.697129695421609,2664.5086869419174,None,9.501845046859671,10.697129695421609,9.850528927611048,False,False,False,2675.2894213356885,None,2675.2894213356885,None,2675.2894213356885,None,2675.2894213356885,None,2675.2894213356885,None,2675.2894213356885,None,2675.2894213356885,None,2675.2894213356885,None,2676.2588355497537,None,2676.2588355497537,None,2677.2558412582803,None,2677.2558412582803,None,h,,,,,,,,,,,,,,,,,,,,,,,,,,,,,,,,,,,,,,,,,,,,,,,7_8Exp,001,2021_Apr_26_1501,ComputerHuman,2020.1.3,59.997247713127976,
Human.xlsx,h,,,,,,,,,1,1,11,0,,,,,,,,,,,,,,,,,,,,,,,,,,,,,,,,,,,,,,,,,,,,,,,,,,,,,,,,,,,,,,,,,,,,,,,,,,,,,,,h,2678.2562942194527,None,2678.2562942194527,None,q,0,3.274035733247729,2678.2562942194527,None,l,0,4.045179668715718,2678.2562942194527,None,h,c,2682.4050836229835,None,2682.4050836229835,None,2684.387742780931,None,None,None,None,None,None,None,None,,,,,,,,,,,,,,,,,,7_8Exp,001,2021_Apr_26_1501,ComputerHuman,2020.1.3,59.997247713127976,
