Condition,CorrectTuringReply,Sychronize,NumberImage,Number,Partner,trials.thisRepN,trials.thisTrialN,trials.thisN,trials.thisIndex,Block.thisRepN,Block.thisTrialN,Block.thisN,Block.thisIndex,trials_loop.thisRepN,trials_loop.thisTrialN,trials_loop.thisN,trials_loop.thisIndex,key_resp_Istr.keys,key_resp_Istr.rt,key_resp_Istr.started,key_resp_Istr.stopped,key_respPrLeft.keys,key_respPrLeft.rt,key_respPrRight.keys,key_respPrRight.rt,RTPrLeft,RTPrRight,CompPr,SychronizedRTsPr,SychronizedRTsLeftCPr,SychronizedRTsRightCPr,CreditLeftPr.started,CreditLeftPr.stopped,CreditRightPr.started,CreditRightPr.stopped,text_StartExp.started,text_StartExp.stopped,key_startExp.keys,key_startExp.rt,key_startExp.started,key_startExp.stopped,SychroLeft.started,SychroLeft.stopped,SychroRight.started,SychroRight.stopped,NumberLeft.started,NumberLeft.stopped,NumberRight.started,NumberRight.stopped,CrossLeft.started,CrossLeft.stopped,CrossRight.started,CrossRight.stopped,key_respLeft.keys,key_respLeft.rt,key_respLeft.started,key_respLeft.stopped,key_respRight.keys,key_respRight.rt,key_respRight.started,key_respRight.stopped,RTLeft,RTRight,Comp,SychronizedRTs,SychronizedRTsLeftC,SychronizedRTsRightC,FeedbackLeftLeft.started,FeedbackLeftLeft.stopped,FeedbackLeftRight.started,FeedbackLeftRight.stopped,FeedbackRightLeft.started,FeedbackRightLeft.stopped,FeedbackRightRight.started,FeedbackRightRight.stopped,textLeftLeft.started,textLeftLeft.stopped,textLeftRight.started,textLeftRight.stopped,textRightLeft.started,textRightLeft.stopped,textRightRight.started,textRightRight.stopped,CreditLeft.started,CreditLeft.stopped,CreditRight.started,CreditRight.stopped,BlankLeft.started,BlankLeft.stopped,BlankRight.started,BlankRight.stopped,CorrectTuringReply,TuringtextLeft.started,TuringtextLeft.stopped,TuringtextRight.started,TuringtextRight.stopped,keyTuringLeft.keys,keyTuringLeft.corr,keyTuringLeft.rt,keyTuringLeft.started,keyTuringLeft.stopped,keyTuringRight.keys,keyTuringRight.corr,keyTuringRight.rt,keyTuringRight.started,keyTuringRight.stopped,RespTuringLeft,RespTuringRight,ScoreLeft.started,ScoreLeft.stopped,ScoreRight.started,ScoreRight.stopped,BlockText.started,BlockText.stopped,text_Pause.started,text_Pause.stopped,text_LongPause.started,text_LongPause.stopped,key_respPause.keys,key_respPause.started,key_respPause.stopped,key_respPause.rt,QuestImageLeft.started,QuestImageLeft.stopped,QuestImageRight.started,QuestImageRight.stopped,respQuestLeft.keys,respQuestLeft.rt,respQuestLeft.started,respQuestLeft.stopped,respQuestRight.keys,respQuestRight.rt,respQuestRight.started,respQuestRight.stopped,RespInclusionLeft,RespInclusionRight,EndText.started,EndText.stopped,participant,session,date,expName,psychopyVersion,frameRate,
,,,,,,,,,,,,,,,,,,"['v', 't']","[196.5053239845256, 200.6810045672646]",17.35033723594097,None,,,,,,,,,,,,,,,,,,,,,,,,,,,,,,,,,,,,,,,,,,,,,,,,,,,,,,,,,,,,,,,,,,,,,,,,,,,,,,,,,,,,,,,,,,,,,,,,,,,,,,,,,,,,,,,,,,,,,,81_82Exp,001,2021_May_28_1515,ComputerHuman,2020.1.3,60.00739168069162,
,,,,,,,,,,,,,,,,,,,,,,v,5.179733637178288,t,4.715346945948113,5.179733637178288,4.715346945948113,6,False,False,False,275.6556007213694,None,275.6556007213694,None,276.672002199266,None,"['space', 'space']","[82.66649248316389, 88.28220967331072]",277.6550974176571,None,,,,,,,,,,,,,,,,,,,,,,,,,,,,,,,,,,,,,,,,,,,,,,,,,,,,,,,,,,,,,,,,,,,,,,,,,,,,,,,,,,,,,,,,,,,,,,,,,,81_82Exp,001,2021_May_28_1515,ComputerHuman,2020.1.3,60.00739168069162,
Human.xlsx,h,Sychronize.jpg,Number9.jpg,9,Human,,,,,0,0,0,2,0,0,0,6,,,,,,,,,,,,,,,,,,,,,,,,,366.0194880223971,None,366.0194880223971,None,369.08345154073686,None,369.08345154073686,None,369.5172460914546,None,369.5172460914546,None,v,8.063168304888677,369.5172460914546,None,t,7.7220704933133675,369.5172460914546,None,8.063168304888677,7.7220704933133675,8.869511102697572,False,False,False,377.64956973787775,None,377.64956973787775,None,377.64956973787775,None,377.64956973787775,None,377.64956973787775,None,377.64956973787775,None,377.64956973787775,None,377.64956973787775,None,378.6676982949248,None,378.6676982949248,None,379.6642149456493,None,379.6642149456493,None,h,,,,,,,,,,,,,,,,,,,,,,,,,,,,,,,,,,,,,,,,,,,,,,,81_82Exp,001,2021_May_28_1515,ComputerHuman,2020.1.3,60.00739168069162,
Human.xlsx,h,Sychronize.jpg,Number8.jpg,8,Human,,,,,0,0,0,2,0,1,1,5,,,,,,,,,,,,,,,,,,,,,,,,,,,,,380.71385692316835,None,380.71385692316835,None,381.1471654922898,None,381.1471654922898,None,v,7.152481136534334,381.1471654922898,None,t,6.412130998825887,381.1471654922898,None,7.152481136534334,6.412130998825887,7.84843683255114,False,False,False,388.39531379013715,None,388.39531379013715,None,388.39531379013715,None,388.39531379013715,None,388.39531379013715,None,388.39531379013715,None,388.39531379013715,None,388.39531379013715,None,389.38063586280987,None,389.38063586280987,None,390.3783201524857,None,390.3783201524857,None,h,,,,,,,,,,,,,,,,,,,,,,,,,,,,,,,,,,,,,,,,,,,,,,,81_82Exp,001,2021_May_28_1515,ComputerHuman,2020.1.3,60.00739168069162,
Human.xlsx,h,Sychronize.jpg,Number7.jpg,7,Human,,,,,0,0,0,2,0,2,2,3,,,,,,,,,,,,,,,,,,,,,,,,,,,,,391.41191190613245,None,391.41191190613245,None,391.8784683528138,None,391.8784683528138,None,v,6.14453060593587,391.8784683528138,None,t,5.5001793159826775,391.8784683528138,None,6.14453060593587,5.5001793159826775,6.524119617899192,False,False,False,398.10974426782195,None,398.10974426782195,None,398.10974426782195,None,398.10974426782195,None,398.10974426782195,None,398.10974426782195,None,398.10974426782195,None,398.10974426782195,None,399.0790507608581,None,399.0790507608581,None,400.07607809323235,None,400.07607809323235,None,h,,,,,,,,,,,,,,,,,,,,,,,,,,,,,,,,,,,,,,,,,,,,,,,81_82Exp,001,2021_May_28_1515,ComputerHuman,2020.1.3,60.00739168069162,
Human.xlsx,h,Sychronize.jpg,Number6.jpg,6,Human,,,,,0,0,0,2,0,3,3,1,,,,,,,,,,,,,,,,,,,,,,,,,,,,,401.14347299449946,None,401.14347299449946,None,401.5759658202551,None,401.5759658202551,None,v,5.150385160464793,401.5759658202551,None,t,5.333155942029407,401.5759658202551,None,5.150385160464793,5.333155942029407,5.8981428701873,True,False,False,407.00778372503555,None,407.00778372503555,None,407.00778372503555,None,407.00778372503555,None,407.00778372503555,None,407.00778372503555,None,407.00778372503555,None,407.00778372503555,None,407.9933130215468,None,407.9933130215468,None,408.99058735447034,None,408.99058735447034,None,h,,,,,,,,,,,,,,,,,,,,,,,,,,,,,,,,,,,,,,,,,,,,,,,81_82Exp,001,2021_May_28_1515,ComputerHuman,2020.1.3,60.00739168069162,
Human.xlsx,h,Sychronize.jpg,Number7.jpg,7,Human,,,,,0,0,0,2,0,4,4,2,,,,,,,,,,,,,,,,,,,,,,,,,,,,,410.04118140682476,None,410.04118140682476,None,410.47391481752857,None,410.47391481752857,None,v,6.487789511906158,410.47391481752857,None,t,5.811101680181309,410.47391481752857,None,6.487789511906158,5.811101680181309,6.557032680132987,False,False,False,417.05534031222123,None,417.05534031222123,None,417.05534031222123,None,417.05534031222123,None,417.05534031222123,None,417.05534031222123,None,417.05534031222123,None,417.05534031222123,None,418.0246442390162,None,418.0246442390162,None,419.03819783268045,None,419.03819783268045,None,h,,,,,,,,,,,,,,,,,,,,,,,,,,,,,,,,,,,,,,,,,,,,,,,81_82Exp,001,2021_May_28_1515,ComputerHuman,2020.1.3,60.00739168069162,
Human.xlsx,h,Sychronize.jpg,Number10.jpg,10,Human,,,,,0,0,0,2,0,5,5,8,,,,,,,,,,,,,,,,,,,,,,,,,,,,,420.0884268374757,None,420.0884268374757,None,420.538546841246,None,420.538546841246,None,v,9.186239374965226,420.538546841246,None,t,8.845980723690445,420.538546841246,None,9.186239374965226,8.845980723690445,9.61478202378053,False,False,False,429.8189672041008,None,429.8189672041008,None,429.8189672041008,None,429.8189672041008,None,429.8189672041008,None,429.8189672041008,None,429.8189672041008,None,429.8189672041008,None,430.78760711643554,None,430.78760711643554,None,431.7851611694605,None,431.7851611694605,None,h,,,,,,,,,,,,,,,,,,,,,,,,,,,,,,,,,,,,,,,,,,,,,,,81_82Exp,001,2021_May_28_1515,ComputerHuman,2020.1.3,60.00739168069162,
Human.xlsx,h,Sychronize.jpg,Number9.jpg,9,Human,,,,,0,0,0,2,0,6,6,7,,,,,,,,,,,,,,,,,,,,,,,,,,,,,432.85192317192195,None,432.85192317192195,None,433.284751533487,None,433.284751533487,None,v,8.023285094444873,433.284751533487,None,t,7.791087899473496,433.284751533487,None,8.023285094444873,7.791087899473496,8.40188742890343,True,False,False,441.38421640840534,None,441.38421640840534,None,441.38421640840534,None,441.38421640840534,None,441.38421640840534,None,441.38421640840534,None,441.38421640840534,None,441.38421640840534,None,442.3850459453097,None,442.3850459453097,None,443.38245372268284,None,443.38245372268284,None,h,,,,,,,,,,,,,,,,,,,,,,,,,,,,,,,,,,,,,,,,,,,,,,,81_82Exp,001,2021_May_28_1515,ComputerHuman,2020.1.3,60.00739168069162,
Human.xlsx,h,Sychronize.jpg,Number6.jpg,6,Human,,,,,0,0,0,2,0,7,7,0,,,,,,,,,,,,,,,,,,,,,,,,,,,,,444.4322297862127,None,444.4322297862127,None,444.86589249637836,None,444.86589249637836,None,v,5.109545384264493,444.86589249637836,None,t,4.9452111084792705,444.86589249637836,None,5.109545384264493,4.9452111084792705,6.225985837242479,True,False,False,450.0641283992227,None,450.0641283992227,None,450.0641283992227,None,450.0641283992227,None,450.0641283992227,None,450.0641283992227,None,450.0641283992227,None,450.0641283992227,None,451.033444515655,None,451.033444515655,None,452.0470160729965,None,452.0470160729965,None,h,,,,,,,,,,,,,,,,,,,,,,,,,,,,,,,,,,,,,,,,,,,,,,,81_82Exp,001,2021_May_28_1515,ComputerHuman,2020.1.3,60.00739168069162,
Human.xlsx,h,Sychronize.jpg,Number10.jpg,10,Human,,,,,0,0,0,2,0,8,8,9,,,,,,,,,,,,,,,,,,,,,,,,,,,,,453.09782216088934,None,453.09782216088934,None,453.54655799925604,None,453.54655799925604,None,v,8.535986696617329,453.54655799925604,None,t,8.578985963311425,453.54655799925604,None,8.535986696617329,8.578985963311425,9.39684048305473,True,False,False,462.2112531524617,None,462.2112531524617,None,462.2112531524617,None,462.2112531524617,None,462.2112531524617,None,462.2112531524617,None,462.2112531524617,None,462.2112531524617,None,463.1963147518327,None,463.1963147518327,None,464.17746187369994,None,464.17746187369994,None,h,,,,,,,,,,,,,,,,,,,,,,,,,,,,,,,,,,,,,,,,,,,,,,,81_82Exp,001,2021_May_28_1515,ComputerHuman,2020.1.3,60.00739168069162,
Human.xlsx,h,Sychronize.jpg,Number8.jpg,8,Human,,,,,0,0,0,2,0,9,9,4,,,,,,,,,,,,,,,,,,,,,,,,,,,,,465.22764468618334,None,465.22764468618334,None,465.6775468803826,None,465.6775468803826,None,v,7.1723877767472,465.6775468803826,None,t,6.859101906011347,465.6775468803826,None,7.1723877767472,6.859101906011347,8.103346217418602,False,False,False,472.9269442952791,None,472.9269442952791,None,472.9269442952791,None,472.9269442952791,None,472.9269442952791,None,472.9269442952791,None,472.9269442952791,None,472.9269442952791,None,473.92777960622334,None,473.92777960622334,None,474.9249445531859,None,474.9249445531859,None,h,,,,,,,,,,,,,,,,,,,,,,,,,,,,,,,,,,,,,,,,,,,,,,,81_82Exp,001,2021_May_28_1515,ComputerHuman,2020.1.3,60.00739168069162,
Human.xlsx,h,,,,,,,,,0,0,0,2,,,,,,,,,,,,,,,,,,,,,,,,,,,,,,,,,,,,,,,,,,,,,,,,,,,,,,,,,,,,,,,,,,,,,,,,,,,,,,,h,475.92600152306113,None,475.92600152306113,None,a,0,8.998987297756685,475.92600152306113,None,o,1,14.189589600573527,475.92600152306113,None,c,h,490.22139845935817,None,490.22139845935817,None,492.2041459523025,None,None,None,None,None,None,None,None,,,,,,,,,,,,,,,,,,81_82Exp,001,2021_May_28_1515,ComputerHuman,2020.1.3,60.00739168069162,
Computer.xlsx,c,Sychronize.jpg,Number9.jpg,9,Computer,,,,,0,1,1,9,0,0,0,7,,,,,,,,,,,,,,,,,,,,,,,,,497.20583453786094,None,497.20583453786094,None,500.2694586710313,None,500.2694586710313,None,500.7024596122028,None,500.7024596122028,None,v,7.881017590931151,500.7024596122028,None,t,7.024083515694656,500.7024596122028,None,7.881017590931151,7.024083515694656,8.802828184515482,False,False,False,508.66681133841485,None,508.66681133841485,None,508.66681133841485,None,508.66681133841485,None,508.66681133841485,None,508.66681133841485,None,508.66681133841485,None,508.66681133841485,None,509.68337609329683,None,509.68337609329683,None,510.6664770857242,None,510.6664770857242,None,c,,,,,,,,,,,,,,,,,,,,,,,,,,,,,,,,,,,,,,,,,,,,,,,81_82Exp,001,2021_May_28_1515,ComputerHuman,2020.1.3,60.00739168069162,
Computer.xlsx,c,Sychronize.jpg,Number10.jpg,10,Computer,,,,,0,1,1,9,0,1,1,9,,,,,,,,,,,,,,,,,,,,,,,,,,,,,511.71682157129544,None,511.71682157129544,None,512.149356740003,None,512.149356740003,None,v,8.797186246752972,512.149356740003,None,t,8.309018535306677,512.149356740003,None,8.797186246752972,8.309018535306677,9.577821989364814,False,False,False,521.0306351250147,None,521.0306351250147,None,521.0306351250147,None,521.0306351250147,None,521.0306351250147,None,521.0306351250147,None,521.0306351250147,None,521.0306351250147,None,522.0303756140529,None,522.0303756140529,None,523.0135170247522,None,523.0135170247522,None,c,,,,,,,,,,,,,,,,,,,,,,,,,,,,,,,,,,,,,,,,,,,,,,,81_82Exp,001,2021_May_28_1515,ComputerHuman,2020.1.3,60.00739168069162,
Computer.xlsx,c,Sychronize.jpg,Number8.jpg,8,Computer,,,,,0,1,1,9,0,2,2,4,,,,,,,,,,,,,,,,,,,,,,,,,,,,,524.0641264745427,None,524.0641264745427,None,524.5137200784484,None,524.5137200784484,None,v,6.716070304697496,524.5137200784484,None,t,6.659119035659387,524.5137200784484,None,6.716070304697496,6.659119035659387,7.5453075070574105,False,False,False,531.3281565867983,None,531.3281565867983,None,531.3281565867983,None,531.3281565867983,None,531.3281565867983,None,531.3281565867983,None,531.3281565867983,None,531.3281565867983,None,532.3111032840789,None,532.3111032840789,None,533.2944490315967,None,533.2944490315967,None,c,,,,,,,,,,,,,,,,,,,,,,,,,,,,,,,,,,,,,,,,,,,,,,,81_82Exp,001,2021_May_28_1515,ComputerHuman,2020.1.3,60.00739168069162,
Computer.xlsx,c,Sychronize.jpg,Number7.jpg,7,Computer,,,,,0,1,1,9,0,3,3,2,,,,,,,,,,,,,,,,,,,,,,,,,,,,,534.3613072680382,None,534.3613072680382,None,534.7942010687075,None,534.7942010687075,None,v,7.20282401820441,534.7942010687075,None,t,5.95814655922004,534.7942010687075,None,7.20282401820441,5.95814655922004,6.689645750454035,False,False,False,542.0771036266706,None,542.0771036266706,None,542.0771036266706,None,542.0771036266706,None,542.0771036266706,None,542.0771036266706,None,542.0771036266706,None,542.0771036266706,None,543.0921225430648,None,543.0921225430648,None,544.0752187237958,None,544.0752187237958,None,c,,,,,,,,,,,,,,,,,,,,,,,,,,,,,,,,,,,,,,,,,,,,,,,81_82Exp,001,2021_May_28_1515,ComputerHuman,2020.1.3,60.00739168069162,
Computer.xlsx,c,Sychronize.jpg,Number8.jpg,8,Computer,,,,,0,1,1,9,0,4,4,5,,,,,,,,,,,,,,,,,,,,,,,,,,,,,545.1093942969164,None,545.1093942969164,None,545.558387080011,None,545.558387080011,None,v,7.729919978239195,545.558387080011,None,t,5.913184440119949,545.558387080011,None,7.729919978239195,5.913184440119949,8.325663432240486,False,False,False,553.357435775044,None,553.357435775044,None,553.357435775044,None,553.357435775044,None,553.357435775044,None,553.357435775044,None,553.357435775044,None,553.357435775044,None,554.3727523752132,None,554.3727523752132,None,555.3558004389524,None,555.3558004389524,None,c,,,,,,,,,,,,,,,,,,,,,,,,,,,,,,,,,,,,,,,,,,,,,,,81_82Exp,001,2021_May_28_1515,ComputerHuman,2020.1.3,60.00739168069162,
Computer.xlsx,c,Sychronize.jpg,Number6.jpg,6,Computer,,,,,0,1,1,9,0,5,5,1,,,,,,,,,,,,,,,,,,,,,,,,,,,,,556.4057574223662,None,556.4057574223662,None,556.8556060463161,None,556.8556060463161,None,v,5.392061081631255,556.8556060463161,None,t,5.4751706709648715,556.8556060463161,None,5.392061081631255,5.4751706709648715,5.953488082165633,False,False,False,562.4059094720542,None,562.4059094720542,None,562.4059094720542,None,562.4059094720542,None,562.4059094720542,None,562.4059094720542,None,562.4059094720542,None,562.4059094720542,None,563.4039110130798,None,563.4039110130798,None,564.3869982119722,None,564.3869982119722,None,c,,,,,,,,,,,,,,,,,,,,,,,,,,,,,,,,,,,,,,,,,,,,,,,81_82Exp,001,2021_May_28_1515,ComputerHuman,2020.1.3,60.00739168069162,
Computer.xlsx,c,Sychronize.jpg,Number7.jpg,7,Computer,,,,,0,1,1,9,0,6,6,3,,,,,,,,,,,,,,,,,,,,,,,,,,,,,565.4539295862378,None,565.4539295862378,None,565.8869840976549,None,565.8869840976549,None,v,7.2519488984762575,565.8869840976549,None,t,7.303087314372533,565.8869840976549,None,7.2519488984762575,7.303087314372533,7.069132684922565,False,True,True,573.2848785623391,None,573.2848785623391,None,573.2848785623391,None,573.2848785623391,None,573.2848785623391,None,573.2848785623391,None,573.2848785623391,None,573.2848785623391,None,574.2846569034082,None,574.2846569034082,None,575.2677838790114,None,575.2677838790114,None,c,,,,,,,,,,,,,,,,,,,,,,,,,,,,,,,,,,,,,,,,,,,,,,,81_82Exp,001,2021_May_28_1515,ComputerHuman,2020.1.3,60.00739168069162,
Computer.xlsx,c,Sychronize.jpg,Number6.jpg,6,Computer,,,,,0,1,1,9,0,7,7,0,,,,,,,,,,,,,,,,,,,,,,,,,,,,,576.3017730789907,None,576.3017730789907,None,576.7680607120928,None,576.7680607120928,None,v,6.254220020389766,576.7680607120928,None,t,7.09309065690104,576.7680607120928,None,6.254220020389766,7.09309065690104,6.0005836285193,False,True,False,583.9489446661028,None,583.9489446661028,None,583.9489446661028,None,583.9489446661028,None,583.9489446661028,None,583.9489446661028,None,583.9489446661028,None,583.9489446661028,None,584.9321309859915,None,584.9321309859915,None,585.9319115725193,None,585.9319115725193,None,c,,,,,,,,,,,,,,,,,,,,,,,,,,,,,,,,,,,,,,,,,,,,,,,81_82Exp,001,2021_May_28_1515,ComputerHuman,2020.1.3,60.00739168069162,
Computer.xlsx,c,Sychronize.jpg,Number9.jpg,9,Computer,,,,,0,1,1,9,0,8,8,6,,,,,,,,,,,,,,,,,,,,,,,,,,,,,586.9821328785947,None,586.9821328785947,None,587.4319324232165,None,587.4319324232165,None,v,8.181429600670526,587.4319324232165,None,t,8.696853982899484,587.4319324232165,None,8.181429600670526,8.696853982899484,9.231767368297424,False,False,False,596.1793868740679,None,596.1793868740679,None,596.1793868740679,None,596.1793868740679,None,596.1793868740679,None,596.1793868740679,None,596.1793868740679,None,596.1793868740679,None,597.1956889101857,None,597.1956889101857,None,598.1790061082902,None,598.1790061082902,None,c,,,,,,,,,,,,,,,,,,,,,,,,,,,,,,,,,,,,,,,,,,,,,,,81_82Exp,001,2021_May_28_1515,ComputerHuman,2020.1.3,60.00739168069162,
Computer.xlsx,c,Sychronize.jpg,Number10.jpg,10,Computer,,,,,0,1,1,9,0,9,9,8,,,,,,,,,,,,,,,,,,,,,,,,,,,,,599.2288835382788,None,599.2288835382788,None,599.6788976846728,None,599.6788976846728,None,v,9.561563442890474,599.6788976846728,None,t,9.469086758785124,599.6788976846728,None,9.561563442890474,9.469086758785124,9.75610295727009,False,True,True,609.3263403308265,None,609.3263403308265,None,609.3263403308265,None,609.3263403308265,None,609.3263403308265,None,609.3263403308265,None,609.3263403308265,None,609.3263403308265,None,610.3260975004159,None,610.3260975004159,None,611.2925416741236,None,611.2925416741236,None,c,,,,,,,,,,,,,,,,,,,,,,,,,,,,,,,,,,,,,,,,,,,,,,,81_82Exp,001,2021_May_28_1515,ComputerHuman,2020.1.3,60.00739168069162,
Computer.xlsx,c,,,,,,,,,0,1,1,9,,,,,,,,,,,,,,,,,,,,,,,,,,,,,,,,,,,,,,,,,,,,,,,,,,,,,,,,,,,,,,,,,,,,,,,,,,,,,,,c,612.2926436821399,None,612.2926436821399,None,q,0,5.15122752856405,612.2926436821399,None,l,1,15.00166003614504,612.2926436821399,None,h,c,627.3892571442484,None,627.3892571442484,None,629.3714955594405,None,None,None,None,None,None,None,None,,,,,,,,,,,,,,,,,,81_82Exp,001,2021_May_28_1515,ComputerHuman,2020.1.3,60.00739168069162,
Computer.xlsx,c,Sychronize.jpg,Number6.jpg,6,Computer,,,,,0,2,2,3,0,0,0,1,,,,,,,,,,,,,,,,,,,,,,,,,634.373451675463,None,634.373451675463,None,637.4541547737499,None,637.4541547737499,None,637.9032550181182,None,637.9032550181182,None,v,5.218816501692345,637.9032550181182,None,t,5.522262127244176,637.9032550181182,None,5.218816501692345,5.522262127244176,6.3622462192724525,False,False,False,643.5024963094256,None,643.5024963094256,None,643.5024963094256,None,643.5024963094256,None,643.5024963094256,None,643.5024963094256,None,643.5024963094256,None,643.5024963094256,None,644.5346233819037,None,644.5346233819037,None,645.5010951426848,None,645.5010951426848,None,c,,,,,,,,,,,,,,,,,,,,,,,,,,,,,,,,,,,,,,,,,,,,,,,81_82Exp,001,2021_May_28_1515,ComputerHuman,2020.1.3,60.00739168069162,
Computer.xlsx,c,Sychronize.jpg,Number8.jpg,8,Computer,,,,,0,2,2,3,0,1,1,5,,,,,,,,,,,,,,,,,,,,,,,,,,,,,646.5674151104031,None,646.5674151104031,None,647.0012683638488,None,647.0012683638488,None,v,7.444086774823518,647.0012683638488,None,t,7.315075181191787,647.0012683638488,None,7.444086774823518,7.315075181191787,8.018611646952618,False,False,False,654.516709426629,None,654.516709426629,None,654.516709426629,None,654.516709426629,None,654.516709426629,None,654.516709426629,None,654.516709426629,None,654.516709426629,None,655.5320366125379,None,655.5320366125379,None,656.5151616634612,None,656.5151616634612,None,c,,,,,,,,,,,,,,,,,,,,,,,,,,,,,,,,,,,,,,,,,,,,,,,81_82Exp,001,2021_May_28_1515,ComputerHuman,2020.1.3,60.00739168069162,
Computer.xlsx,c,Sychronize.jpg,Number7.jpg,7,Computer,,,,,0,2,2,3,0,2,2,2,,,,,,,,,,,,,,,,,,,,,,,,,,,,,657.565804474365,None,657.565804474365,None,658.0153480366025,None,658.0153480366025,None,v,6.989279534689558,658.0153480366025,None,t,6.408110663942352,658.0153480366025,None,6.989279534689558,6.408110663942352,7.448655617910927,False,False,False,665.0963731979355,None,665.0963731979355,None,665.0963731979355,None,665.0963731979355,None,665.0963731979355,None,665.0963731979355,None,665.0963731979355,None,665.0963731979355,None,666.0795454035106,None,666.0795454035106,None,667.0626281114819,None,667.0626281114819,None,c,,,,,,,,,,,,,,,,,,,,,,,,,,,,,,,,,,,,,,,,,,,,,,,81_82Exp,001,2021_May_28_1515,ComputerHuman,2020.1.3,60.00739168069162,
Computer.xlsx,c,Sychronize.jpg,Number8.jpg,8,Computer,,,,,0,2,2,3,0,3,3,4,,,,,,,,,,,,,,,,,,,,,,,,,,,,,668.1295764870847,None,668.1295764870847,None,668.5793577472505,None,668.5793577472505,None,v,7.776399065631267,668.5793577472505,None,t,7.53600562263091,668.5793577472505,None,7.776399065631267,7.53600562263091,7.713445301197065,False,True,True,676.4436989518836,None,676.4436989518836,None,676.4436989518836,None,676.4436989518836,None,676.4436989518836,None,676.4436989518836,None,676.4436989518836,None,676.4436989518836,None,677.4434776137277,None,677.4434776137277,None,678.40995482777,None,678.40995482777,None,c,,,,,,,,,,,,,,,,,,,,,,,,,,,,,,,,,,,,,,,,,,,,,,,81_82Exp,001,2021_May_28_1515,ComputerHuman,2020.1.3,60.00739168069162,
Computer.xlsx,c,Sychronize.jpg,Number9.jpg,9,Computer,,,,,0,2,2,3,0,4,4,6,,,,,,,,,,,,,,,,,,,,,,,,,,,,,679.4772393807398,None,679.4772393807398,None,679.910011605818,None,679.910011605818,None,v,9.20891466676403,679.910011605818,None,t,8.631962127437873,679.910011605818,None,9.20891466676403,8.631962127437873,8.695787776289967,False,False,True,689.1912704874121,None,689.1912704874121,None,689.1912704874121,None,689.1912704874121,None,689.1912704874121,None,689.1912704874121,None,689.1912704874121,None,689.1912704874121,None,690.2072312136806,None,690.2072312136806,None,691.1902308396529,None,691.1902308396529,None,c,,,,,,,,,,,,,,,,,,,,,,,,,,,,,,,,,,,,,,,,,,,,,,,81_82Exp,001,2021_May_28_1515,ComputerHuman,2020.1.3,60.00739168069162,
Computer.xlsx,c,Sychronize.jpg,Number10.jpg,10,Computer,,,,,0,2,2,3,0,5,5,8,,,,,,,,,,,,,,,,,,,,,,,,,,,,,692.2402173348164,None,692.2402173348164,None,692.6902468786502,None,692.6902468786502,None,v,10.615697943350824,692.6902468786502,None,t,9.850849200713128,692.6902468786502,None,10.615697943350824,9.850849200713128,9.612871392061894,False,False,True,703.3877469123327,None,703.3877469123327,None,703.3877469123327,None,703.3877469123327,None,703.3877469123327,None,703.3877469123327,None,703.3877469123327,None,703.3877469123327,None,704.4036165371035,None,704.4036165371035,None,705.3868137635109,None,705.3868137635109,None,c,,,,,,,,,,,,,,,,,,,,,,,,,,,,,,,,,,,,,,,,,,,,,,,81_82Exp,001,2021_May_28_1515,ComputerHuman,2020.1.3,60.00739168069162,
Computer.xlsx,c,Sychronize.jpg,Number9.jpg,9,Computer,,,,,0,2,2,3,0,6,6,7,,,,,,,,,,,,,,,,,,,,,,,,,,,,,706.4369843863569,None,706.4369843863569,None,706.8870819355325,None,706.8870819355325,None,v,9.793947973343165,706.8870819355325,None,t,9.280904098992323,706.8870819355325,None,9.793947973343165,9.280904098992323,9.36542500534896,False,False,True,716.7675009511113,None,716.7675009511113,None,716.7675009511113,None,716.7675009511113,None,716.7675009511113,None,716.7675009511113,None,716.7675009511113,None,716.7675009511113,None,717.7503757936865,None,717.7503757936865,None,718.7503340922958,None,718.7503340922958,None,c,,,,,,,,,,,,,,,,,,,,,,,,,,,,,,,,,,,,,,,,,,,,,,,81_82Exp,001,2021_May_28_1515,ComputerHuman,2020.1.3,60.00739168069162,
Computer.xlsx,c,Sychronize.jpg,Number10.jpg,10,Computer,,,,,0,2,2,3,0,7,7,9,,,,,,,,,,,,,,,,,,,,,,,,,,,,,719.8010141136729,None,719.8010141136729,None,720.250219253081,None,720.250219253081,None,v,11.485778221736837,720.250219253081,None,t,10.132864802162658,720.250219253081,None,11.485778221736837,10.132864802162658,10.210181842099708,False,False,True,731.8151778307692,None,731.8151778307692,None,731.8151778307692,None,731.8151778307692,None,731.8151778307692,None,731.8151778307692,None,731.8151778307692,None,731.8151778307692,None,732.8133673488373,None,732.8133673488373,None,733.7968282563488,None,733.7968282563488,None,c,,,,,,,,,,,,,,,,,,,,,,,,,,,,,,,,,,,,,,,,,,,,,,,81_82Exp,001,2021_May_28_1515,ComputerHuman,2020.1.3,60.00739168069162,
Computer.xlsx,c,Sychronize.jpg,Number7.jpg,7,Computer,,,,,0,2,2,3,0,8,8,3,,,,,,,,,,,,,,,,,,,,,,,,,,,,,734.8638972452063,None,734.8638972452063,None,735.3133481020413,None,735.3133481020413,None,v,7.757895196064055,735.3133481020413,None,t,6.909122724628105,735.3133481020413,None,7.757895196064055,6.909122724628105,6.740273442536244,False,False,True,743.1612583170208,None,743.1612583170208,None,743.1612583170208,None,743.1612583170208,None,743.1612583170208,None,743.1612583170208,None,743.1612583170208,None,743.1612583170208,None,744.1609503682848,None,744.1609503682848,None,745.1273977497913,None,745.1273977497913,None,c,,,,,,,,,,,,,,,,,,,,,,,,,,,,,,,,,,,,,,,,,,,,,,,81_82Exp,001,2021_May_28_1515,ComputerHuman,2020.1.3,60.00739168069162,
Computer.xlsx,c,Sychronize.jpg,Number6.jpg,6,Computer,,,,,0,2,2,3,0,9,9,0,,,,,,,,,,,,,,,,,,,,,,,,,,,,,746.1775016504107,None,746.1775016504107,None,746.627514513686,None,746.627514513686,None,v,6.027045918366639,746.627514513686,None,t,5.44617825997193,746.627514513686,None,6.027045918366639,5.44617825997193,6.346874994997952,False,False,False,752.7421436183067,None,752.7421436183067,None,752.7421436183067,None,752.7421436183067,None,752.7421436183067,None,752.7421436183067,None,752.7421436183067,None,752.7421436183067,None,753.7415280416171,None,753.7415280416171,None,754.7251612079526,None,754.7251612079526,None,c,,,,,,,,,,,,,,,,,,,,,,,,,,,,,,,,,,,,,,,,,,,,,,,81_82Exp,001,2021_May_28_1515,ComputerHuman,2020.1.3,60.00739168069162,
Computer.xlsx,c,,,,,,,,,0,2,2,3,,,,,,,,,,,,,,,,,,,,,,,,,,,,,,,,,,,,,,,,,,,,,,,,,,,,,,,,,,,,,,,,,,,,,,,,,,,,,,,c,755.7255313879941,None,755.7255313879941,None,q,0,3.6765495755753363,755.7255313879941,None,o,0,4.07624233255774,755.7255313879941,None,h,h,759.9084295191933,None,759.9084295191933,None,761.8733843116788,None,None,None,None,None,None,None,None,,,,,,,,,,,,,,,,,,81_82Exp,001,2021_May_28_1515,ComputerHuman,2020.1.3,60.00739168069162,
Computer.xlsx,c,Sychronize.jpg,Number9.jpg,9,Computer,,,,,0,3,3,7,0,0,0,6,,,,,,,,,,,,,,,,,,,,,,,,,766.8753269549452,None,766.8753269549452,None,769.9561227586273,None,769.9561227586273,None,770.405320520098,None,770.405320520098,None,v,8.04749788445406,770.405320520098,None,t,8.187032663736318,770.405320520098,None,8.04749788445406,8.187032663736318,9.06933428070094,False,False,False,778.6707428172558,None,778.6707428172558,None,778.6707428172558,None,778.6707428172558,None,778.6707428172558,None,778.6707428172558,None,778.6707428172558,None,778.6707428172558,None,779.7024531966017,None,779.7024531966017,None,780.6690439667364,None,780.6690439667364,None,c,,,,,,,,,,,,,,,,,,,,,,,,,,,,,,,,,,,,,,,,,,,,,,,81_82Exp,001,2021_May_28_1515,ComputerHuman,2020.1.3,60.00739168069162,
Computer.xlsx,c,Sychronize.jpg,Number6.jpg,6,Computer,,,,,0,3,3,7,0,1,1,0,,,,,,,,,,,,,,,,,,,,,,,,,,,,,781.7360625931433,None,781.7360625931433,None,782.1691199915804,None,782.1691199915804,None,v,6.550959099917236,782.1691199915804,None,t,5.542201487005514,782.1691199915804,None,6.550959099917236,5.542201487005514,6.08688970868376,False,False,False,788.8170255231744,None,788.8170255231744,None,788.8170255231744,None,788.8170255231744,None,788.8170255231744,None,788.8170255231744,None,788.8170255231744,None,788.8170255231744,None,789.8167111588409,None,789.8167111588409,None,790.7999077436907,None,790.7999077436907,None,c,,,,,,,,,,,,,,,,,,,,,,,,,,,,,,,,,,,,,,,,,,,,,,,81_82Exp,001,2021_May_28_1515,ComputerHuman,2020.1.3,60.00739168069162,
Computer.xlsx,c,Sychronize.jpg,Number8.jpg,8,Computer,,,,,0,3,3,7,0,2,2,4,,,,,,,,,,,,,,,,,,,,,,,,,,,,,791.8502971384478,None,791.8502971384478,None,792.3000354141041,None,792.3000354141041,None,v,7.963334212268819,792.3000354141041,None,t,7.9350600275465695,792.3000354141041,None,7.963334212268819,7.9350600275465695,7.414490209490869,False,False,False,800.3477001041247,None,800.3477001041247,None,800.3477001041247,None,800.3477001041247,None,800.3477001041247,None,800.3477001041247,None,800.3477001041247,None,800.3477001041247,None,801.3305980428559,None,801.3305980428559,None,802.330563077845,None,802.330563077845,None,c,,,,,,,,,,,,,,,,,,,,,,,,,,,,,,,,,,,,,,,,,,,,,,,81_82Exp,001,2021_May_28_1515,ComputerHuman,2020.1.3,60.00739168069162,
Computer.xlsx,c,Sychronize.jpg,Number7.jpg,7,Computer,,,,,0,3,3,7,0,3,3,3,,,,,,,,,,,,,,,,,,,,,,,,,,,,,803.3806785265406,None,803.3806785265406,None,803.8473985709898,None,803.8473985709898,None,v,6.903193107595143,803.8473985709898,None,t,6.589894726439525,803.8473985709898,None,6.903193107595143,6.589894726439525,7.2296142686583025,False,False,False,810.8295064287486,None,810.8295064287486,None,810.8295064287486,None,810.8295064287486,None,810.8295064287486,None,810.8295064287486,None,810.8295064287486,None,810.8295064287486,None,811.8448859017844,None,811.8448859017844,None,812.8114734641204,None,812.8114734641204,None,c,,,,,,,,,,,,,,,,,,,,,,,,,,,,,,,,,,,,,,,,,,,,,,,81_82Exp,001,2021_May_28_1515,ComputerHuman,2020.1.3,60.00739168069162,
Computer.xlsx,c,Sychronize.jpg,Number6.jpg,6,Computer,,,,,0,3,3,7,0,4,4,1,,,,,,,,,,,,,,,,,,,,,,,,,,,,,813.8778232643708,None,813.8778232643708,None,814.3113159611748,None,814.3113159611748,None,v,7.086548029416008,814.3113159611748,None,t,5.6621484813331335,814.3113159611748,None,7.086548029416008,5.6621484813331335,6.412642141941414,False,False,False,821.4926640837439,None,821.4926640837439,None,821.4926640837439,None,821.4926640837439,None,821.4926640837439,None,821.4926640837439,None,821.4926640837439,None,821.4926640837439,None,822.4923760233651,None,822.4923760233651,None,823.4754728456574,None,823.4754728456574,None,c,,,,,,,,,,,,,,,,,,,,,,,,,,,,,,,,,,,,,,,,,,,,,,,81_82Exp,001,2021_May_28_1515,ComputerHuman,2020.1.3,60.00739168069162,
Computer.xlsx,c,Sychronize.jpg,Number9.jpg,9,Computer,,,,,0,3,3,7,0,5,5,7,,,,,,,,,,,,,,,,,,,,,,,,,,,,,824.5254375277873,None,824.5254375277873,None,824.9755924965721,None,824.9755924965721,None,v,8.837426485260949,824.9755924965721,None,t,8.689002894076111,824.9755924965721,None,8.837426485260949,8.689002894076111,8.802766165475669,False,True,True,833.9063729990521,None,833.9063729990521,None,833.9063729990521,None,833.9063729990521,None,833.9063729990521,None,833.9063729990521,None,833.9063729990521,None,833.9063729990521,None,834.8894829733217,None,834.8894829733217,None,835.8892180090988,None,835.8892180090988,None,c,,,,,,,,,,,,,,,,,,,,,,,,,,,,,,,,,,,,,,,,,,,,,,,81_82Exp,001,2021_May_28_1515,ComputerHuman,2020.1.3,60.00739168069162,
Computer.xlsx,c,Sychronize.jpg,Number10.jpg,10,Computer,,,,,0,3,3,7,0,6,6,8,,,,,,,,,,,,,,,,,,,,,,,,,,,,,836.9390579078317,None,836.9390579078317,None,837.3890268242576,None,837.3890268242576,None,v,10.64296584143085,837.3890268242576,None,t,9.82186513000488,837.3890268242576,None,10.64296584143085,9.82186513000488,10.165347169373254,False,False,False,848.1048109932563,None,848.1048109932563,None,848.1048109932563,None,848.1048109932563,None,848.1048109932563,None,848.1048109932563,None,848.1048109932563,None,848.1048109932563,None,849.1027878342284,None,849.1027878342284,None,850.0858368603076,None,850.0858368603076,None,c,,,,,,,,,,,,,,,,,,,,,,,,,,,,,,,,,,,,,,,,,,,,,,,81_82Exp,001,2021_May_28_1515,ComputerHuman,2020.1.3,60.00739168069162,
Computer.xlsx,c,Sychronize.jpg,Number7.jpg,7,Computer,,,,,0,3,3,7,0,7,7,2,,,,,,,,,,,,,,,,,,,,,,,,,,,,,851.1522331736487,None,851.1522331736487,None,851.5861287700463,None,851.5861287700463,None,v,7.7891365951509215,851.5861287700463,None,t,7.204357667058503,851.5861287700463,None,7.7891365951509215,7.204357667058503,6.750532214857037,False,False,False,859.467369623806,None,859.467369623806,None,859.467369623806,None,859.467369623806,None,859.467369623806,None,859.467369623806,None,859.467369623806,None,859.467369623806,None,860.4666215650068,None,860.4666215650068,None,861.4331687090707,None,861.4331687090707,None,c,,,,,,,,,,,,,,,,,,,,,,,,,,,,,,,,,,,,,,,,,,,,,,,81_82Exp,001,2021_May_28_1515,ComputerHuman,2020.1.3,60.00739168069162,
Computer.xlsx,c,Sychronize.jpg,Number10.jpg,10,Computer,,,,,0,3,3,7,0,8,8,9,,,,,,,,,,,,,,,,,,,,,,,,,,,,,862.5006383520631,None,862.5006383520631,None,862.9333980667216,None,862.9333980667216,None,v,10.784822425852326,862.9333980667216,None,t,9.707895548923261,862.9333980667216,None,10.784822425852326,9.707895548923261,9.671209869135682,False,False,True,873.7984921418538,None,873.7984921418538,None,873.7984921418538,None,873.7984921418538,None,873.7984921418538,None,873.7984921418538,None,873.7984921418538,None,873.7984921418538,None,874.813299343492,None,874.813299343492,None,875.7964465282312,None,875.7964465282312,None,c,,,,,,,,,,,,,,,,,,,,,,,,,,,,,,,,,,,,,,,,,,,,,,,81_82Exp,001,2021_May_28_1515,ComputerHuman,2020.1.3,60.00739168069162,
Computer.xlsx,c,Sychronize.jpg,Number8.jpg,8,Computer,,,,,0,3,3,7,0,9,9,5,,,,,,,,,,,,,,,,,,,,,,,,,,,,,876.84640768178,None,876.84640768178,None,877.2965697077234,None,877.2965697077234,None,v,7.992847249090119,877.2965697077234,None,t,7.876028179874993,877.2965697077234,None,7.992847249090119,7.876028179874993,8.229352887965398,False,True,False,885.3774476310718,None,885.3774476310718,None,885.3774476310718,None,885.3774476310718,None,885.3774476310718,None,885.3774476310718,None,885.3774476310718,None,885.3774476310718,None,886.377237520217,None,886.377237520217,None,887.3603330593869,None,887.3603330593869,None,c,,,,,,,,,,,,,,,,,,,,,,,,,,,,,,,,,,,,,,,,,,,,,,,81_82Exp,001,2021_May_28_1515,ComputerHuman,2020.1.3,60.00739168069162,
Computer.xlsx,c,,,,,,,,,0,3,3,7,,,,,,,,,,,,,,,,,,,,,,,,,,,,,,,,,,,,,,,,,,,,,,,,,,,,,,,,,,,,,,,,,,,,,,,,,,,,,,,c,888.3608270604818,None,888.3608270604818,None,q,0,3.688148336339509,888.3608270604818,None,o,0,13.646586163737084,888.3608270604818,None,h,h,902.1071574984526,None,902.1071574984526,None,904.0895925517434,None,None,None,None,None,None,None,None,,,,,,,,,,,,,,,,,,81_82Exp,001,2021_May_28_1515,ComputerHuman,2020.1.3,60.00739168069162,
Human.xlsx,h,Sychronize.jpg,Number6.jpg,6,Human,,,,,0,4,4,8,0,0,0,0,,,,,,,,,,,,,,,,,,,,,,,,,909.0916445809671,None,909.0916445809671,None,912.172003161606,None,912.172003161606,None,912.5881593070117,None,912.5881593070117,None,v,5.4310342394092,912.5881593070117,None,t,5.158285649395111,912.5881593070117,None,5.4310342394092,5.158285649395111,5.9128138563735595,True,False,False,918.0704792003053,None,918.0704792003053,None,918.0704792003053,None,918.0704792003053,None,918.0704792003053,None,918.0704792003053,None,918.0704792003053,None,918.0704792003053,None,919.1048482037259,None,919.1048482037259,None,920.1024744322349,None,920.1024744322349,None,h,,,,,,,,,,,,,,,,,,,,,,,,,,,,,,,,,,,,,,,,,,,,,,,81_82Exp,001,2021_May_28_1515,ComputerHuman,2020.1.3,60.00739168069162,
Human.xlsx,h,Sychronize.jpg,Number7.jpg,7,Human,,,,,0,4,4,8,0,1,1,3,,,,,,,,,,,,,,,,,,,,,,,,,,,,,921.1524705507982,None,921.1524705507982,None,921.6024025775296,None,921.6024025775296,None,v,6.6121003964181,921.6024025775296,None,t,6.683109845955187,921.6024025775296,None,6.6121003964181,6.683109845955187,6.611363077287906,True,False,False,928.383877985576,None,928.383877985576,None,928.383877985576,None,928.383877985576,None,928.383877985576,None,928.383877985576,None,928.383877985576,None,928.383877985576,None,929.3695914097698,None,929.3695914097698,None,930.3501316160036,None,930.3501316160036,None,h,,,,,,,,,,,,,,,,,,,,,,,,,,,,,,,,,,,,,,,,,,,,,,,81_82Exp,001,2021_May_28_1515,ComputerHuman,2020.1.3,60.00739168069162,
Human.xlsx,h,Sychronize.jpg,Number10.jpg,10,Human,,,,,0,4,4,8,0,2,2,9,,,,,,,,,,,,,,,,,,,,,,,,,,,,,931.3999301341282,None,931.3999301341282,None,931.8502618526582,None,931.8502618526582,None,v,9.607370496330986,931.8502618526582,None,t,9.598890999623109,931.8502618526582,None,9.607370496330986,9.598890999623109,9.929476240516353,True,False,False,941.5312670614803,None,941.5312670614803,None,941.5312670614803,None,941.5312670614803,None,941.5312670614803,None,941.5312670614803,None,941.5312670614803,None,941.5312670614803,None,942.5316263350032,None,942.5316263350032,None,943.5470045249203,None,943.5470045249203,None,h,,,,,,,,,,,,,,,,,,,,,,,,,,,,,,,,,,,,,,,,,,,,,,,81_82Exp,001,2021_May_28_1515,ComputerHuman,2020.1.3,60.00739168069162,
Human.xlsx,h,Sychronize.jpg,Number8.jpg,8,Human,,,,,0,4,4,8,0,3,3,4,,,,,,,,,,,,,,,,,,,,,,,,,,,,,944.5808150504781,None,944.5808150504781,None,945.0305857249077,None,945.0305857249077,None,v,9.434060477280582,945.0305857249077,None,t,7.8890361268749984,945.0305857249077,None,9.434060477280582,7.8890361268749984,7.559733741117126,False,False,False,954.5458673600624,None,954.5458673600624,None,954.5458673600624,None,954.5458673600624,None,954.5458673600624,None,954.5458673600624,None,954.5458673600624,None,954.5458673600624,None,955.5464540665562,None,955.5464540665562,None,956.5440023455412,None,956.5440023455412,None,h,,,,,,,,,,,,,,,,,,,,,,,,,,,,,,,,,,,,,,,,,,,,,,,81_82Exp,001,2021_May_28_1515,ComputerHuman,2020.1.3,60.00739168069162,
Human.xlsx,h,Sychronize.jpg,Number7.jpg,7,Human,,,,,0,4,4,8,0,4,4,2,,,,,,,,,,,,,,,,,,,,,,,,,,,,,957.5938229974818,None,957.5938229974818,None,958.043993684485,None,958.043993684485,None,v,7.119938333267783,958.043993684485,None,t,6.999098608390341,958.043993684485,None,7.119938333267783,6.999098608390341,6.621868895695442,True,False,False,965.2586005911326,None,965.2586005911326,None,965.2586005911326,None,965.2586005911326,None,965.2586005911326,None,965.2586005911326,None,965.2586005911326,None,965.2586005911326,None,966.2279221608223,None,966.2279221608223,None,967.2247095498096,None,967.2247095498096,None,h,,,,,,,,,,,,,,,,,,,,,,,,,,,,,,,,,,,,,,,,,,,,,,,81_82Exp,001,2021_May_28_1515,ComputerHuman,2020.1.3,60.00739168069162,
Human.xlsx,h,Sychronize.jpg,Number9.jpg,9,Human,,,,,0,4,4,8,0,5,5,7,,,,,,,,,,,,,,,,,,,,,,,,,,,,,968.2911260722867,None,968.2911260722867,None,968.7411642771767,None,968.7411642771767,None,v,9.665859584358259,968.7411642771767,None,t,8.568996234687802,968.7411642771767,None,9.665859584358259,8.568996234687802,8.961094162588296,False,False,False,978.4903134084088,None,978.4903134084088,None,978.4903134084088,None,978.4903134084088,None,978.4903134084088,None,978.4903134084088,None,978.4903134084088,None,978.4903134084088,None,979.4740187502284,None,979.4740187502284,None,980.4715606136124,None,980.4715606136124,None,h,,,,,,,,,,,,,,,,,,,,,,,,,,,,,,,,,,,,,,,,,,,,,,,81_82Exp,001,2021_May_28_1515,ComputerHuman,2020.1.3,60.00739168069162,
Human.xlsx,h,Sychronize.jpg,Number10.jpg,10,Human,,,,,0,4,4,8,0,6,6,8,,,,,,,,,,,,,,,,,,,,,,,,,,,,,981.5214733293942,None,981.5214733293942,None,981.9713505027576,None,981.9713505027576,None,v,9.598765253889724,981.9713505027576,None,t,10.277871766298631,981.9713505027576,None,9.598765253889724,10.277871766298631,10.395476958543664,False,False,False,992.3202782316803,None,992.3202782316803,None,992.3202782316803,None,992.3202782316803,None,992.3202782316803,None,992.3202782316803,None,992.3202782316803,None,992.3202782316803,None,993.3212505156516,None,993.3212505156516,None,994.3016043487478,None,994.3016043487478,None,h,,,,,,,,,,,,,,,,,,,,,,,,,,,,,,,,,,,,,,,,,,,,,,,81_82Exp,001,2021_May_28_1515,ComputerHuman,2020.1.3,60.00739168069162,
Human.xlsx,h,Sychronize.jpg,Number9.jpg,9,Human,,,,,0,4,4,8,0,7,7,6,,,,,,,,,,,,,,,,,,,,,,,,,,,,,995.368072837573,None,995.368072837573,None,995.8013955210117,None,995.8013955210117,None,v,7.319951677709469,995.8013955210117,None,t,8.794898123502207,995.8013955210117,None,7.319951677709469,8.794898123502207,8.411285223569697,False,False,False,1004.667237013382,None,1004.667237013382,None,1004.667237013382,None,1004.667237013382,None,1004.667237013382,None,1004.667237013382,None,1004.667237013382,None,1004.667237013382,None,1005.667936955193,None,1005.667936955193,None,1006.665355318306,None,1006.665355318306,None,h,,,,,,,,,,,,,,,,,,,,,,,,,,,,,,,,,,,,,,,,,,,,,,,81_82Exp,001,2021_May_28_1515,ComputerHuman,2020.1.3,60.00739168069162,
Human.xlsx,h,Sychronize.jpg,Number6.jpg,6,Human,,,,,0,4,4,8,0,8,8,1,,,,,,,,,,,,,,,,,,,,,,,,,,,,,1007.7154986748574,None,1007.7154986748574,None,1008.1651548308473,None,1008.1651548308473,None,v,5.879434541966475,1008.1651548308473,None,t,6.1431310430925805,1008.1651548308473,None,5.879434541966475,6.1431310430925805,5.893712083301879,True,False,False,1014.3817393457757,None,1014.3817393457757,None,1014.3817393457757,None,1014.3817393457757,None,1014.3817393457757,None,1014.3817393457757,None,1014.3817393457757,None,1014.3817393457757,None,1015.3650392217605,None,1015.3650392217605,None,1016.3630208744326,None,1016.3630208744326,None,h,,,,,,,,,,,,,,,,,,,,,,,,,,,,,,,,,,,,,,,,,,,,,,,81_82Exp,001,2021_May_28_1515,ComputerHuman,2020.1.3,60.00739168069162,
Human.xlsx,h,Sychronize.jpg,Number8.jpg,8,Human,,,,,0,4,4,8,0,9,9,5,,,,,,,,,,,,,,,,,,,,,,,,,,,,,1017.429842541962,None,1017.429842541962,None,1017.8629904003392,None,1017.8629904003392,None,v,7.905030214260478,1017.8629904003392,None,t,7.672042617537954,1017.8629904003392,None,7.905030214260478,7.672042617537954,8.35767789082259,True,False,False,1025.8607333927393,None,1025.8607333927393,None,1025.8607333927393,None,1025.8607333927393,None,1025.8607333927393,None,1025.8607333927393,None,1025.8607333927393,None,1025.8607333927393,None,1026.8461327733785,None,1026.8461327733785,None,1027.8269857400483,None,1027.8269857400483,None,h,,,,,,,,,,,,,,,,,,,,,,,,,,,,,,,,,,,,,,,,,,,,,,,81_82Exp,001,2021_May_28_1515,ComputerHuman,2020.1.3,60.00739168069162,
Human.xlsx,h,,,,,,,,,0,4,4,8,,,,,,,,,,,,,,,,,,,,,,,,,,,,,,,,,,,,,,,,,,,,,,,,,,,,,,,,,,,,,,,,,,,,,,,,,,,,,,,h,1028.8276622649246,None,1028.8276622649246,None,a,0,4.235569875170768,1028.8276622649246,None,l,0,3.9032867753339815,1028.8276622649246,None,c,c,1033.1424208363242,None,1033.1424208363242,None,None,None,1035.1586041838673,None,1035.1586041838673,None,"['space', 'space']",1036.1416791931224,None,"[10.516612551091384, 14.372425179684797]",,,,,,,,,,,,,,,,,81_82Exp,001,2021_May_28_1515,ComputerHuman,2020.1.3,60.00739168069162,
Human.xlsx,h,Sychronize.jpg,Number7.jpg,7,Human,,,,,0,5,5,4,0,0,0,2,,,,,,,,,,,,,,,,,,,,,,,,,1050.55759186656,None,1050.55759186656,None,1053.6376088165707,None,1053.6376088165707,None,1054.0875847901552,None,1054.0875847901552,None,v,6.261846884041006,1054.0875847901552,None,t,6.505329437783075,1054.0875847901552,None,6.261846884041006,6.505329437783075,7.1019010181579825,True,False,False,1060.6704762491318,None,1060.6704762491318,None,1060.6704762491318,None,1060.6704762491318,None,1060.6704762491318,None,1060.6704762491318,None,1060.6704762491318,None,1060.6704762491318,None,1061.6883664666893,None,1061.6883664666893,None,1062.6687116387293,None,1062.6687116387293,None,h,,,,,,,,,,,,,,,,,,,,,,,,,,,,,,,,,,,,,,,,,,,,,,,81_82Exp,001,2021_May_28_1515,ComputerHuman,2020.1.3,60.00739168069162,
Human.xlsx,h,Sychronize.jpg,Number8.jpg,8,Human,,,,,0,5,5,4,0,1,1,5,,,,,,,,,,,,,,,,,,,,,,,,,,,,,1063.7521416872114,None,1063.7521416872114,None,1064.168388613336,None,1064.168388613336,None,v,7.636342377401888,1064.168388613336,None,t,7.8309829787722265,1064.168388613336,None,7.636342377401888,7.8309829787722265,7.858655045194235,True,False,False,1072.0679553038062,None,1072.0679553038062,None,1072.0679553038062,None,1072.0679553038062,None,1072.0679553038062,None,1072.0679553038062,None,1072.0679553038062,None,1072.0679553038062,None,1073.0685981467905,None,1073.0685981467905,None,1074.0659003875662,None,1074.0659003875662,None,h,,,,,,,,,,,,,,,,,,,,,,,,,,,,,,,,,,,,,,,,,,,,,,,81_82Exp,001,2021_May_28_1515,ComputerHuman,2020.1.3,60.00739168069162,
Human.xlsx,h,Sychronize.jpg,Number9.jpg,9,Human,,,,,0,5,5,4,0,2,2,7,,,,,,,,,,,,,,,,,,,,,,,,,,,,,1075.1158041215058,None,1075.1158041215058,None,1075.5659469006532,None,1075.5659469006532,None,v,9.513804443569825,1075.5659469006532,None,t,8.077026960268995,1075.5659469006532,None,9.513804443569825,8.077026960268995,9.624579838175444,False,False,False,1085.1466727743136,None,1085.1466727743136,None,1085.1466727743136,None,1085.1466727743136,None,1085.1466727743136,None,1085.1466727743136,None,1085.1466727743136,None,1085.1466727743136,None,1086.1487235204186,None,1086.1487235204186,None,1087.1462317019104,None,1087.1462317019104,None,h,,,,,,,,,,,,,,,,,,,,,,,,,,,,,,,,,,,,,,,,,,,,,,,81_82Exp,001,2021_May_28_1515,ComputerHuman,2020.1.3,60.00739168069162,
Human.xlsx,h,Sychronize.jpg,Number10.jpg,10,Human,,,,,0,5,5,4,0,3,3,8,,,,,,,,,,,,,,,,,,,,,,,,,,,,,1088.1957899558656,None,1088.1957899558656,None,1088.6463722035187,None,1088.6463722035187,None,v,9.99636235557773,1088.6463722035187,None,t,10.063816280351602,1088.6463722035187,None,9.99636235557773,10.063816280351602,9.762405152962456,True,False,False,1098.7606048241432,None,1098.7606048241432,None,1098.7606048241432,None,1098.7606048241432,None,1098.7606048241432,None,1098.7606048241432,None,1098.7606048241432,None,1098.7606048241432,None,1099.7627142729725,None,1099.7627142729725,None,1100.759669109084,None,1100.759669109084,None,h,,,,,,,,,,,,,,,,,,,,,,,,,,,,,,,,,,,,,,,,,,,,,,,81_82Exp,001,2021_May_28_1515,ComputerHuman,2020.1.3,60.00739168069162,
Human.xlsx,h,Sychronize.jpg,Number8.jpg,8,Human,,,,,0,5,5,4,0,4,4,4,,,,,,,,,,,,,,,,,,,,,,,,,,,,,1101.8271432429938,None,1101.8271432429938,None,1102.276517754206,None,1102.276517754206,None,v,8.061438659500709,1102.276517754206,None,t,7.708996465644304,1102.276517754206,None,8.061438659500709,7.708996465644304,7.500904144822783,False,False,False,1110.4240819759507,None,1110.4240819759507,None,1110.4240819759507,None,1110.4240819759507,None,1110.4240819759507,None,1110.4240819759507,None,1110.4240819759507,None,1110.4240819759507,None,1111.4099856226421,None,1111.4099856226421,None,1112.3902422594183,None,1112.3902422594183,None,h,,,,,,,,,,,,,,,,,,,,,,,,,,,,,,,,,,,,,,,,,,,,,,,81_82Exp,001,2021_May_28_1515,ComputerHuman,2020.1.3,60.00739168069162,
Human.xlsx,h,Sychronize.jpg,Number10.jpg,10,Human,,,,,0,5,5,4,0,5,5,9,,,,,,,,,,,,,,,,,,,,,,,,,,,,,1113.4572406766893,None,1113.4572406766893,None,1113.8903067361862,None,1113.8903067361862,None,v,9.738724104237917,1113.8903067361862,None,t,10.377873626821383,1113.8903067361862,None,9.738724104237917,10.377873626821383,10.205243083694937,False,False,False,1124.3541169858727,None,1124.3541169858727,None,1124.3541169858727,None,1124.3541169858727,None,1124.3541169858727,None,1124.3541169858727,None,1124.3541169858727,None,1124.3541169858727,None,1125.3396398667865,None,1125.3396398667865,None,1126.3369228607662,None,1126.3369228607662,None,h,,,,,,,,,,,,,,,,,,,,,,,,,,,,,,,,,,,,,,,,,,,,,,,81_82Exp,001,2021_May_28_1515,ComputerHuman,2020.1.3,60.00739168069162,
Human.xlsx,h,Sychronize.jpg,Number6.jpg,6,Human,,,,,0,5,5,4,0,6,6,1,,,,,,,,,,,,,,,,,,,,,,,,,,,,,1127.3872750450537,None,1127.3872750450537,None,1127.8203048564137,None,1127.8203048564137,None,v,6.427991641758126,1127.8203048564137,None,t,10.154913610756921,1127.8203048564137,None,6.427991641758126,10.154913610756921,6.215750956451906,False,False,False,1138.0514178152189,None,1138.0514178152189,None,1138.0514178152189,None,1138.0514178152189,None,1138.0514178152189,None,1138.0514178152189,None,1138.0514178152189,None,1138.0514178152189,None,1139.053031659052,None,1139.053031659052,None,1140.0503409569865,None,1140.0503409569865,None,h,,,,,,,,,,,,,,,,,,,,,,,,,,,,,,,,,,,,,,,,,,,,,,,81_82Exp,001,2021_May_28_1515,ComputerHuman,2020.1.3,60.00739168069162,
Human.xlsx,h,Sychronize.jpg,Number9.jpg,9,Human,,,,,0,5,5,4,0,7,7,6,,,,,,,,,,,,,,,,,,,,,,,,,,,,,1141.1002215947738,None,1141.1002215947738,None,1141.550291236097,None,1141.550291236097,None,v,9.57286002895853,1141.550291236097,None,t,9.20411451586915,1141.550291236097,None,9.57286002895853,9.20411451586915,8.45580139960814,False,False,False,1151.182392902807,None,1151.182392902807,None,1151.182392902807,None,1151.182392902807,None,1151.182392902807,None,1151.182392902807,None,1151.182392902807,None,1151.182392902807,None,1152.2002090202004,None,1152.2002090202004,None,1153.1972462967533,None,1153.1972462967533,None,h,,,,,,,,,,,,,,,,,,,,,,,,,,,,,,,,,,,,,,,,,,,,,,,81_82Exp,001,2021_May_28_1515,ComputerHuman,2020.1.3,60.00739168069162,
Human.xlsx,h,Sychronize.jpg,Number6.jpg,6,Human,,,,,0,5,5,4,0,8,8,0,,,,,,,,,,,,,,,,,,,,,,,,,,,,,1154.2471038383883,None,1154.2471038383883,None,1154.6974685972455,None,1154.6974685972455,None,v,7.284917697492347,1154.6974685972455,None,t,5.464199997306423,1154.6974685972455,None,7.284917697492347,5.464199997306423,6.26498495410089,False,False,False,1162.0783585177633,None,1162.0783585177633,None,1162.0783585177633,None,1162.0783585177633,None,1162.0783585177633,None,1162.0783585177633,None,1162.0783585177633,None,1162.0783585177633,None,1163.0468582492722,None,1163.0468582492722,None,1164.0446362066868,None,1164.0446362066868,None,h,,,,,,,,,,,,,,,,,,,,,,,,,,,,,,,,,,,,,,,,,,,,,,,81_82Exp,001,2021_May_28_1515,ComputerHuman,2020.1.3,60.00739168069162,
Human.xlsx,h,Sychronize.jpg,Number7.jpg,7,Human,,,,,0,5,5,4,0,9,9,3,,,,,,,,,,,,,,,,,,,,,,,,,,,,,1165.1115942056858,None,1165.1115942056858,None,1165.5447032496922,None,1165.5447032496922,None,v,7.044950891802728,1165.5447032496922,None,t,6.7883538921196305,1165.5447032496922,None,7.044950891802728,6.7883538921196305,7.401596252388365,True,False,False,1172.6608303965913,None,1172.6608303965913,None,1172.6608303965913,None,1172.6608303965913,None,1172.6608303965913,None,1172.6608303965913,None,1172.6608303965913,None,1172.6608303965913,None,1173.6616268931612,None,1173.6616268931612,None,1174.6587774050313,None,1174.6587774050313,None,h,,,,,,,,,,,,,,,,,,,,,,,,,,,,,,,,,,,,,,,,,,,,,,,81_82Exp,001,2021_May_28_1515,ComputerHuman,2020.1.3,60.00739168069162,
Human.xlsx,h,,,,,,,,,0,5,5,4,,,,,,,,,,,,,,,,,,,,,,,,,,,,,,,,,,,,,,,,,,,,,,,,,,,,,,,,,,,,,,,,,,,,,,,,,,,,,,,h,1175.659045577053,None,1175.659045577053,None,q,1,3.3101829664592515,1175.659045577053,None,o,0,3.0693064288789174,1175.659045577053,None,h,h,1179.0577397461093,None,1179.0577397461093,None,1181.040551395039,None,None,None,None,None,None,None,None,,,,,,,,,,,,,,,,,,81_82Exp,001,2021_May_28_1515,ComputerHuman,2020.1.3,60.00739168069162,
Computer.xlsx,c,Sychronize.jpg,Number7.jpg,7,Computer,,,,,0,6,6,1,0,0,0,3,,,,,,,,,,,,,,,,,,,,,,,,,1186.059476448656,None,1186.059476448656,None,1189.1219371130173,None,1189.1219371130173,None,1189.572072835006,None,1189.572072835006,None,v,5.856204942447221,1189.572072835006,None,t,6.495106502145063,1189.572072835006,None,5.856204942447221,6.495106502145063,7.189113269967064,False,False,False,1196.1375744931174,None,1196.1375744931174,None,1196.1375744931174,None,1196.1375744931174,None,1196.1375744931174,None,1196.1375744931174,None,1196.1375744931174,None,1196.1375744931174,None,1197.170113126249,None,1197.170113126249,None,1198.1365566583954,None,1198.1365566583954,None,c,,,,,,,,,,,,,,,,,,,,,,,,,,,,,,,,,,,,,,,,,,,,,,,81_82Exp,001,2021_May_28_1515,ComputerHuman,2020.1.3,60.00739168069162,
Computer.xlsx,c,Sychronize.jpg,Number6.jpg,6,Computer,,,,,0,6,6,1,0,1,1,1,,,,,,,,,,,,,,,,,,,,,,,,,,,,,1199.1865768354546,None,1199.1865768354546,None,1199.6364908985088,None,1199.6364908985088,None,v,6.046934274116211,1199.6364908985088,None,t,5.550139186412707,1199.6364908985088,None,6.046934274116211,5.550139186412707,6.055016871329823,False,True,False,1205.768010670421,None,1205.768010670421,None,1205.768010670421,None,1205.768010670421,None,1205.768010670421,None,1205.768010670421,None,1205.768010670421,None,1205.768010670421,None,1206.7675827499952,None,1206.7675827499952,None,1207.7509310637506,None,1207.7509310637506,None,c,,,,,,,,,,,,,,,,,,,,,,,,,,,,,,,,,,,,,,,,,,,,,,,81_82Exp,001,2021_May_28_1515,ComputerHuman,2020.1.3,60.00739168069162,
Computer.xlsx,c,Sychronize.jpg,Number8.jpg,8,Computer,,,,,0,6,6,1,0,2,2,4,,,,,,,,,,,,,,,,,,,,,,,,,,,,,1208.800677615527,None,1208.800677615527,None,1209.2504899913438,None,1209.2504899913438,None,v,8.300114325968025,1209.2504899913438,None,t,7.515065750263602,1209.2504899913438,None,8.300114325968025,7.515065750263602,7.551056436644977,False,False,True,1217.6155856703735,None,1217.6155856703735,None,1217.6155856703735,None,1217.6155856703735,None,1217.6155856703735,None,1217.6155856703735,None,1217.6155856703735,None,1217.6155856703735,None,1218.648278277873,None,1218.648278277873,None,1219.6314347652296,None,1219.6314347652296,None,c,,,,,,,,,,,,,,,,,,,,,,,,,,,,,,,,,,,,,,,,,,,,,,,81_82Exp,001,2021_May_28_1515,ComputerHuman,2020.1.3,60.00739168069162,
Computer.xlsx,c,Sychronize.jpg,Number7.jpg,7,Computer,,,,,0,6,6,1,0,3,3,2,,,,,,,,,,,,,,,,,,,,,,,,,,,,,1220.6817850248372,None,1220.6817850248372,None,1221.1317038995912,None,1221.1317038995912,None,v,7.634096597103053,1221.1317038995912,None,t,6.909112459670723,1221.1317038995912,None,7.634096597103053,6.909112459670723,7.4232758827145995,False,True,False,1228.8624925498843,None,1228.8624925498843,None,1228.8624925498843,None,1228.8624925498843,None,1228.8624925498843,None,1228.8624925498843,None,1228.8624925498843,None,1228.8624925498843,None,1229.8456740580768,None,1229.8456740580768,None,1230.8287641439892,None,1230.8287641439892,None,c,,,,,,,,,,,,,,,,,,,,,,,,,,,,,,,,,,,,,,,,,,,,,,,81_82Exp,001,2021_May_28_1515,ComputerHuman,2020.1.3,60.00739168069162,
Computer.xlsx,c,Sychronize.jpg,Number10.jpg,10,Computer,,,,,0,6,6,1,0,4,4,8,,,,,,,,,,,,,,,,,,,,,,,,,,,,,1231.895083149364,None,1231.895083149364,None,1232.3282961260666,None,1232.3282961260666,None,v,10.000608840309724,1232.3282961260666,None,t,10.267948759894352,1232.3282961260666,None,10.000608840309724,10.267948759894352,9.369106047281376,False,False,False,1242.6924143886463,None,1242.6924143886463,None,1242.6924143886463,None,1242.6924143886463,None,1242.6924143886463,None,1242.6924143886463,None,1242.6924143886463,None,1242.6924143886463,None,1243.6922989078703,None,1243.6922989078703,None,1244.6587899154474,None,1244.6587899154474,None,c,,,,,,,,,,,,,,,,,,,,,,,,,,,,,,,,,,,,,,,,,,,,,,,81_82Exp,001,2021_May_28_1515,ComputerHuman,2020.1.3,60.00739168069162,
Computer.xlsx,c,Sychronize.jpg,Number9.jpg,9,Computer,,,,,0,6,6,1,0,5,5,6,,,,,,,,,,,,,,,,,,,,,,,,,,,,,1245.7258380536077,None,1245.7258380536077,None,1246.1589596080303,None,1246.1589596080303,None,v,9.780971462772868,1246.1589596080303,None,t,8.40003695384803,1246.1589596080303,None,9.780971462772868,8.40003695384803,8.567149127659679,False,False,True,1256.008117336165,None,1256.008117336165,None,1256.008117336165,None,1256.008117336165,None,1256.008117336165,None,1256.008117336165,None,1256.008117336165,None,1256.008117336165,None,1257.0225360733057,None,1257.0225360733057,None,1258.0056752385462,None,1258.0056752385462,None,c,,,,,,,,,,,,,,,,,,,,,,,,,,,,,,,,,,,,,,,,,,,,,,,81_82Exp,001,2021_May_28_1515,ComputerHuman,2020.1.3,60.00739168069162,
Computer.xlsx,c,Sychronize.jpg,Number9.jpg,9,Computer,,,,,0,6,6,1,0,6,6,7,,,,,,,,,,,,,,,,,,,,,,,,,,,,,1259.0559032810015,None,1259.0559032810015,None,1259.5056762008862,None,1259.5056762008862,None,v,8.877421647895972,1259.5056762008862,None,t,8.697053828796925,1259.5056762008862,None,8.877421647895972,8.697053828796925,8.445495788509511,False,False,True,1268.454477157582,None,1268.454477157582,None,1268.454477157582,None,1268.454477157582,None,1268.454477157582,None,1268.454477157582,None,1268.454477157582,None,1268.454477157582,None,1269.4695846092327,None,1269.4695846092327,None,1270.4527256991532,None,1270.4527256991532,None,c,,,,,,,,,,,,,,,,,,,,,,,,,,,,,,,,,,,,,,,,,,,,,,,81_82Exp,001,2021_May_28_1515,ComputerHuman,2020.1.3,60.00739168069162,
Computer.xlsx,c,Sychronize.jpg,Number8.jpg,8,Computer,,,,,0,6,6,1,0,7,7,5,,,,,,,,,,,,,,,,,,,,,,,,,,,,,1271.5200230833216,None,1271.5200230833216,None,1271.9529803984187,None,1271.9529803984187,None,v,7.341550752840703,1271.9529803984187,None,t,7.3212893300260475,1271.9529803984187,None,7.341550752840703,7.3212893300260475,7.955074165866813,False,False,False,1279.368492417725,None,1279.368492417725,None,1279.368492417725,None,1279.368492417725,None,1279.368492417725,None,1279.368492417725,None,1279.368492417725,None,1279.368492417725,None,1280.3668920466444,None,1280.3668920466444,None,1281.350123596505,None,1281.350123596505,None,c,,,,,,,,,,,,,,,,,,,,,,,,,,,,,,,,,,,,,,,,,,,,,,,81_82Exp,001,2021_May_28_1515,ComputerHuman,2020.1.3,60.00739168069162,
Computer.xlsx,c,Sychronize.jpg,Number10.jpg,10,Computer,,,,,0,6,6,1,0,8,8,9,,,,,,,,,,,,,,,,,,,,,,,,,,,,,1282.400829601058,None,1282.400829601058,None,1282.8502843072529,None,1282.8502843072529,None,v,9.975100420157105,1282.8502843072529,None,t,10.057806789114693,1282.8502843072529,None,9.975100420157105,10.057806789114693,10.140556743230919,False,True,True,1292.9973221291293,None,1292.9973221291293,None,1292.9973221291293,None,1292.9973221291293,None,1292.9973221291293,None,1292.9973221291293,None,1292.9973221291293,None,1292.9973221291293,None,1293.9970398427904,None,1293.9970398427904,None,1294.9635600413421,None,1294.9635600413421,None,c,,,,,,,,,,,,,,,,,,,,,,,,,,,,,,,,,,,,,,,,,,,,,,,81_82Exp,001,2021_May_28_1515,ComputerHuman,2020.1.3,60.00739168069162,
Computer.xlsx,c,Sychronize.jpg,Number6.jpg,6,Computer,,,,,0,6,6,1,0,9,9,0,,,,,,,,,,,,,,,,,,,,,,,,,,,,,1296.0305222104798,None,1296.0305222104798,None,1296.4636312544862,None,1296.4636312544862,None,v,5.733124569753272,1296.4636312544862,None,t,5.5361913542110415,1296.4636312544862,None,5.733124569753272,5.5361913542110415,6.2001540078923965,False,False,False,1302.2951338967505,None,1302.2951338967505,None,1302.2951338967505,None,1302.2951338967505,None,1302.2951338967505,None,1302.2951338967505,None,1302.2951338967505,None,1302.2951338967505,None,1303.2948432701305,None,1303.2948432701305,None,1304.2780360056204,None,1304.2780360056204,None,c,,,,,,,,,,,,,,,,,,,,,,,,,,,,,,,,,,,,,,,,,,,,,,,81_82Exp,001,2021_May_28_1515,ComputerHuman,2020.1.3,60.00739168069162,
Computer.xlsx,c,,,,,,,,,0,6,6,1,,,,,,,,,,,,,,,,,,,,,,,,,,,,,,,,,,,,,,,,,,,,,,,,,,,,,,,,,,,,,,,,,,,,,,,,,,,,,,,c,1305.2789232829127,None,1305.2789232829127,None,q,0,2.453423074726743,1305.2789232829127,None,o,0,5.472193512421654,1305.2789232829127,None,h,h,1310.826416034888,None,1310.826416034888,None,1312.8259999833172,None,None,None,None,None,None,None,None,,,,,,,,,,,,,,,,,,81_82Exp,001,2021_May_28_1515,ComputerHuman,2020.1.3,60.00739168069162,
Human.xlsx,h,Sychronize.jpg,Number6.jpg,6,Human,,,,,0,7,7,0,0,0,0,1,,,,,,,,,,,,,,,,,,,,,,,,,1317.8272924056619,None,1317.8272924056619,None,1320.9078643049543,None,1320.9078643049543,None,1321.357866261711,None,1321.357866261711,None,v,5.921245960580563,1321.357866261711,None,t,5.164198906655656,1321.357866261711,None,5.921245960580563,5.164198906655656,5.553225524032934,False,False,False,1327.3570084961757,None,1327.3570084961757,None,1327.3570084961757,None,1327.3570084961757,None,1327.3570084961757,None,1327.3570084961757,None,1327.3570084961757,None,1327.3570084961757,None,1328.3744476971515,None,1328.3744476971515,None,1329.355358724988,None,1329.355358724988,None,h,,,,,,,,,,,,,,,,,,,,,,,,,,,,,,,,,,,,,,,,,,,,,,,81_82Exp,001,2021_May_28_1515,ComputerHuman,2020.1.3,60.00739168069162,
Human.xlsx,h,Sychronize.jpg,Number8.jpg,8,Human,,,,,0,7,7,0,0,1,1,4,,,,,,,,,,,,,,,,,,,,,,,,,,,,,1330.422097952076,None,1330.422097952076,None,1330.8554453355682,None,1330.8554453355682,None,v,6.850838294194546,1330.8554453355682,None,t,7.085985702196922,1330.8554453355682,None,6.850838294194546,7.085985702196922,8.16347944048299,True,False,False,1338.0214338734622,None,1338.0214338734622,None,1338.0214338734622,None,1338.0214338734622,None,1338.0214338734622,None,1338.0214338734622,None,1338.0214338734622,None,1338.0214338734622,None,1339.0222778454627,None,1339.0222778454627,None,1340.019599974592,None,1340.019599974592,None,h,,,,,,,,,,,,,,,,,,,,,,,,,,,,,,,,,,,,,,,,,,,,,,,81_82Exp,001,2021_May_28_1515,ComputerHuman,2020.1.3,60.00739168069162,
Human.xlsx,h,Sychronize.jpg,Number8.jpg,8,Human,,,,,0,7,7,0,0,2,2,5,,,,,,,,,,,,,,,,,,,,,,,,,,,,,1341.0694741967818,None,1341.0694741967818,None,1341.5193949962159,None,1341.5193949962159,None,v,7.174132819571241,1341.5193949962159,None,t,7.16904268361759,1341.5193949962159,None,7.174132819571241,7.16904268361759,8.292710636575688,True,False,False,1348.7681508512505,None,1348.7681508512505,None,1348.7681508512505,None,1348.7681508512505,None,1348.7681508512505,None,1348.7681508512505,None,1348.7681508512505,None,1348.7681508512505,None,1349.7696270804954,None,1349.7696270804954,None,1350.7669809668405,None,1350.7669809668405,None,h,,,,,,,,,,,,,,,,,,,,,,,,,,,,,,,,,,,,,,,,,,,,,,,81_82Exp,001,2021_May_28_1515,ComputerHuman,2020.1.3,60.00739168069162,
Human.xlsx,h,Sychronize.jpg,Number9.jpg,9,Human,,,,,0,7,7,0,0,3,3,7,,,,,,,,,,,,,,,,,,,,,,,,,,,,,1351.833737836827,None,1351.833737836827,None,1352.283859123716,None,1352.283859123716,None,v,7.880937395948422,1352.283859123716,None,t,8.799910951489437,1352.283859123716,None,7.880937395948422,8.799910951489437,8.325400924986582,False,False,False,1361.1657226113275,None,1361.1657226113275,None,1361.1657226113275,None,1361.1657226113275,None,1361.1657226113275,None,1361.1657226113275,None,1361.1657226113275,None,1361.1657226113275,None,1362.1496771991551,None,1362.1496771991551,None,1363.1473457706124,None,1363.1473457706124,None,h,,,,,,,,,,,,,,,,,,,,,,,,,,,,,,,,,,,,,,,,,,,,,,,81_82Exp,001,2021_May_28_1515,ComputerHuman,2020.1.3,60.00739168069162,
Human.xlsx,h,Sychronize.jpg,Number7.jpg,7,Human,,,,,0,7,7,0,0,4,4,3,,,,,,,,,,,,,,,,,,,,,,,,,,,,,1364.214484047934,None,1364.214484047934,None,1364.647205589783,None,1364.647205589783,None,v,6.696774108695536,1364.647205589783,None,t,6.628122070876998,1364.647205589783,None,6.696774108695536,6.628122070876998,7.327844682771618,True,False,False,1371.4285578183371,None,1371.4285578183371,None,1371.4285578183371,None,1371.4285578183371,None,1371.4285578183371,None,1371.4285578183371,None,1371.4285578183371,None,1371.4285578183371,None,1372.414046375794,None,1372.414046375794,None,1373.41162769511,None,1373.41162769511,None,h,,,,,,,,,,,,,,,,,,,,,,,,,,,,,,,,,,,,,,,,,,,,,,,81_82Exp,001,2021_May_28_1515,ComputerHuman,2020.1.3,60.00739168069162,
Human.xlsx,h,Sychronize.jpg,Number7.jpg,7,Human,,,,,0,7,7,0,0,5,5,2,,,,,,,,,,,,,,,,,,,,,,,,,,,,,1374.4612664648303,None,1374.4612664648303,None,1374.911348295791,None,1374.911348295791,None,v,6.81594032466819,1374.911348295791,None,t,6.5990581259648025,1374.911348295791,None,6.81594032466819,6.5990581259648025,7.264651700472973,True,False,False,1381.8262623813025,None,1381.8262623813025,None,1381.8262623813025,None,1381.8262623813025,None,1381.8262623813025,None,1381.8262623813025,None,1381.8262623813025,None,1381.8262623813025,None,1382.7952849840985,None,1382.7952849840985,None,1383.7924419115661,None,1383.7924419115661,None,h,,,,,,,,,,,,,,,,,,,,,,,,,,,,,,,,,,,,,,,,,,,,,,,81_82Exp,001,2021_May_28_1515,ComputerHuman,2020.1.3,60.00739168069162,
Human.xlsx,h,Sychronize.jpg,Number10.jpg,10,Human,,,,,0,7,7,0,0,6,6,9,,,,,,,,,,,,,,,,,,,,,,,,,,,,,1384.8594900497264,None,1384.8594900497264,None,1385.3093996218631,None,1385.3093996218631,None,v,9.500974208651314,1385.3093996218631,None,t,10.275864004706818,1385.3093996218631,None,9.500974208651314,10.275864004706818,10.379876687694786,False,False,False,1395.6728439258077,None,1395.6728439258077,None,1395.6728439258077,None,1395.6728439258077,None,1395.6728439258077,None,1395.6728439258077,None,1395.6728439258077,None,1395.6728439258077,None,1396.6420541848602,None,1396.6420541848602,None,1397.6391851291555,None,1397.6391851291555,None,h,,,,,,,,,,,,,,,,,,,,,,,,,,,,,,,,,,,,,,,,,,,,,,,81_82Exp,001,2021_May_28_1515,ComputerHuman,2020.1.3,60.00739168069162,
Human.xlsx,h,Sychronize.jpg,Number10.jpg,10,Human,,,,,0,7,7,0,0,7,7,8,,,,,,,,,,,,,,,,,,,,,,,,,,,,,1398.6895071601284,None,1398.6895071601284,None,1399.1393814464718,None,1399.1393814464718,None,v,10.913930895021622,1399.1393814464718,None,t,9.832890657027747,1399.1393814464718,None,10.913930895021622,9.832890657027747,9.904129075071161,False,False,False,1410.1361338704446,None,1410.1361338704446,None,1410.1361338704446,None,1410.1361338704446,None,1410.1361338704446,None,1410.1361338704446,None,1410.1361338704446,None,1410.1361338704446,None,1411.1213488026224,None,1411.1213488026224,None,1412.1024125217082,None,1412.1024125217082,None,h,,,,,,,,,,,,,,,,,,,,,,,,,,,,,,,,,,,,,,,,,,,,,,,81_82Exp,001,2021_May_28_1515,ComputerHuman,2020.1.3,60.00739168069162,
Human.xlsx,h,Sychronize.jpg,Number9.jpg,9,Human,,,,,0,7,7,0,0,8,8,6,,,,,,,,,,,,,,,,,,,,,,,,,,,,,1413.1524503416622,None,1413.1524503416622,None,1413.6023371384217,None,1413.6023371384217,None,v,9.406109317951632,1413.6023371384217,None,t,9.332898997305165,1413.6023371384217,None,9.406109317951632,9.332898997305165,9.249628841165928,True,False,False,1423.0997862964068,None,1423.0997862964068,None,1423.0997862964068,None,1423.0997862964068,None,1423.0997862964068,None,1423.0997862964068,None,1423.0997862964068,None,1423.0997862964068,None,1424.085414713918,None,1424.085414713918,None,1425.0826601766457,None,1425.0826601766457,None,h,,,,,,,,,,,,,,,,,,,,,,,,,,,,,,,,,,,,,,,,,,,,,,,81_82Exp,001,2021_May_28_1515,ComputerHuman,2020.1.3,60.00739168069162,
Human.xlsx,h,Sychronize.jpg,Number6.jpg,6,Human,,,,,0,7,7,0,0,9,9,0,,,,,,,,,,,,,,,,,,,,,,,,,,,,,1426.132507132541,None,1426.132507132541,None,1426.5825902466204,None,1426.5825902466204,None,v,8.149016713276069,1426.5825902466204,None,t,5.612180591404467,1426.5825902466204,None,8.149016713276069,5.612180591404467,5.702936952095183,False,False,False,1434.8136015181844,None,1434.8136015181844,None,1434.8136015181844,None,1434.8136015181844,None,1434.8136015181844,None,1434.8136015181844,None,1434.8136015181844,None,1434.8136015181844,None,1435.8156201862948,None,1435.8156201862948,None,1436.813199260152,None,1436.813199260152,None,h,,,,,,,,,,,,,,,,,,,,,,,,,,,,,,,,,,,,,,,,,,,,,,,81_82Exp,001,2021_May_28_1515,ComputerHuman,2020.1.3,60.00739168069162,
Human.xlsx,h,,,,,,,,,0,7,7,0,,,,,,,,,,,,,,,,,,,,,,,,,,,,,,,,,,,,,,,,,,,,,,,,,,,,,,,,,,,,,,,,,,,,,,,,,,,,,,,h,1437.8139123539404,None,1437.8139123539404,None,a,0,2.661345569162222,1437.8139123539404,None,o,1,4.37627357652309,1437.8139123539404,None,c,h,1442.279049028646,None,1442.279049028646,None,1444.2781781111298,None,None,None,None,None,None,None,None,,,,,,,,,,,,,,,,,,81_82Exp,001,2021_May_28_1515,ComputerHuman,2020.1.3,60.00739168069162,
Human.xlsx,h,Sychronize.jpg,Number7.jpg,7,Human,,,,,0,8,8,6,0,0,0,2,,,,,,,,,,,,,,,,,,,,,,,,,1449.262871775918,None,1449.262871775918,None,1452.3601749148802,None,1452.3601749148802,None,1452.7928518683184,None,1452.7928518683184,None,v,6.637081133583706,1452.7928518683184,None,t,6.2601624686212745,1452.7928518683184,None,6.637081133583706,6.2601624686212745,6.708156263762342,False,False,False,1459.5088968313976,None,1459.5088968313976,None,1459.5088968313976,None,1459.5088968313976,None,1459.5088968313976,None,1459.5088968313976,None,1459.5088968313976,None,1459.5088968313976,None,1460.5264418897532,None,1460.5264418897532,None,1461.5240280207654,None,1461.5240280207654,None,h,,,,,,,,,,,,,,,,,,,,,,,,,,,,,,,,,,,,,,,,,,,,,,,81_82Exp,001,2021_May_28_1515,ComputerHuman,2020.1.3,60.00739168069162,
Human.xlsx,h,Sychronize.jpg,Number8.jpg,8,Human,,,,,0,8,8,6,0,1,1,4,,,,,,,,,,,,,,,,,,,,,,,,,,,,,1462.59092731704,None,1462.59092731704,None,1463.0072810628844,None,1463.0072810628844,None,v,7.889852511802019,1463.0072810628844,None,t,7.273069369945006,1463.0072810628844,None,7.889852511802019,7.273069369945006,8.103748387203224,False,False,False,1470.9732989200602,None,1470.9732989200602,None,1470.9732989200602,None,1470.9732989200602,None,1470.9732989200602,None,1470.9732989200602,None,1470.9732989200602,None,1470.9732989200602,None,1471.9741999908874,None,1471.9741999908874,None,1472.9712882714484,None,1472.9712882714484,None,h,,,,,,,,,,,,,,,,,,,,,,,,,,,,,,,,,,,,,,,,,,,,,,,81_82Exp,001,2021_May_28_1515,ComputerHuman,2020.1.3,60.00739168069162,
Human.xlsx,h,Sychronize.jpg,Number6.jpg,6,Human,,,,,0,8,8,6,0,2,2,0,,,,,,,,,,,,,,,,,,,,,,,,,,,,,1474.0213896058303,None,1474.0213896058303,None,1474.471413696403,None,1474.471413696403,None,v,5.8330763886078785,1474.471413696403,None,t,5.628171470987581,1474.471413696403,None,5.8330763886078785,5.628171470987581,6.420119676310073,True,False,False,1480.3877530071513,None,1480.3877530071513,None,1480.3877530071513,None,1480.3877530071513,None,1480.3877530071513,None,1480.3877530071513,None,1480.3877530071513,None,1480.3877530071513,None,1481.3714987672429,None,1481.3714987672429,None,1482.368980003219,None,1482.368980003219,None,h,,,,,,,,,,,,,,,,,,,,,,,,,,,,,,,,,,,,,,,,,,,,,,,81_82Exp,001,2021_May_28_1515,ComputerHuman,2020.1.3,60.00739168069162,
Human.xlsx,h,Sychronize.jpg,Number8.jpg,8,Human,,,,,0,8,8,6,0,3,3,5,,,,,,,,,,,,,,,,,,,,,,,,,,,,,1483.4187628031286,None,1483.4187628031286,None,1483.8688292366496,None,1483.8688292366496,None,v,5.775021315825143,1483.8688292366496,None,t,7.042099799771677,1483.8688292366496,None,5.775021315825143,7.042099799771677,7.648856848077127,False,False,False,1490.9840476140052,None,1490.9840476140052,None,1490.9840476140052,None,1490.9840476140052,None,1490.9840476140052,None,1490.9840476140052,None,1490.9840476140052,None,1490.9840476140052,None,1491.9857294631875,None,1491.9857294631875,None,1492.983163865294,None,1492.983163865294,None,h,,,,,,,,,,,,,,,,,,,,,,,,,,,,,,,,,,,,,,,,,,,,,,,81_82Exp,001,2021_May_28_1515,ComputerHuman,2020.1.3,60.00739168069162,
Human.xlsx,h,Sychronize.jpg,Number7.jpg,7,Human,,,,,0,8,8,6,0,4,4,3,,,,,,,,,,,,,,,,,,,,,,,,,,,,,1494.0329364002464,None,1494.0329364002464,None,1494.4837794419836,None,1494.4837794419836,None,v,6.871460594429664,1494.4837794419836,None,t,6.4261375337518984,1494.4837794419836,None,6.871460594429664,6.4261375337518984,7.1015908034003,False,False,False,1501.4311404175642,None,1501.4311404175642,None,1501.4311404175642,None,1501.4311404175642,None,1501.4311404175642,None,1501.4311404175642,None,1501.4311404175642,None,1501.4311404175642,None,1502.4330484165985,None,1502.4330484165985,None,1503.430711855577,None,1503.430711855577,None,h,,,,,,,,,,,,,,,,,,,,,,,,,,,,,,,,,,,,,,,,,,,,,,,81_82Exp,001,2021_May_28_1515,ComputerHuman,2020.1.3,60.00739168069162,
Human.xlsx,h,Sychronize.jpg,Number9.jpg,9,Human,,,,,0,8,8,6,0,5,5,7,,,,,,,,,,,,,,,,,,,,,,,,,,,,,1504.480326246019,None,1504.480326246019,None,1504.9306031111773,None,1504.9306031111773,None,v,3.0119974902190734,1504.9306031111773,None,t,8.487021885532158,1504.9306031111773,None,3.0119974902190734,8.487021885532158,8.97834582063196,False,False,False,1513.4962994827074,None,1513.4962994827074,None,1513.4962994827074,None,1513.4962994827074,None,1513.4962994827074,None,1513.4962994827074,None,1513.4962994827074,None,1513.4962994827074,None,1514.481232449325,None,1514.481232449325,None,1515.4778543158682,None,1515.4778543158682,None,h,,,,,,,,,,,,,,,,,,,,,,,,,,,,,,,,,,,,,,,,,,,,,,,81_82Exp,001,2021_May_28_1515,ComputerHuman,2020.1.3,60.00739168069162,
Human.xlsx,h,Sychronize.jpg,Number6.jpg,6,Human,,,,,0,8,8,6,0,6,6,1,,,,,,,,,,,,,,,,,,,,,,,,,,,,,1516.544350070988,None,1516.544350070988,None,1516.9777532701883,None,1516.9777532701883,None,v,5.823844342179655,1516.9777532701883,None,t,5.475215259375545,1516.9777532701883,None,5.823844342179655,5.475215259375545,6.122619152594228,False,False,False,1522.8927818741358,None,1522.8927818741358,None,1522.8927818741358,None,1522.8927818741358,None,1522.8927818741358,None,1522.8927818741358,None,1522.8927818741358,None,1522.8927818741358,None,1523.878529942558,None,1523.878529942558,None,1524.8756307335389,None,1524.8756307335389,None,h,,,,,,,,,,,,,,,,,,,,,,,,,,,,,,,,,,,,,,,,,,,,,,,81_82Exp,001,2021_May_28_1515,ComputerHuman,2020.1.3,60.00739168069162,
Human.xlsx,h,Sychronize.jpg,Number10.jpg,10,Human,,,,,0,8,8,6,0,7,7,8,,,,,,,,,,,,,,,,,,,,,,,,,,,,,1525.926117324616,None,1525.926117324616,None,1526.3757872741444,None,1526.3757872741444,None,v,10.196988389692706,1526.3757872741444,None,t,9.304159040122613,1526.3757872741444,None,10.196988389692706,9.304159040122613,9.552176748804577,False,False,False,1536.656102741963,None,1536.656102741963,None,1536.656102741963,None,1536.656102741963,None,1536.656102741963,None,1536.656102741963,None,1536.656102741963,None,1536.656102741963,None,1537.6413269767581,None,1537.6413269767581,None,1538.638980792337,None,1538.638980792337,None,h,,,,,,,,,,,,,,,,,,,,,,,,,,,,,,,,,,,,,,,,,,,,,,,81_82Exp,001,2021_May_28_1515,ComputerHuman,2020.1.3,60.00739168069162,
Human.xlsx,h,Sychronize.jpg,Number10.jpg,10,Human,,,,,0,8,8,6,0,8,8,9,,,,,,,,,,,,,,,,,,,,,,,,,,,,,1539.6887789896828,None,1539.6887789896828,None,1540.1390651574584,None,1540.1390651574584,None,v,8.032767990782304,1540.1390651574584,None,t,9.47187754418701,1540.1390651574584,None,8.032767990782304,9.47187754418701,9.740909209422774,False,False,False,1549.687832047326,None,1549.687832047326,None,1549.687832047326,None,1549.687832047326,None,1549.687832047326,None,1549.687832047326,None,1549.687832047326,None,1549.687832047326,None,1550.671056540028,None,1550.671056540028,None,1551.6859262937505,None,1551.6859262937505,None,h,,,,,,,,,,,,,,,,,,,,,,,,,,,,,,,,,,,,,,,,,,,,,,,81_82Exp,001,2021_May_28_1515,ComputerHuman,2020.1.3,60.00739168069162,
Human.xlsx,h,Sychronize.jpg,Number9.jpg,9,Human,,,,,0,8,8,6,0,9,9,6,,,,,,,,,,,,,,,,,,,,,,,,,,,,,1552.7362149636137,None,1552.7362149636137,None,1553.1860453031077,None,1553.1860453031077,None,v,11.700624109435012,1553.1860453031077,None,t,8.199987361273088,1553.1860453031077,None,11.700624109435012,8.199987361273088,8.387588590834959,False,False,False,1564.9678754937595,None,1564.9678754937595,None,1564.9678754937595,None,1564.9678754937595,None,1564.9678754937595,None,1564.9678754937595,None,1564.9678754937595,None,1564.9678754937595,None,1565.9514631093443,None,1565.9514631093443,None,1566.9489658375787,None,1566.9489658375787,None,h,,,,,,,,,,,,,,,,,,,,,,,,,,,,,,,,,,,,,,,,,,,,,,,81_82Exp,001,2021_May_28_1515,ComputerHuman,2020.1.3,60.00739168069162,
Human.xlsx,h,,,,,,,,,0,8,8,6,,,,,,,,,,,,,,,,,,,,,,,,,,,,,,,,,,,,,,,,,,,,,,,,,,,,,,,,,,,,,,,,,,,,,,,,,,,,,,,h,1567.9500568101248,None,1567.9500568101248,None,q,0,2.628199058064638,1567.9500568101248,None,o,1,3.927282397329691,1567.9500568101248,None,h,h,1571.9645980852001,None,1571.9645980852001,None,1573.9639353538623,None,None,None,None,None,None,None,None,,,,,,,,,,,,,,,,,,81_82Exp,001,2021_May_28_1515,ComputerHuman,2020.1.3,60.00739168069162,
Computer.xlsx,c,Sychronize.jpg,Number7.jpg,7,Computer,,,,,0,9,9,5,0,0,0,3,,,,,,,,,,,,,,,,,,,,,,,,,1578.9651783760964,None,1578.9651783760964,None,1582.0288034716068,None,1582.0288034716068,None,1582.4621367407854,None,1582.4621367407854,None,v,6.382869774253777,1582.4621367407854,None,t,6.22617455175714,1582.4621367407854,None,6.382869774253777,6.22617455175714,7.30192961098113,False,False,False,1588.9289809270667,None,1588.9289809270667,None,1588.9289809270667,None,1588.9289809270667,None,1588.9289809270667,None,1588.9289809270667,None,1588.9289809270667,None,1588.9289809270667,None,1589.9601918520602,None,1589.9601918520602,None,1590.9433117705048,None,1590.9433117705048,None,c,,,,,,,,,,,,,,,,,,,,,,,,,,,,,,,,,,,,,,,,,,,,,,,81_82Exp,001,2021_May_28_1515,ComputerHuman,2020.1.3,60.00739168069162,
Computer.xlsx,c,Sychronize.jpg,Number8.jpg,8,Computer,,,,,0,9,9,5,0,1,1,4,,,,,,,,,,,,,,,,,,,,,,,,,,,,,1591.9932437330826,None,1591.9932437330826,None,1592.443342565377,None,1592.443342565377,None,v,7.840892512416758,1592.443342565377,None,t,7.408086926228862,1592.443342565377,None,7.840892512416758,7.408086926228862,8.330226567969707,False,False,False,1600.3743979762621,None,1600.3743979762621,None,1600.3743979762621,None,1600.3743979762621,None,1600.3743979762621,None,1600.3743979762621,None,1600.3743979762621,None,1600.3743979762621,None,1601.3574325672453,None,1601.3574325672453,None,1602.3572368914865,None,1602.3572368914865,None,c,,,,,,,,,,,,,,,,,,,,,,,,,,,,,,,,,,,,,,,,,,,,,,,81_82Exp,001,2021_May_28_1515,ComputerHuman,2020.1.3,60.00739168069162,
Computer.xlsx,c,Sychronize.jpg,Number6.jpg,6,Computer,,,,,0,9,9,5,0,2,2,1,,,,,,,,,,,,,,,,,,,,,,,,,,,,,1603.4074097597913,None,1603.4074097597913,None,1603.8574364166052,None,1603.8574364166052,None,v,6.214149474468286,1603.8574364166052,None,t,5.5572024397224595,1603.8574364166052,None,6.214149474468286,5.5572024397224595,6.2407262368348535,False,True,False,1610.15536430656,None,1610.15536430656,None,1610.15536430656,None,1610.15536430656,None,1610.15536430656,None,1610.15536430656,None,1610.15536430656,None,1610.15536430656,None,1611.1550849072373,None,1611.1550849072373,None,1612.1215980486304,None,1612.1215980486304,None,c,,,,,,,,,,,,,,,,,,,,,,,,,,,,,,,,,,,,,,,,,,,,,,,81_82Exp,001,2021_May_28_1515,ComputerHuman,2020.1.3,60.00739168069162,
Computer.xlsx,c,Sychronize.jpg,Number7.jpg,7,Computer,,,,,0,9,9,5,0,3,3,2,,,,,,,,,,,,,,,,,,,,,,,,,,,,,1613.1877874589154,None,1613.1877874589154,None,1613.6218588427146,None,1613.6218588427146,None,v,6.768988086874742,1613.6218588427146,None,t,7.232043220607011,1613.6218588427146,None,6.768988086874742,7.232043220607011,7.094426201013029,False,False,True,1620.9527789486237,None,1620.9527789486237,None,1620.9527789486237,None,1620.9527789486237,None,1620.9527789486237,None,1620.9527789486237,None,1620.9527789486237,None,1620.9527789486237,None,1621.9523558398942,None,1621.9523558398942,None,1622.935676887355,None,1622.935676887355,None,c,,,,,,,,,,,,,,,,,,,,,,,,,,,,,,,,,,,,,,,,,,,,,,,81_82Exp,001,2021_May_28_1515,ComputerHuman,2020.1.3,60.00739168069162,
Computer.xlsx,c,Sychronize.jpg,Number8.jpg,8,Computer,,,,,0,9,9,5,0,4,4,5,,,,,,,,,,,,,,,,,,,,,,,,,,,,,1623.9859546506996,None,1623.9859546506996,None,1624.435708644567,None,1624.435708644567,None,v,8.814453188904736,1624.435708644567,None,t,8.19003612623419,1624.435708644567,None,8.814453188904736,8.19003612623419,7.678889989707565,False,False,False,1633.3331925109414,None,1633.3331925109414,None,1633.3331925109414,None,1633.3331925109414,None,1633.3331925109414,None,1633.3331925109414,None,1633.3331925109414,None,1633.3331925109414,None,1634.316251801978,None,1634.316251801978,None,1635.3160628625992,None,1635.3160628625992,None,c,,,,,,,,,,,,,,,,,,,,,,,,,,,,,,,,,,,,,,,,,,,,,,,81_82Exp,001,2021_May_28_1515,ComputerHuman,2020.1.3,60.00739168069162,
Computer.xlsx,c,Sychronize.jpg,Number6.jpg,6,Computer,,,,,0,9,9,5,0,5,5,0,,,,,,,,,,,,,,,,,,,,,,,,,,,,,1636.3661571398225,None,1636.3661571398225,None,1636.8162274227034,None,1636.8162274227034,None,v,6.813110083330685,1636.8162274227034,None,t,5.452170429092803,1636.8162274227034,None,6.813110083330685,5.452170429092803,5.808351457419259,False,False,False,1643.7140667132408,None,1643.7140667132408,None,1643.7140667132408,None,1643.7140667132408,None,1643.7140667132408,None,1643.7140667132408,None,1643.7140667132408,None,1643.7140667132408,None,1644.7136060732591,None,1644.7136060732591,None,1645.6802558669042,None,1645.6802558669042,None,c,,,,,,,,,,,,,,,,,,,,,,,,,,,,,,,,,,,,,,,,,,,,,,,81_82Exp,001,2021_May_28_1515,ComputerHuman,2020.1.3,60.00739168069162,
Computer.xlsx,c,Sychronize.jpg,Number9.jpg,9,Computer,,,,,0,9,9,5,0,6,6,6,,,,,,,,,,,,,,,,,,,,,,,,,,,,,1646.7469466562216,None,1646.7469466562216,None,1647.1805301337445,None,1647.1805301337445,None,v,9.083863742951507,1647.1805301337445,None,t,9.002956628628453,1647.1805301337445,None,9.083863742951507,9.002956628628453,9.603270326237874,False,False,False,1656.3610807974073,None,1656.3610807974073,None,1656.3610807974073,None,1656.3610807974073,None,1656.3610807974073,None,1656.3610807974073,None,1656.3610807974073,None,1656.3610807974073,None,1657.3607571304565,None,1657.3607571304565,None,1658.3438539527451,None,1658.3438539527451,None,c,,,,,,,,,,,,,,,,,,,,,,,,,,,,,,,,,,,,,,,,,,,,,,,81_82Exp,001,2021_May_28_1515,ComputerHuman,2020.1.3,60.00739168069162,
Computer.xlsx,c,Sychronize.jpg,Number10.jpg,10,Computer,,,,,0,9,9,5,0,7,7,8,,,,,,,,,,,,,,,,,,,,,,,,,,,,,1659.3940524834434,None,1659.3940524834434,None,1659.844121803988,None,1659.844121803988,None,v,10.483291214928613,1659.844121803988,None,t,9.998872458541882,1659.844121803988,None,10.483291214928613,9.998872458541882,9.532616597662232,False,False,False,1670.4243546388934,None,1670.4243546388934,None,1670.4243546388934,None,1670.4243546388934,None,1670.4243546388934,None,1670.4243546388934,None,1670.4243546388934,None,1670.4243546388934,None,1671.4241304137213,None,1671.4241304137213,None,1672.407264767262,None,1672.407264767262,None,c,,,,,,,,,,,,,,,,,,,,,,,,,,,,,,,,,,,,,,,,,,,,,,,81_82Exp,001,2021_May_28_1515,ComputerHuman,2020.1.3,60.00739168069162,
Computer.xlsx,c,Sychronize.jpg,Number10.jpg,10,Computer,,,,,0,9,9,5,0,8,8,9,,,,,,,,,,,,,,,,,,,,,,,,,,,,,1673.4574405225867,None,1673.4574405225867,None,1673.9075223535474,None,1673.9075223535474,None,v,12.382787975373503,1673.9075223535474,None,t,9.054116536783113,1673.9075223535474,None,12.382787975373503,9.054116536783113,10.125320130418457,False,False,False,1686.3872471371978,None,1686.3872471371978,None,1686.3872471371978,None,1686.3872471371978,None,1686.3872471371978,None,1686.3872471371978,None,1686.3872471371978,None,1686.3872471371978,None,1687.3869725495751,None,1687.3869725495751,None,1688.3701020914195,None,1688.3701020914195,None,c,,,,,,,,,,,,,,,,,,,,,,,,,,,,,,,,,,,,,,,,,,,,,,,81_82Exp,001,2021_May_28_1515,ComputerHuman,2020.1.3,60.00739168069162,
Computer.xlsx,c,Sychronize.jpg,Number9.jpg,9,Computer,,,,,0,9,9,5,0,9,9,7,,,,,,,,,,,,,,,,,,,,,,,,,,,,,1689.420382100223,None,1689.420382100223,None,1689.8703885478972,None,1689.8703885478972,None,v,11.214917742403486,1689.8703885478972,None,t,8.217996267401759,1689.8703885478972,None,11.214917742403486,8.217996267401759,8.327285904609544,False,False,True,1701.1507210170494,None,1701.1507210170494,None,1701.1507210170494,None,1701.1507210170494,None,1701.1507210170494,None,1701.1507210170494,None,1701.1507210170494,None,1701.1507210170494,None,1702.1834630246594,None,1702.1834630246594,None,1703.166623361376,None,1703.166623361376,None,c,,,,,,,,,,,,,,,,,,,,,,,,,,,,,,,,,,,,,,,,,,,,,,,81_82Exp,001,2021_May_28_1515,ComputerHuman,2020.1.3,60.00739168069162,
Computer.xlsx,c,,,,,,,,,0,9,9,5,,,,,,,,,,,,,,,,,,,,,,,,,,,,,,,,,,,,,,,,,,,,,,,,,,,,,,,,,,,,,,,,,,,,,,,,,,,,,,,c,1704.1676466493554,None,1704.1676466493554,None,a,1,3.2492087963000813,1704.1676466493554,None,l,0,2.5604009364215017,1704.1676466493554,None,c,c,1707.5158442831562,None,1707.5158442831562,None,None,None,1709.5151860427359,None,1709.5151860427359,None,"['space', 'space']",1710.4982479000137,None,"[386.2596165011746, 386.6118139399405]",,,,,,,,,,,,,,,,,81_82Exp,001,2021_May_28_1515,ComputerHuman,2020.1.3,60.00739168069162,
Human.xlsx,h,Sychronize.jpg,Number6.jpg,6,Human,,,,,1,0,10,8,0,0,0,1,,,,,,,,,,,,,,,,,,,,,,,,,2097.159203400781,None,2097.159203400781,None,2100.2393704757997,None,2100.2393704757997,None,2100.672362435129,None,2100.672362435129,None,v,6.6569678854357335,2100.672362435129,None,t,4.544271800685237,2100.672362435129,None,6.6569678854357335,4.544271800685237,6.395876513840355,False,False,False,2107.4050812182686,None,2107.4050812182686,None,2107.4050812182686,None,2107.4050812182686,None,2107.4050812182686,None,2107.4050812182686,None,2107.4050812182686,None,2107.4050812182686,None,2108.422324422707,None,2108.422324422707,None,2109.420188669923,None,2109.420188669923,None,h,,,,,,,,,,,,,,,,,,,,,,,,,,,,,,,,,,,,,,,,,,,,,,,81_82Exp,001,2021_May_28_1515,ComputerHuman,2020.1.3,60.00739168069162,
Human.xlsx,h,Sychronize.jpg,Number9.jpg,9,Human,,,,,1,0,10,8,0,1,1,6,,,,,,,,,,,,,,,,,,,,,,,,,,,,,2110.4706139920345,None,2110.4706139920345,None,2110.9036819762077,None,2110.9036819762077,None,v,8.388866755070921,2110.9036819762077,None,t,7.076092849110864,2110.9036819762077,None,8.388866755070921,7.076092849110864,8.860664707573305,False,False,False,2119.3844290855013,None,2119.3844290855013,None,2119.3844290855013,None,2119.3844290855013,None,2119.3844290855013,None,2119.3844290855013,None,2119.3844290855013,None,2119.3844290855013,None,2120.369100295695,None,2120.369100295695,None,2121.3674409011073,None,2121.3674409011073,None,h,,,,,,,,,,,,,,,,,,,,,,,,,,,,,,,,,,,,,,,,,,,,,,,81_82Exp,001,2021_May_28_1515,ComputerHuman,2020.1.3,60.00739168069162,
Human.xlsx,h,Sychronize.jpg,Number9.jpg,9,Human,,,,,1,0,10,8,0,2,2,7,,,,,,,,,,,,,,,,,,,,,,,,,,,,,2122.4175508965454,None,2122.4175508965454,None,2122.8674088231164,None,2122.8674088231164,None,v,8.056322219592403,2122.8674088231164,None,t,7.684040107757028,2122.8674088231164,None,8.056322219592403,7.684040107757028,8.578235685299676,False,False,False,2130.999838326912,None,2130.999838326912,None,2130.999838326912,None,2130.999838326912,None,2130.999838326912,None,2130.999838326912,None,2130.999838326912,None,2130.999838326912,None,2131.98308206641,None,2131.98308206641,None,2132.981205503813,None,2132.981205503813,None,h,,,,,,,,,,,,,,,,,,,,,,,,,,,,,,,,,,,,,,,,,,,,,,,81_82Exp,001,2021_May_28_1515,ComputerHuman,2020.1.3,60.00739168069162,
Human.xlsx,h,Sychronize.jpg,Number8.jpg,8,Human,,,,,1,0,10,8,0,3,3,5,,,,,,,,,,,,,,,,,,,,,,,,,,,,,2134.0648004331815,None,2134.0648004331815,None,2134.4810553788047,None,2134.4810553788047,None,v,7.238020633845736,2134.4810553788047,None,t,7.189125752793188,2134.4810553788047,None,7.238020633845736,7.189125752793188,7.791531313973923,True,False,False,2141.797187209093,None,2141.797187209093,None,2141.797187209093,None,2141.797187209093,None,2141.797187209093,None,2141.797187209093,None,2141.797187209093,None,2141.797187209093,None,2142.7976183373175,None,2142.7976183373175,None,2143.7952987776334,None,2143.7952987776334,None,h,,,,,,,,,,,,,,,,,,,,,,,,,,,,,,,,,,,,,,,,,,,,,,,81_82Exp,001,2021_May_28_1515,ComputerHuman,2020.1.3,60.00739168069162,
Human.xlsx,h,Sychronize.jpg,Number6.jpg,6,Human,,,,,1,0,10,8,0,4,4,0,,,,,,,,,,,,,,,,,,,,,,,,,,,,,2144.845403319814,None,2144.845403319814,None,2145.2790669923197,None,2145.2790669923197,None,v,5.251297073653404,2145.2790669923197,None,t,5.618168269604212,2145.2790669923197,None,5.251297073653404,5.618168269604212,5.830388871078668,False,False,False,2150.961478500365,None,2150.961478500365,None,2150.961478500365,None,2150.961478500365,None,2150.961478500365,None,2150.961478500365,None,2150.961478500365,None,2150.961478500365,None,2151.9794707259425,None,2151.9794707259425,None,2152.976458281606,None,2152.976458281606,None,h,,,,,,,,,,,,,,,,,,,,,,,,,,,,,,,,,,,,,,,,,,,,,,,81_82Exp,001,2021_May_28_1515,ComputerHuman,2020.1.3,60.00739168069162,
Human.xlsx,h,Sychronize.jpg,Number7.jpg,7,Human,,,,,1,0,10,8,0,5,5,3,,,,,,,,,,,,,,,,,,,,,,,,,,,,,2154.0267729346415,None,2154.0267729346415,None,2154.4762026200005,None,2154.4762026200005,None,v,6.43749923814903,2154.4762026200005,None,t,6.29711920374757,2154.4762026200005,None,6.43749923814903,6.29711920374757,6.7369635412504465,True,False,False,2160.992736900789,None,2160.992736900789,None,2160.992736900789,None,2160.992736900789,None,2160.992736900789,None,2160.992736900789,None,2160.992736900789,None,2160.992736900789,None,2161.9933544021587,None,2161.9933544021587,None,2162.974079056854,None,2162.974079056854,None,h,,,,,,,,,,,,,,,,,,,,,,,,,,,,,,,,,,,,,,,,,,,,,,,81_82Exp,001,2021_May_28_1515,ComputerHuman,2020.1.3,60.00739168069162,
Human.xlsx,h,Sychronize.jpg,Number10.jpg,10,Human,,,,,1,0,10,8,0,6,6,9,,,,,,,,,,,,,,,,,,,,,,,,,,,,,2164.023837477489,None,2164.023837477489,None,2164.473970954019,None,2164.473970954019,None,v,9.122839787745761,2164.473970954019,None,t,8.701996085201245,2164.473970954019,None,9.122839787745761,8.701996085201245,9.603327192147004,False,False,False,2173.672568375845,None,2173.672568375845,None,2173.672568375845,None,2173.672568375845,None,2173.672568375845,None,2173.672568375845,None,2173.672568375845,None,2173.672568375845,None,2174.6735047324655,None,2174.6735047324655,None,2175.6710889388014,None,2175.6710889388014,None,h,,,,,,,,,,,,,,,,,,,,,,,,,,,,,,,,,,,,,,,,,,,,,,,81_82Exp,001,2021_May_28_1515,ComputerHuman,2020.1.3,60.00739168069162,
Human.xlsx,h,Sychronize.jpg,Number10.jpg,10,Human,,,,,1,0,10,8,0,7,7,8,,,,,,,,,,,,,,,,,,,,,,,,,,,,,2176.7207953930847,None,2176.7207953930847,None,2177.1711020907787,None,2177.1711020907787,None,v,9.268822564430593,2177.1711020907787,None,t,9.343954677646252,2177.1711020907787,None,9.268822564430593,9.343954677646252,9.272025028991537,True,False,False,2186.6018652711427,None,2186.6018652711427,None,2186.6018652711427,None,2186.6018652711427,None,2186.6018652711427,None,2186.6018652711427,None,2186.6018652711427,None,2186.6018652711427,None,2187.587620717506,None,2187.587620717506,None,2188.584678844756,None,2188.584678844756,None,h,,,,,,,,,,,,,,,,,,,,,,,,,,,,,,,,,,,,,,,,,,,,,,,81_82Exp,001,2021_May_28_1515,ComputerHuman,2020.1.3,60.00739168069162,
Human.xlsx,h,Sychronize.jpg,Number8.jpg,8,Human,,,,,1,0,10,8,0,8,8,4,,,,,,,,,,,,,,,,,,,,,,,,,,,,,2189.6350281420237,None,2189.6350281420237,None,2190.0847596812964,None,2190.0847596812964,None,v,6.8344733852100035,2190.0847596812964,None,t,6.782060510642623,2190.0847596812964,None,6.8344733852100035,6.782060510642623,8.534341927759494,True,False,False,2197.016000502983,None,2197.016000502983,None,2197.016000502983,None,2197.016000502983,None,2197.016000502983,None,2197.016000502983,None,2197.016000502983,None,2197.016000502983,None,2197.985131850175,None,2197.985131850175,None,2198.9821951099,None,2198.9821951099,None,h,,,,,,,,,,,,,,,,,,,,,,,,,,,,,,,,,,,,,,,,,,,,,,,81_82Exp,001,2021_May_28_1515,ComputerHuman,2020.1.3,60.00739168069162,
Human.xlsx,h,Sychronize.jpg,Number7.jpg,7,Human,,,,,1,0,10,8,0,9,9,2,,,,,,,,,,,,,,,,,,,,,,,,,,,,,2200.032366053525,None,2200.032366053525,None,2200.482500492395,None,2200.482500492395,None,v,6.688195811766491,2200.482500492395,None,t,5.835104038553254,2200.482500492395,None,6.688195811766491,5.835104038553254,6.51354920797998,False,False,False,2207.263583265809,None,2207.263583265809,None,2207.263583265809,None,2207.263583265809,None,2207.263583265809,None,2207.263583265809,None,2207.263583265809,None,2207.263583265809,None,2208.2494436072084,None,2208.2494436072084,None,2209.2464353330106,None,2209.2464353330106,None,h,,,,,,,,,,,,,,,,,,,,,,,,,,,,,,,,,,,,,,,,,,,,,,,81_82Exp,001,2021_May_28_1515,ComputerHuman,2020.1.3,60.00739168069162,
Human.xlsx,h,,,,,,,,,1,0,10,8,,,,,,,,,,,,,,,,,,,,,,,,,,,,,,,,,,,,,,,,,,,,,,,,,,,,,,,,,,,,,,,,,,,,,,,,,,,,,,,h,2210.2468103247484,None,2210.2468103247484,None,a,0,5.899034837340878,2210.2468103247484,None,o,1,11.441789028169296,2210.2468103247484,None,c,h,2221.776745187177,None,2221.776745187177,None,2223.776336834326,None,None,None,None,None,None,None,None,,,,,,,,,,,,,,,,,,81_82Exp,001,2021_May_28_1515,ComputerHuman,2020.1.3,60.00739168069162,
Human.xlsx,h,Sychronize.jpg,Number10.jpg,10,Human,,,,,1,1,11,0,0,0,0,9,,,,,,,,,,,,,,,,,,,,,,,,,2228.779051274105,None,2228.779051274105,None,2231.8411484948047,None,2231.8411484948047,None,2232.2744673288835,None,2232.2744673288835,None,v,8.54965641261515,2232.2744673288835,None,t,8.816975481506233,2232.2744673288835,None,8.54965641261515,8.816975481506233,10.010618058186434,True,False,False,2241.1725773576836,None,2241.1725773576836,None,2241.1725773576836,None,2241.1725773576836,None,2241.1725773576836,None,2241.1725773576836,None,2241.1725773576836,None,2241.1725773576836,None,2242.190630210669,None,2242.190630210669,None,2243.188403035605,None,2243.188403035605,None,h,,,,,,,,,,,,,,,,,,,,,,,,,,,,,,,,,,,,,,,,,,,,,,,81_82Exp,001,2021_May_28_1515,ComputerHuman,2020.1.3,60.00739168069162,
Human.xlsx,h,Sychronize.jpg,Number6.jpg,6,Human,,,,,1,1,11,0,0,1,1,0,,,,,,,,,,,,,,,,,,,,,,,,,,,,,2244.2382746915537,None,2244.2382746915537,None,2244.671564976219,None,2244.671564976219,None,v,4.919974709711823,2244.671564976219,None,t,5.2472206022830505,2244.671564976219,None,4.919974709711823,5.2472206022830505,5.688795486916948,False,False,False,2249.9876916740286,None,2249.9876916740286,None,2249.9876916740286,None,2249.9876916740286,None,2249.9876916740286,None,2249.9876916740286,None,2249.9876916740286,None,2249.9876916740286,None,2250.971133655523,None,2250.971133655523,None,2251.986275109848,None,2251.986275109848,None,h,,,,,,,,,,,,,,,,,,,,,,,,,,,,,,,,,,,,,,,,,,,,,,,81_82Exp,001,2021_May_28_1515,ComputerHuman,2020.1.3,60.00739168069162,
Human.xlsx,h,Sychronize.jpg,Number10.jpg,10,Human,,,,,1,1,11,0,0,2,2,8,,,,,,,,,,,,,,,,,,,,,,,,,,,,,2253.036581422606,None,2253.036581422606,None,2253.4866067962976,None,2253.4866067962976,None,v,8.364281860343908,2253.4866067962976,None,t,9.018961943311297,2253.4866067962976,None,8.364281860343908,9.018961943311297,9.975267685936965,False,False,False,2262.6004240069124,None,2262.6004240069124,None,2262.6004240069124,None,2262.6004240069124,None,2262.6004240069124,None,2262.6004240069124,None,2262.6004240069124,None,2262.6004240069124,None,2263.569697459614,None,2263.569697459614,None,2264.5666782788976,None,2264.5666782788976,None,h,,,,,,,,,,,,,,,,,,,,,,,,,,,,,,,,,,,,,,,,,,,,,,,81_82Exp,001,2021_May_28_1515,ComputerHuman,2020.1.3,60.00739168069162,
Human.xlsx,h,Sychronize.jpg,Number8.jpg,8,Human,,,,,1,1,11,0,0,3,3,4,,,,,,,,,,,,,,,,,,,,,,,,,,,,,2265.633549988099,None,2265.633549988099,None,2266.066594234555,None,2266.066594234555,None,v,6.659387849238556,2266.066594234555,None,t,6.263171705155401,2266.066594234555,None,6.659387849238556,6.263171705155401,7.812946532918254,False,False,False,2272.8146103710715,None,2272.8146103710715,None,2272.8146103710715,None,2272.8146103710715,None,2272.8146103710715,None,2272.8146103710715,None,2272.8146103710715,None,2272.8146103710715,None,2273.7999446333815,None,2273.7999446333815,None,2274.797545520276,None,2274.797545520276,None,h,,,,,,,,,,,,,,,,,,,,,,,,,,,,,,,,,,,,,,,,,,,,,,,81_82Exp,001,2021_May_28_1515,ComputerHuman,2020.1.3,60.00739168069162,
Human.xlsx,h,Sychronize.jpg,Number6.jpg,6,Human,,,,,1,1,11,0,0,4,4,1,,,,,,,,,,,,,,,,,,,,,,,,,,,,,2275.8471348898856,None,2275.8471348898856,None,2276.2975195371,None,2276.2975195371,None,v,4.947906301465991,2276.2975195371,None,t,4.955215592985041,2276.2975195371,None,4.947906301465991,4.955215592985041,5.739110047423274,True,False,False,2281.329474992315,None,2281.329474992315,None,2281.329474992315,None,2281.329474992315,None,2281.329474992315,None,2281.329474992315,None,2281.329474992315,None,2281.329474992315,None,2282.3153597129894,None,2282.3153597129894,None,2283.31217950075,None,2283.31217950075,None,h,,,,,,,,,,,,,,,,,,,,,,,,,,,,,,,,,,,,,,,,,,,,,,,81_82Exp,001,2021_May_28_1515,ComputerHuman,2020.1.3,60.00739168069162,
Human.xlsx,h,Sychronize.jpg,Number7.jpg,7,Human,,,,,1,1,11,0,0,5,5,3,,,,,,,,,,,,,,,,,,,,,,,,,,,,,2284.3788449484528,None,2284.3788449484528,None,2284.8119103663885,None,2284.8119103663885,None,v,6.14079287817367,2284.8119103663885,None,t,6.104175207430671,2284.8119103663885,None,6.14079287817367,6.104175207430671,6.914476819691297,True,False,False,2291.043650129177,None,2291.043650129177,None,2291.043650129177,None,2291.043650129177,None,2291.043650129177,None,2291.043650129177,None,2291.043650129177,None,2291.043650129177,None,2292.0297279593688,None,2292.0297279593688,None,2293.026542293872,None,2293.026542293872,None,h,,,,,,,,,,,,,,,,,,,,,,,,,,,,,,,,,,,,,,,,,,,,,,,81_82Exp,001,2021_May_28_1515,ComputerHuman,2020.1.3,60.00739168069162,
Human.xlsx,h,Sychronize.jpg,Number8.jpg,8,Human,,,,,1,1,11,0,0,6,6,5,,,,,,,,,,,,,,,,,,,,,,,,,,,,,2294.0927724432077,None,2294.0927724432077,None,2294.509533900342,None,2294.509533900342,None,v,6.542514889002632,2294.509533900342,None,t,6.946039683043637,2294.509533900342,None,6.542514889002632,6.946039683043637,7.861872448120434,False,False,False,2301.5578087137947,None,2301.5578087137947,None,2301.5578087137947,None,2301.5578087137947,None,2301.5578087137947,None,2301.5578087137947,None,2301.5578087137947,None,2301.5578087137947,None,2302.527046559924,None,2302.527046559924,None,2303.524041493525,None,2303.524041493525,None,h,,,,,,,,,,,,,,,,,,,,,,,,,,,,,,,,,,,,,,,,,,,,,,,81_82Exp,001,2021_May_28_1515,ComputerHuman,2020.1.3,60.00739168069162,
Human.xlsx,h,Sychronize.jpg,Number9.jpg,9,Human,,,,,1,1,11,0,0,7,7,6,,,,,,,,,,,,,,,,,,,,,,,,,,,,,2304.5746259224798,None,2304.5746259224798,None,2305.0241797496747,None,2305.0241797496747,None,v,8.631274054485402,2305.0241797496747,None,t,7.738052391061501,2305.0241797496747,None,8.631274054485402,7.738052391061501,8.488755281191478,False,False,False,2313.738303561746,None,2313.738303561746,None,2313.738303561746,None,2313.738303561746,None,2313.738303561746,None,2313.738303561746,None,2313.738303561746,None,2313.738303561746,None,2314.70728189691,None,2314.70728189691,None,2315.7044834127882,None,2315.7044834127882,None,h,,,,,,,,,,,,,,,,,,,,,,,,,,,,,,,,,,,,,,,,,,,,,,,81_82Exp,001,2021_May_28_1515,ComputerHuman,2020.1.3,60.00739168069162,
Human.xlsx,h,Sychronize.jpg,Number9.jpg,9,Human,,,,,1,1,11,0,0,8,8,7,,,,,,,,,,,,,,,,,,,,,,,,,,,,,2316.754351860938,None,2316.754351860938,None,2317.203577530261,None,2317.203577530261,None,v,7.54683900247619,2317.203577530261,None,t,8.402097644127934,2317.203577530261,None,7.54683900247619,8.402097644127934,8.368958429551082,False,False,False,2325.7021500595656,None,2325.7021500595656,None,2325.7021500595656,None,2325.7021500595656,None,2325.7021500595656,None,2325.7021500595656,None,2325.7021500595656,None,2325.7021500595656,None,2326.6872710032258,None,2326.6872710032258,None,2327.6677015027235,None,2327.6677015027235,None,h,,,,,,,,,,,,,,,,,,,,,,,,,,,,,,,,,,,,,,,,,,,,,,,81_82Exp,001,2021_May_28_1515,ComputerHuman,2020.1.3,60.00739168069162,
Human.xlsx,h,Sychronize.jpg,Number7.jpg,7,Human,,,,,1,1,11,0,0,9,9,2,,,,,,,,,,,,,,,,,,,,,,,,,,,,,2328.718583294678,None,2328.718583294678,None,2329.168525265588,None,2329.168525265588,None,v,6.285148979823134,2329.168525265588,None,t,6.180148084848042,2329.168525265588,None,6.285148979823134,6.180148084848042,7.475514177859935,True,False,False,2335.5346862547703,None,2335.5346862547703,None,2335.5346862547703,None,2335.5346862547703,None,2335.5346862547703,None,2335.5346862547703,None,2335.5346862547703,None,2335.5346862547703,None,2336.5350974946414,None,2336.5350974946414,None,2337.5326197904506,None,2337.5326197904506,None,h,,,,,,,,,,,,,,,,,,,,,,,,,,,,,,,,,,,,,,,,,,,,,,,81_82Exp,001,2021_May_28_1515,ComputerHuman,2020.1.3,60.00739168069162,
Human.xlsx,h,,,,,,,,,1,1,11,0,,,,,,,,,,,,,,,,,,,,,,,,,,,,,,,,,,,,,,,,,,,,,,,,,,,,,,,,,,,,,,,,,,,,,,,,,,,,,,,h,2338.5330185199055,None,2338.5330185199055,None,q,0,2.8522237427168875,2338.5330185199055,None,o,1,3.4513396090696915,2338.5330185199055,None,h,h,2342.064997712838,None,2342.064997712838,None,2344.081086430302,None,None,None,None,None,None,None,None,,,,,,,,,,,,,,,,,,81_82Exp,001,2021_May_28_1515,ComputerHuman,2020.1.3,60.00739168069162,
