Condition,CorrectTuringReply,Sychronize,NumberImage,Number,Partner,trials.thisRepN,trials.thisTrialN,trials.thisN,trials.thisIndex,Block.thisRepN,Block.thisTrialN,Block.thisN,Block.thisIndex,trials_loop.thisRepN,trials_loop.thisTrialN,trials_loop.thisN,trials_loop.thisIndex,key_resp_Istr.keys,key_resp_Istr.rt,key_resp_Istr.started,key_resp_Istr.stopped,key_respPrLeft.keys,key_respPrLeft.rt,key_respPrRight.keys,key_respPrRight.rt,RTPrLeft,RTPrRight,CompPr,SychronizedRTsPr,SychronizedRTsLeftCPr,SychronizedRTsRightCPr,CreditLeftPr.started,CreditLeftPr.stopped,CreditRightPr.started,CreditRightPr.stopped,text_StartExp.started,text_StartExp.stopped,key_startExp.keys,key_startExp.rt,key_startExp.started,key_startExp.stopped,SychroLeft.started,SychroLeft.stopped,SychroRight.started,SychroRight.stopped,NumberLeft.started,NumberLeft.stopped,NumberRight.started,NumberRight.stopped,CrossLeft.started,CrossLeft.stopped,CrossRight.started,CrossRight.stopped,key_respLeft.keys,key_respLeft.rt,key_respLeft.started,key_respLeft.stopped,key_respRight.keys,key_respRight.rt,key_respRight.started,key_respRight.stopped,RTLeft,RTRight,Comp,SychronizedRTs,SychronizedRTsLeftC,SychronizedRTsRightC,FeedbackLeftLeft.started,FeedbackLeftLeft.stopped,FeedbackLeftRight.started,FeedbackLeftRight.stopped,FeedbackRightLeft.started,FeedbackRightLeft.stopped,FeedbackRightRight.started,FeedbackRightRight.stopped,textLeftLeft.started,textLeftLeft.stopped,textLeftRight.started,textLeftRight.stopped,textRightLeft.started,textRightLeft.stopped,textRightRight.started,textRightRight.stopped,CreditLeft.started,CreditLeft.stopped,CreditRight.started,CreditRight.stopped,BlankLeft.started,BlankLeft.stopped,BlankRight.started,BlankRight.stopped,CorrectTuringReply,TuringtextLeft.started,TuringtextLeft.stopped,TuringtextRight.started,TuringtextRight.stopped,keyTuringLeft.keys,keyTuringLeft.corr,keyTuringLeft.rt,keyTuringLeft.started,keyTuringLeft.stopped,keyTuringRight.keys,keyTuringRight.corr,keyTuringRight.rt,keyTuringRight.started,keyTuringRight.stopped,RespTuringLeft,RespTuringRight,ScoreLeft.started,ScoreLeft.stopped,ScoreRight.started,ScoreRight.stopped,BlockText.started,BlockText.stopped,text_Pause.started,text_Pause.stopped,text_LongPause.started,text_LongPause.stopped,key_respPause.keys,key_respPause.started,key_respPause.stopped,key_respPause.rt,QuestImageLeft.started,QuestImageLeft.stopped,QuestImageRight.started,QuestImageRight.stopped,respQuestLeft.keys,respQuestLeft.rt,respQuestLeft.started,respQuestLeft.stopped,respQuestRight.keys,respQuestRight.rt,respQuestRight.started,respQuestRight.stopped,RespInclusionLeft,RespInclusionRight,EndText.started,EndText.stopped,participant,session,date,expName,psychopyVersion,frameRate,
,,,,,,,,,,,,,,,,,,"['v', 't']","[238.86703276328421, 239.27078853092576]",16.948528770202756,None,,,,,,,,,,,,,,,,,,,,,,,,,,,,,,,,,,,,,,,,,,,,,,,,,,,,,,,,,,,,,,,,,,,,,,,,,,,,,,,,,,,,,,,,,,,,,,,,,,,,,,,,,,,,,,,,,,,,,,83_84Exp,001,2021_May_31_1038,ComputerHuman,2020.1.3,60.03262190366982,
,,,,,,,,,,,,,,,,,,,,,,v,8.140307988215909,t,7.551895302226967,8.140307988215909,7.551895302226967,7,False,False,False,327.892255449427,None,327.892255449427,None,328.90871632441485,None,"['space', 'space']","[118.96680077449355, 119.88276386158691]",329.8918785317985,None,,,,,,,,,,,,,,,,,,,,,,,,,,,,,,,,,,,,,,,,,,,,,,,,,,,,,,,,,,,,,,,,,,,,,,,,,,,,,,,,,,,,,,,,,,,,,,,,,,83_84Exp,001,2021_May_31_1038,ComputerHuman,2020.1.3,60.03262190366982,
Human.xlsx,h,Sychronize.jpg,Number10.jpg,10,Human,,,,,0,0,0,8,0,0,0,8,,,,,,,,,,,,,,,,,,,,,,,,,449.8487995734897,None,449.8487995734897,None,452.913075096106,None,452.913075096106,None,453.329755449427,None,453.329755449427,None,v,10.15195041239599,453.329755449427,None,t,11.831601543854731,453.329755449427,None,10.15195041239599,11.831601543854731,10.415560006616744,False,False,False,465.22697177640816,None,465.22697177640816,None,465.22697177640816,None,465.22697177640816,None,465.22697177640816,None,465.22697177640816,None,465.22697177640816,None,465.22697177640816,None,466.2300458203524,None,466.2300458203524,None,467.24301531536616,None,467.24301531536616,None,h,,,,,,,,,,,,,,,,,,,,,,,,,,,,,,,,,,,,,,,,,,,,,,,83_84Exp,001,2021_May_31_1038,ComputerHuman,2020.1.3,60.03262190366982,
Human.xlsx,h,Sychronize.jpg,Number7.jpg,7,Human,,,,,0,0,0,8,0,1,1,3,,,,,,,,,,,,,,,,,,,,,,,,,,,,,468.2764413330117,None,468.2764413330117,None,468.7264344682992,None,468.7264344682992,None,v,7.886423972346165,468.7264344682992,None,t,8.025888627416862,468.7264344682992,None,7.886423972346165,8.025888627416862,7.34593310615483,True,False,False,476.84077748322966,None,476.84077748322966,None,476.84077748322966,None,476.84077748322966,None,476.84077748322966,None,476.84077748322966,None,476.84077748322966,None,476.84077748322966,None,477.8258355060898,None,477.8258355060898,None,478.82354833784143,None,478.82354833784143,None,h,,,,,,,,,,,,,,,,,,,,,,,,,,,,,,,,,,,,,,,,,,,,,,,83_84Exp,001,2021_May_31_1038,ComputerHuman,2020.1.3,60.03262190366982,
Human.xlsx,h,Sychronize.jpg,Number7.jpg,7,Human,,,,,0,0,0,8,0,2,2,2,,,,,,,,,,,,,,,,,,,,,,,,,,,,,479.8571648993775,None,479.8571648993775,None,480.3239188398509,None,480.3239188398509,None,v,8.0161933436666,480.3239188398509,None,t,7.931900447553517,480.3239188398509,None,8.0161933436666,7.931900447553517,7.194993635597179,True,False,False,488.42250381087797,None,488.42250381087797,None,488.42250381087797,None,488.42250381087797,None,488.42250381087797,None,488.42250381087797,None,488.42250381087797,None,488.42250381087797,None,489.4232672695639,None,489.4232672695639,None,490.4209095295041,None,490.4209095295041,None,h,,,,,,,,,,,,,,,,,,,,,,,,,,,,,,,,,,,,,,,,,,,,,,,83_84Exp,001,2021_May_31_1038,ComputerHuman,2020.1.3,60.03262190366982,
Human.xlsx,h,Sychronize.jpg,Number8.jpg,8,Human,,,,,0,0,0,8,0,3,3,4,,,,,,,,,,,,,,,,,,,,,,,,,,,,,491.4875771157431,None,491.4875771157431,None,491.920773518377,None,491.920773518377,None,v,8.798490212331444,491.920773518377,None,t,9.801743893613775,491.920773518377,None,8.798490212331444,9.801743893613775,8.283366698200528,False,False,False,501.80203387960205,None,501.80203387960205,None,501.80203387960205,None,501.80203387960205,None,501.80203387960205,None,501.80203387960205,None,501.80203387960205,None,501.80203387960205,None,502.7872147615701,None,502.7872147615701,None,503.78439124755573,None,503.78439124755573,None,h,,,,,,,,,,,,,,,,,,,,,,,,,,,,,,,,,,,,,,,,,,,,,,,83_84Exp,001,2021_May_31_1038,ComputerHuman,2020.1.3,60.03262190366982,
Human.xlsx,h,Sychronize.jpg,Number10.jpg,10,Human,,,,,0,0,0,8,0,4,4,9,,,,,,,,,,,,,,,,,,,,,,,,,,,,,504.8516946216582,None,504.8516946216582,None,505.301165204761,None,505.301165204761,None,v,11.797065303304862,505.301165204761,None,t,11.676640922925344,505.301165204761,None,11.797065303304862,11.676640922925344,9.365961706538437,True,False,False,517.1812505453277,None,517.1812505453277,None,517.1812505453277,None,517.1812505453277,None,517.1812505453277,None,517.1812505453277,None,517.1812505453277,None,517.1812505453277,None,518.1505604684942,None,518.1505604684942,None,519.1475031051598,None,519.1475031051598,None,h,,,,,,,,,,,,,,,,,,,,,,,,,,,,,,,,,,,,,,,,,,,,,,,83_84Exp,001,2021_May_31_1038,ComputerHuman,2020.1.3,60.03262190366982,
Human.xlsx,h,Sychronize.jpg,Number9.jpg,9,Human,,,,,0,0,0,8,0,5,5,7,,,,,,,,,,,,,,,,,,,,,,,,,,,,,520.2147638153945,None,520.2147638153945,None,520.6473780005851,None,520.6473780005851,None,v,10.814010878324098,520.6473780005851,None,t,10.476710981487031,520.6473780005851,None,10.814010878324098,10.476710981487031,8.597604590246778,False,False,False,531.52862488901,None,531.52862488901,None,531.52862488901,None,531.52862488901,None,531.52862488901,None,531.52862488901,None,531.52862488901,None,531.52862488901,None,532.5127747809709,None,532.5127747809709,None,533.5107618804436,None,533.5107618804436,None,h,,,,,,,,,,,,,,,,,,,,,,,,,,,,,,,,,,,,,,,,,,,,,,,83_84Exp,001,2021_May_31_1038,ComputerHuman,2020.1.3,60.03262190366982,
Human.xlsx,h,Sychronize.jpg,Number9.jpg,9,Human,,,,,0,0,0,8,0,6,6,6,,,,,,,,,,,,,,,,,,,,,,,,,,,,,534.5605663323702,None,534.5605663323702,None,535.0104779892938,None,535.0104779892938,None,v,11.053833460790202,535.0104779892938,None,t,10.956701306733294,535.0104779892938,None,11.053833460790202,10.956701306733294,9.19856217763807,True,False,False,546.1416886294699,None,546.1416886294699,None,546.1416886294699,None,546.1416886294699,None,546.1416886294699,None,546.1416886294699,None,546.1416886294699,None,546.1416886294699,None,547.1434404142951,None,547.1434404142951,None,548.1239908230984,None,548.1239908230984,None,h,,,,,,,,,,,,,,,,,,,,,,,,,,,,,,,,,,,,,,,,,,,,,,,83_84Exp,001,2021_May_31_1038,ComputerHuman,2020.1.3,60.03262190366982,
Human.xlsx,h,Sychronize.jpg,Number8.jpg,8,Human,,,,,0,0,0,8,0,7,7,5,,,,,,,,,,,,,,,,,,,,,,,,,,,,,549.1907937789024,None,549.1907937789024,None,549.6241467226453,None,549.6241467226453,None,v,9.671734578134647,549.6241467226453,None,t,9.55075588825548,549.6241467226453,None,9.671734578134647,9.55075588825548,8.094570437523837,True,False,False,559.3726631107029,None,559.3726631107029,None,559.3726631107029,None,559.3726631107029,None,559.3726631107029,None,559.3726631107029,None,559.3726631107029,None,559.3726631107029,None,560.3731753978968,None,560.3731753978968,None,561.3709562352121,None,561.3709562352121,None,h,,,,,,,,,,,,,,,,,,,,,,,,,,,,,,,,,,,,,,,,,,,,,,,83_84Exp,001,2021_May_31_1038,ComputerHuman,2020.1.3,60.03262190366982,
Human.xlsx,h,Sychronize.jpg,Number6.jpg,6,Human,,,,,0,0,0,8,0,8,8,0,,,,,,,,,,,,,,,,,,,,,,,,,,,,,562.4205948433819,None,562.4205948433819,None,562.8709549520881,None,562.8709549520881,None,v,7.235757325354143,562.8709549520881,None,t,7.002874197406072,562.8709549520881,None,7.235757325354143,7.002874197406072,6.4122898641187325,True,False,False,570.1692934350253,None,570.1692934350253,None,570.1692934350253,None,570.1692934350253,None,570.1692934350253,None,570.1692934350253,None,570.1692934350253,None,570.1692934350253,None,571.1702471168207,None,571.1702471168207,None,572.185121088397,None,572.185121088397,None,h,,,,,,,,,,,,,,,,,,,,,,,,,,,,,,,,,,,,,,,,,,,,,,,83_84Exp,001,2021_May_31_1038,ComputerHuman,2020.1.3,60.03262190366982,
Human.xlsx,h,Sychronize.jpg,Number6.jpg,6,Human,,,,,0,0,0,8,0,9,9,1,,,,,,,,,,,,,,,,,,,,,,,,,,,,,573.2358551635471,None,573.2358551635471,None,573.6850922181106,None,573.6850922181106,None,v,7.808883515451271,573.6850922181106,None,t,7.39988618691541,573.6850922181106,None,7.808883515451271,7.39988618691541,6.007939245293894,False,False,False,581.5663185765538,None,581.5663185765538,None,581.5663185765538,None,581.5663185765538,None,581.5663185765538,None,581.5663185765538,None,581.5663185765538,None,581.5663185765538,None,582.551855846169,None,582.551855846169,None,583.5490422763646,None,583.5490422763646,None,h,,,,,,,,,,,,,,,,,,,,,,,,,,,,,,,,,,,,,,,,,,,,,,,83_84Exp,001,2021_May_31_1038,ComputerHuman,2020.1.3,60.03262190366982,
Human.xlsx,h,,,,,,,,,0,0,0,8,,,,,,,,,,,,,,,,,,,,,,,,,,,,,,,,,,,,,,,,,,,,,,,,,,,,,,,,,,,,,,,,,,,,,,,,,,,,,,,h,584.5492485385221,None,584.5492485385221,None,a,0,9.003899734136667,584.5492485385221,None,o,1,9.366759137124973,584.5492485385221,None,c,h,594.0300279849312,None,594.0300279849312,None,596.0127504016177,None,None,None,None,None,None,None,None,,,,,,,,,,,,,,,,,,83_84Exp,001,2021_May_31_1038,ComputerHuman,2020.1.3,60.03262190366982,
Computer.xlsx,c,Sychronize.jpg,Number10.jpg,10,Computer,,,,,0,1,1,1,0,0,0,8,,,,,,,,,,,,,,,,,,,,,,,,,601.0145236787675,None,601.0145236787675,None,604.0781448082244,None,604.0781448082244,None,604.511059885956,None,604.511059885956,None,v,11.948611852471913,604.511059885956,None,t,12.099538011260847,604.511059885956,None,11.948611852471913,12.099538011260847,9.701149275412007,False,False,False,616.6917455360121,None,616.6917455360121,None,616.6917455360121,None,616.6917455360121,None,616.6917455360121,None,616.6917455360121,None,616.6917455360121,None,616.6917455360121,None,617.6908781442949,None,617.6908781442949,None,618.6741430015859,None,618.6741430015859,None,c,,,,,,,,,,,,,,,,,,,,,,,,,,,,,,,,,,,,,,,,,,,,,,,83_84Exp,001,2021_May_31_1038,ComputerHuman,2020.1.3,60.03262190366982,
Computer.xlsx,c,Sychronize.jpg,Number10.jpg,10,Computer,,,,,0,1,1,1,0,1,1,9,,,,,,,,,,,,,,,,,,,,,,,,,,,,,619.7241389597461,None,619.7241389597461,None,620.1740252749737,None,620.1740252749737,None,v,11.432657811401441,620.1740252749737,None,t,11.679638621001232,620.1740252749737,None,11.432657811401441,11.679638621001232,10.325409636231578,False,False,False,631.9377543793016,None,631.9377543793016,None,631.9377543793016,None,631.9377543793016,None,631.9377543793016,None,631.9377543793016,None,631.9377543793016,None,631.9377543793016,None,632.9206493761453,None,632.9206493761453,None,633.9038860047117,None,633.9038860047117,None,c,,,,,,,,,,,,,,,,,,,,,,,,,,,,,,,,,,,,,,,,,,,,,,,83_84Exp,001,2021_May_31_1038,ComputerHuman,2020.1.3,60.03262190366982,
Computer.xlsx,c,Sychronize.jpg,Number9.jpg,9,Computer,,,,,0,1,1,1,0,2,2,6,,,,,,,,,,,,,,,,,,,,,,,,,,,,,634.9702831726008,None,634.9702831726008,None,635.4038471902154,None,635.4038471902154,None,v,10.22994220810233,635.4038471902154,None,t,10.268738740588105,635.4038471902154,None,10.22994220810233,10.268738740588105,9.026430851408174,False,False,False,645.7676830504474,None,645.7676830504474,None,645.7676830504474,None,645.7676830504474,None,645.7676830504474,None,645.7676830504474,None,645.7676830504474,None,645.7676830504474,None,646.7675743057016,None,646.7675743057016,None,647.7338486786393,None,647.7338486786393,None,c,,,,,,,,,,,,,,,,,,,,,,,,,,,,,,,,,,,,,,,,,,,,,,,83_84Exp,001,2021_May_31_1038,ComputerHuman,2020.1.3,60.03262190366982,
Computer.xlsx,c,Sychronize.jpg,Number7.jpg,7,Computer,,,,,0,1,1,1,0,3,3,2,,,,,,,,,,,,,,,,,,,,,,,,,,,,,648.801310839317,None,648.801310839317,None,649.2337864471328,None,649.2337864471328,None,v,7.071304795803826,649.2337864471328,None,t,7.606881970570157,649.2337864471328,None,7.071304795803826,7.606881970570157,6.649760645787239,False,False,False,656.9154187218032,None,656.9154187218032,None,656.9154187218032,None,656.9154187218032,None,656.9154187218032,None,656.9154187218032,None,656.9154187218032,None,656.9154187218032,None,657.9316117446892,None,657.9316117446892,None,658.9146700190418,None,658.9146700190418,None,c,,,,,,,,,,,,,,,,,,,,,,,,,,,,,,,,,,,,,,,,,,,,,,,83_84Exp,001,2021_May_31_1038,ComputerHuman,2020.1.3,60.03262190366982,
Computer.xlsx,c,Sychronize.jpg,Number7.jpg,7,Computer,,,,,0,1,1,1,0,4,4,3,,,,,,,,,,,,,,,,,,,,,,,,,,,,,659.9650310259344,None,659.9650310259344,None,660.4149843843829,None,660.4149843843829,None,v,6.81329617834399,660.4149843843829,None,t,7.048927436780559,660.4149843843829,None,6.81329617834399,7.048927436780559,7.487081287105827,False,False,False,667.5308225593703,None,667.5308225593703,None,667.5308225593703,None,667.5308225593703,None,667.5308225593703,None,667.5308225593703,None,667.5308225593703,None,667.5308225593703,None,668.5289014021978,None,668.5289014021978,None,669.5122701925202,None,669.5122701925202,None,c,,,,,,,,,,,,,,,,,,,,,,,,,,,,,,,,,,,,,,,,,,,,,,,83_84Exp,001,2021_May_31_1038,ComputerHuman,2020.1.3,60.03262190366982,
Computer.xlsx,c,Sychronize.jpg,Number8.jpg,8,Computer,,,,,0,1,1,1,0,5,5,5,,,,,,,,,,,,,,,,,,,,,,,,,,,,,670.5801715023326,None,670.5801715023326,None,671.0122759665774,None,671.0122759665774,None,v,8.723244622427956,671.0122759665774,None,t,9.386775869059875,671.0122759665774,None,8.723244622427956,9.386775869059875,8.450664472286832,False,True,False,680.4766943008772,None,680.4766943008772,None,680.4766943008772,None,680.4766943008772,None,680.4766943008772,None,680.4766943008772,None,680.4766943008772,None,680.4766943008772,None,681.4761281224819,None,681.4761281224819,None,682.4592104554063,None,682.4592104554063,None,c,,,,,,,,,,,,,,,,,,,,,,,,,,,,,,,,,,,,,,,,,,,,,,,83_84Exp,001,2021_May_31_1038,ComputerHuman,2020.1.3,60.03262190366982,
Computer.xlsx,c,Sychronize.jpg,Number6.jpg,6,Computer,,,,,0,1,1,1,0,6,6,1,,,,,,,,,,,,,,,,,,,,,,,,,,,,,683.5089520342644,None,683.5089520342644,None,683.9593615432386,None,683.9593615432386,None,v,6.527482267228606,683.9593615432386,None,t,6.71097667537515,683.9593615432386,None,6.527482267228606,6.71097667537515,5.559988511901114,False,False,False,690.757342355405,None,690.757342355405,None,690.757342355405,None,690.757342355405,None,690.757342355405,None,690.757342355405,None,690.757342355405,None,690.757342355405,None,691.7570337641209,None,691.7570337641209,None,692.7401956507233,None,692.7401956507233,None,c,,,,,,,,,,,,,,,,,,,,,,,,,,,,,,,,,,,,,,,,,,,,,,,83_84Exp,001,2021_May_31_1038,ComputerHuman,2020.1.3,60.03262190366982,
Computer.xlsx,c,Sychronize.jpg,Number6.jpg,6,Computer,,,,,0,1,1,1,0,7,7,0,,,,,,,,,,,,,,,,,,,,,,,,,,,,,693.7904187218032,None,693.7904187218032,None,694.2399890677848,None,694.2399890677848,None,v,5.762236831300015,694.2399890677848,None,t,6.40900951821277,694.2399890677848,None,5.762236831300015,6.40900951821277,6.061183645154513,False,True,False,700.7223547760436,None,700.7223547760436,None,700.7223547760436,None,700.7223547760436,None,700.7223547760436,None,700.7223547760436,None,700.7223547760436,None,700.7223547760436,None,701.7213391835226,None,701.7213391835226,None,702.7044510282954,None,702.7044510282954,None,c,,,,,,,,,,,,,,,,,,,,,,,,,,,,,,,,,,,,,,,,,,,,,,,83_84Exp,001,2021_May_31_1038,ComputerHuman,2020.1.3,60.03262190366982,
Computer.xlsx,c,Sychronize.jpg,Number8.jpg,8,Computer,,,,,0,1,1,1,0,8,8,4,,,,,,,,,,,,,,,,,,,,,,,,,,,,,703.7713373871493,None,703.7713373871493,None,704.2043470952644,None,704.2043470952644,None,v,7.573107905582674,704.2043470952644,None,t,8.183939972900589,704.2043470952644,None,7.573107905582674,8.183939972900589,8.002673782497983,False,False,True,712.4855375903962,None,712.4855375903962,None,712.4855375903962,None,712.4855375903962,None,712.4855375903962,None,712.4855375903962,None,712.4855375903962,None,712.4855375903962,None,713.4852405472266,None,713.4852405472266,None,714.4517609591608,None,714.4517609591608,None,c,,,,,,,,,,,,,,,,,,,,,,,,,,,,,,,,,,,,,,,,,,,,,,,83_84Exp,001,2021_May_31_1038,ComputerHuman,2020.1.3,60.03262190366982,
Computer.xlsx,c,Sychronize.jpg,Number9.jpg,9,Computer,,,,,0,1,1,1,0,9,9,7,,,,,,,,,,,,,,,,,,,,,,,,,,,,,715.5019439326206,None,715.5019439326206,None,715.9519069144976,None,715.9519069144976,None,v,8.716662838680804,715.9519069144976,None,t,9.423820937501205,715.9519069144976,None,8.716662838680804,9.423820937501205,9.136308487765842,False,False,True,725.450052800546,None,725.450052800546,None,725.450052800546,None,725.450052800546,None,725.450052800546,None,725.450052800546,None,725.450052800546,None,725.450052800546,None,726.465571221072,None,726.465571221072,None,727.4487507506274,None,727.4487507506274,None,c,,,,,,,,,,,,,,,,,,,,,,,,,,,,,,,,,,,,,,,,,,,,,,,83_84Exp,001,2021_May_31_1038,ComputerHuman,2020.1.3,60.03262190366982,
Computer.xlsx,c,,,,,,,,,0,1,1,1,,,,,,,,,,,,,,,,,,,,,,,,,,,,,,,,,,,,,,,,,,,,,,,,,,,,,,,,,,,,,,,,,,,,,,,,,,,,,,,c,728.4489541257567,None,728.4489541257567,None,q,0,4.007540598038304,728.4489541257567,None,l,1,8.045899264513537,728.4489541257567,None,h,c,736.5629279218015,None,736.5629279218015,None,738.5626677684422,None,None,None,None,None,None,None,None,,,,,,,,,,,,,,,,,,83_84Exp,001,2021_May_31_1038,ComputerHuman,2020.1.3,60.03262190366982,
Computer.xlsx,c,Sychronize.jpg,Number7.jpg,7,Computer,,,,,0,2,2,7,0,0,0,2,,,,,,,,,,,,,,,,,,,,,,,,,743.5810424226406,None,743.5810424226406,None,746.6450039006963,None,746.6450039006963,None,747.0946191560124,None,747.0946191560124,None,v,7.772315127516777,747.0946191560124,None,t,8.454814793904461,747.0946191560124,None,7.772315127516777,8.454814793904461,7.0449344213980885,False,False,False,755.6265070289523,None,755.6265070289523,None,755.6265070289523,None,755.6265070289523,None,755.6265070289523,None,755.6265070289523,None,755.6265070289523,None,755.6265070289523,None,756.6585661989252,None,756.6585661989252,None,757.6416251148398,None,757.6416251148398,None,c,,,,,,,,,,,,,,,,,,,,,,,,,,,,,,,,,,,,,,,,,,,,,,,83_84Exp,001,2021_May_31_1038,ComputerHuman,2020.1.3,60.03262190366982,
Computer.xlsx,c,Sychronize.jpg,Number9.jpg,9,Computer,,,,,0,2,2,7,0,1,1,7,,,,,,,,,,,,,,,,,,,,,,,,,,,,,758.6920153127999,None,758.6920153127999,None,759.1418875136656,None,759.1418875136656,None,v,10.167708135518296,759.1418875136656,None,t,10.738684772399665,759.1418875136656,None,10.167708135518296,10.738684772399665,9.255271480745929,False,False,False,769.9560773877652,None,769.9560773877652,None,769.9560773877652,None,769.9560773877652,None,769.9560773877652,None,769.9560773877652,None,769.9560773877652,None,769.9560773877652,None,770.9551320462747,None,770.9551320462747,None,771.9549058956977,None,771.9549058956977,None,c,,,,,,,,,,,,,,,,,,,,,,,,,,,,,,,,,,,,,,,,,,,,,,,83_84Exp,001,2021_May_31_1038,ComputerHuman,2020.1.3,60.03262190366982,
Computer.xlsx,c,Sychronize.jpg,Number8.jpg,8,Computer,,,,,0,2,2,7,0,2,2,4,,,,,,,,,,,,,,,,,,,,,,,,,,,,,773.0052454102661,None,773.0052454102661,None,773.4550723810162,None,773.4550723810162,None,v,9.433579415100667,773.4550723810162,None,t,8.596850187592736,773.4550723810162,None,9.433579415100667,8.596850187592736,8.02459568534795,False,False,False,782.9692704671083,None,782.9692704671083,None,782.9692704671083,None,782.9692704671083,None,782.9692704671083,None,782.9692704671083,None,782.9692704671083,None,782.9692704671083,None,783.9686151116061,None,783.9686151116061,None,784.9518527025157,None,784.9518527025157,None,c,,,,,,,,,,,,,,,,,,,,,,,,,,,,,,,,,,,,,,,,,,,,,,,83_84Exp,001,2021_May_31_1038,ComputerHuman,2020.1.3,60.03262190366982,
Computer.xlsx,c,Sychronize.jpg,Number6.jpg,6,Computer,,,,,0,2,2,7,0,3,3,1,,,,,,,,,,,,,,,,,,,,,,,,,,,,,785.9852604356461,None,785.9852604356461,None,786.4520426048443,None,786.4520426048443,None,v,6.78850365946937,786.4520426048443,None,t,6.3550153461610535,786.4520426048443,None,6.78850365946937,6.3550153461610535,5.641396938310472,False,False,False,793.3171946293569,None,793.3171946293569,None,793.3171946293569,None,793.3171946293569,None,793.3171946293569,None,793.3171946293569,None,793.3171946293569,None,793.3171946293569,None,794.3330354347481,None,794.3330354347481,None,795.3161941135413,None,795.3161941135413,None,c,,,,,,,,,,,,,,,,,,,,,,,,,,,,,,,,,,,,,,,,,,,,,,,83_84Exp,001,2021_May_31_1038,ComputerHuman,2020.1.3,60.03262190366982,
Computer.xlsx,c,Sychronize.jpg,Number10.jpg,10,Computer,,,,,0,2,2,7,0,4,4,9,,,,,,,,,,,,,,,,,,,,,,,,,,,,,796.3507050123949,None,796.3507050123949,None,796.8163929977368,None,796.8163929977368,None,v,7.906979616294393,796.8163929977368,None,t,9.76175886766896,796.8163929977368,None,7.906979616294393,9.76175886766896,10.210704107795618,False,False,False,806.6634812048019,None,806.6634812048019,None,806.6634812048019,None,806.6634812048019,None,806.6634812048019,None,806.6634812048019,None,806.6634812048019,None,806.6634812048019,None,807.66303628161,None,807.66303628161,None,808.6462915154721,None,808.6462915154721,None,c,,,,,,,,,,,,,,,,,,,,,,,,,,,,,,,,,,,,,,,,,,,,,,,83_84Exp,001,2021_May_31_1038,ComputerHuman,2020.1.3,60.03262190366982,
Computer.xlsx,c,Sychronize.jpg,Number10.jpg,10,Computer,,,,,0,2,2,7,0,5,5,8,,,,,,,,,,,,,,,,,,,,,,,,,,,,,809.6964488264548,None,809.6964488264548,None,810.1465481402402,None,810.1465481402402,None,v,9.003898771793956,810.1465481402402,None,t,9.946750360557871,810.1465481402402,None,9.003898771793956,9.946750360557871,10.073143796653726,False,False,True,820.1441409999129,None,820.1441409999129,None,820.1441409999129,None,820.1441409999129,None,820.1441409999129,None,820.1441409999129,None,820.1441409999129,None,820.1441409999129,None,821.1598807593014,None,821.1598807593014,None,822.159884287892,None,822.159884287892,None,c,,,,,,,,,,,,,,,,,,,,,,,,,,,,,,,,,,,,,,,,,,,,,,,83_84Exp,001,2021_May_31_1038,ComputerHuman,2020.1.3,60.03262190366982,
Computer.xlsx,c,Sychronize.jpg,Number9.jpg,9,Computer,,,,,0,2,2,7,0,6,6,6,,,,,,,,,,,,,,,,,,,,,,,,,,,,,823.2102674286712,None,823.2102674286712,None,823.6597777886132,None,823.6597777886132,None,v,8.557733194927096,823.6597777886132,None,t,9.148823439592888,823.6597777886132,None,8.557733194927096,9.148823439592888,8.391051401428449,False,True,False,832.890841767734,None,832.890841767734,None,832.890841767734,None,832.890841767734,None,832.890841767734,None,832.890841767734,None,832.890841767734,None,832.890841767734,None,833.8904138459329,None,833.8904138459329,None,834.873539805068,None,834.873539805068,None,c,,,,,,,,,,,,,,,,,,,,,,,,,,,,,,,,,,,,,,,,,,,,,,,83_84Exp,001,2021_May_31_1038,ComputerHuman,2020.1.3,60.03262190366982,
Computer.xlsx,c,Sychronize.jpg,Number8.jpg,8,Computer,,,,,0,2,2,7,0,7,7,5,,,,,,,,,,,,,,,,,,,,,,,,,,,,,835.9398570984977,None,835.9398570984977,None,836.3736928175858,None,836.3736928175858,None,None,,836.3736928175858,None,t,8.98578747876445,836.3736928175858,None,13,8.98578747876445,8.104463688541458,False,False,False,849.4533687133348,None,849.4533687133348,None,849.4533687133348,None,849.4533687133348,None,849.4533687133348,None,849.4533687133348,None,849.4533687133348,None,849.4533687133348,None,850.4364048538009,None,850.4364048538009,None,851.4196366706528,None,851.4196366706528,None,c,,,,,,,,,,,,,,,,,,,,,,,,,,,,,,,,,,,,,,,,,,,,,,,83_84Exp,001,2021_May_31_1038,ComputerHuman,2020.1.3,60.03262190366982,
Computer.xlsx,c,Sychronize.jpg,Number7.jpg,7,Computer,,,,,0,2,2,7,0,8,8,3,,,,,,,,,,,,,,,,,,,,,,,,,,,,,852.4866792498347,None,852.4866792498347,None,852.9194300877143,None,852.9194300877143,None,v,7.4362717297021845,852.9194300877143,None,t,7.4999708089326305,852.9194300877143,None,7.4362717297021845,7.4999708089326305,7.013614873367068,False,False,False,860.5021283816732,None,860.5021283816732,None,860.5021283816732,None,860.5021283816732,None,860.5021283816732,None,860.5021283816732,None,860.5021283816732,None,860.5021283816732,None,861.517245505217,None,861.517245505217,None,862.5003169315892,None,862.5003169315892,None,c,,,,,,,,,,,,,,,,,,,,,,,,,,,,,,,,,,,,,,,,,,,,,,,83_84Exp,001,2021_May_31_1038,ComputerHuman,2020.1.3,60.03262190366982,
Computer.xlsx,c,Sychronize.jpg,Number6.jpg,6,Computer,,,,,0,2,2,7,0,9,9,0,,,,,,,,,,,,,,,,,,,,,,,,,,,,,863.5501605187928,None,863.5501605187928,None,864.0005094001654,None,864.0005094001654,None,v,6.222570982411071,864.0005094001654,None,t,5.662042181413199,864.0005094001654,None,6.222570982411071,5.662042181413199,5.925143631751929,False,True,True,870.299248217741,None,870.299248217741,None,870.299248217741,None,870.299248217741,None,870.299248217741,None,870.299248217741,None,870.299248217741,None,870.299248217741,None,871.2983060840602,None,871.2983060840602,None,872.2981235596935,None,872.2981235596935,None,c,,,,,,,,,,,,,,,,,,,,,,,,,,,,,,,,,,,,,,,,,,,,,,,83_84Exp,001,2021_May_31_1038,ComputerHuman,2020.1.3,60.03262190366982,
Computer.xlsx,c,,,,,,,,,0,2,2,7,,,,,,,,,,,,,,,,,,,,,,,,,,,,,,,,,,,,,,,,,,,,,,,,,,,,,,,,,,,,,,,,,,,,,,,,,,,,,,,c,873.2981556377895,None,873.2981556377895,None,q,0,3.052416571288177,873.2981556377895,None,o,0,4.8880843345978064,873.2981556377895,None,h,h,878.2635148226468,None,878.2635148226468,None,880.2795779292437,None,None,None,None,None,None,None,None,,,,,,,,,,,,,,,,,,83_84Exp,001,2021_May_31_1038,ComputerHuman,2020.1.3,60.03262190366982,
Computer.xlsx,c,Sychronize.jpg,Number7.jpg,7,Computer,,,,,0,3,3,3,0,0,0,3,,,,,,,,,,,,,,,,,,,,,,,,,885.2649673188357,None,885.2649673188357,None,888.3615801285177,None,888.3615801285177,None,888.7944211058475,None,888.7944211058475,None,v,0.03144840302411467,888.7944211058475,None,t,7.6098424580545725,888.7944211058475,None,0.03144840302411467,7.6098424580545725,7.216793701241909,False,False,False,896.4924186627795,None,896.4924186627795,None,896.4924186627795,None,896.4924186627795,None,896.4924186627795,None,896.4924186627795,None,896.4924186627795,None,896.4924186627795,None,897.4921767939354,None,897.4921767939354,None,898.4585951975241,None,898.4585951975241,None,c,,,,,,,,,,,,,,,,,,,,,,,,,,,,,,,,,,,,,,,,,,,,,,,83_84Exp,001,2021_May_31_1038,ComputerHuman,2020.1.3,60.03262190366982,
Computer.xlsx,c,Sychronize.jpg,Number6.jpg,6,Computer,,,,,0,3,3,3,0,1,1,1,,,,,,,,,,,,,,,,,,,,,,,,,,,,,899.5253109009068,None,899.5253109009068,None,899.9754345940455,None,899.9754345940455,None,v,6.189253067948812,899.9754345940455,None,t,6.284857983853271,899.9754345940455,None,6.189253067948812,6.284857983853271,5.982805792017549,False,True,False,906.3395646104182,None,906.3395646104182,None,906.3395646104182,None,906.3395646104182,None,906.3395646104182,None,906.3395646104182,None,906.3395646104182,None,906.3395646104182,None,907.3565387349427,None,907.3565387349427,None,908.3396977345164,None,908.3396977345164,None,c,,,,,,,,,,,,,,,,,,,,,,,,,,,,,,,,,,,,,,,,,,,,,,,83_84Exp,001,2021_May_31_1038,ComputerHuman,2020.1.3,60.03262190366982,
Computer.xlsx,c,Sychronize.jpg,Number7.jpg,7,Computer,,,,,0,3,3,3,0,2,2,2,,,,,,,,,,,,,,,,,,,,,,,,,,,,,909.3901376535259,None,909.3901376535259,None,909.83968554484,None,909.83968554484,None,v,7.70427459876737,909.83968554484,None,t,7.679918983560583,909.83968554484,None,7.70427459876737,7.679918983560583,7.250573590128778,False,False,False,917.6222707955881,None,917.6222707955881,None,917.6222707955881,None,917.6222707955881,None,917.6222707955881,None,917.6222707955881,None,917.6222707955881,None,917.6222707955881,None,918.6203804333882,None,918.6203804333882,None,919.6036568387935,None,919.6036568387935,None,c,,,,,,,,,,,,,,,,,,,,,,,,,,,,,,,,,,,,,,,,,,,,,,,83_84Exp,001,2021_May_31_1038,ComputerHuman,2020.1.3,60.03262190366982,
Computer.xlsx,c,Sychronize.jpg,Number8.jpg,8,Computer,,,,,0,3,3,3,0,3,3,5,,,,,,,,,,,,,,,,,,,,,,,,,,,,,920.6540159210008,None,920.6540159210008,None,921.1039096141903,None,921.1039096141903,None,v,8.335247861032258,921.1039096141903,None,t,8.186864532917298,921.1039096141903,None,8.335247861032258,8.186864532917298,7.441375675928174,False,False,False,929.5183845984079,None,929.5183845984079,None,929.5183845984079,None,929.5183845984079,None,929.5183845984079,None,929.5183845984079,None,929.5183845984079,None,929.5183845984079,None,930.5343007873248,None,930.5343007873248,None,931.5007528729143,None,931.5007528729143,None,c,,,,,,,,,,,,,,,,,,,,,,,,,,,,,,,,,,,,,,,,,,,,,,,83_84Exp,001,2021_May_31_1038,ComputerHuman,2020.1.3,60.03262190366982,
Computer.xlsx,c,Sychronize.jpg,Number10.jpg,10,Computer,,,,,0,3,3,3,0,4,4,8,,,,,,,,,,,,,,,,,,,,,,,,,,,,,932.5673415470369,None,932.5673415470369,None,933.0010348393785,None,933.0010348393785,None,v,10.46520585155804,933.0010348393785,None,t,10.156715613564302,933.0010348393785,None,10.46520585155804,10.156715613564302,10.285248686232784,False,True,True,943.5483381621561,None,943.5483381621561,None,943.5483381621561,None,943.5483381621561,None,943.5483381621561,None,943.5483381621561,None,943.5483381621561,None,943.5483381621561,None,944.5645395253468,None,944.5645395253468,None,945.5476096685948,None,945.5476096685948,None,c,,,,,,,,,,,,,,,,,,,,,,,,,,,,,,,,,,,,,,,,,,,,,,,83_84Exp,001,2021_May_31_1038,ComputerHuman,2020.1.3,60.03262190366982,
Computer.xlsx,c,Sychronize.jpg,Number8.jpg,8,Computer,,,,,0,3,3,3,0,5,5,4,,,,,,,,,,,,,,,,,,,,,,,,,,,,,946.598862125777,None,946.598862125777,None,947.0477469628458,None,947.0477469628458,None,v,8.525668892458725,947.0477469628458,None,t,8.304822428491207,947.0477469628458,None,8.525668892458725,8.304822428491207,7.4822671679992645,False,False,False,955.6457381683153,None,955.6457381683153,None,955.6457381683153,None,955.6457381683153,None,955.6457381683153,None,955.6457381683153,None,955.6457381683153,None,955.6457381683153,None,956.6614808147324,None,956.6614808147324,None,957.6447998840058,None,957.6447998840058,None,c,,,,,,,,,,,,,,,,,,,,,,,,,,,,,,,,,,,,,,,,,,,,,,,83_84Exp,001,2021_May_31_1038,ComputerHuman,2020.1.3,60.03262190366982,
Computer.xlsx,c,Sychronize.jpg,Number9.jpg,9,Computer,,,,,0,3,3,3,0,6,6,6,,,,,,,,,,,,,,,,,,,,,,,,,,,,,958.6948863023963,None,958.6948863023963,None,959.1447193679846,None,959.1447193679846,None,v,8.983871133306366,959.1447193679846,None,t,7.978923086990562,959.1447193679846,None,8.983871133306366,7.978923086990562,9.466935349756387,False,False,False,968.2100287676367,None,968.2100287676367,None,968.2100287676367,None,968.2100287676367,None,968.2100287676367,None,968.2100287676367,None,968.2100287676367,None,968.2100287676367,None,969.2084909437121,None,969.2084909437121,None,970.1917930115942,None,970.1917930115942,None,c,,,,,,,,,,,,,,,,,,,,,,,,,,,,,,,,,,,,,,,,,,,,,,,83_84Exp,001,2021_May_31_1038,ComputerHuman,2020.1.3,60.03262190366982,
Computer.xlsx,c,Sychronize.jpg,Number6.jpg,6,Computer,,,,,0,3,3,3,0,7,7,0,,,,,,,,,,,,,,,,,,,,,,,,,,,,,971.2750177071089,None,971.2750177071089,None,971.6916053547325,None,971.6916053547325,None,v,6.436454254068394,971.6916053547325,None,t,6.255946637445504,971.6916053547325,None,6.436454254068394,6.255946637445504,5.573212761320971,False,False,False,978.223326742354,None,978.223326742354,None,978.223326742354,None,978.223326742354,None,978.223326742354,None,978.223326742354,None,978.223326742354,None,978.223326742354,None,979.2229796573547,None,979.2229796573547,None,980.2061745843962,None,980.2061745843962,None,c,,,,,,,,,,,,,,,,,,,,,,,,,,,,,,,,,,,,,,,,,,,,,,,83_84Exp,001,2021_May_31_1038,ComputerHuman,2020.1.3,60.03262190366982,
Computer.xlsx,c,Sychronize.jpg,Number10.jpg,10,Computer,,,,,0,3,3,3,0,8,8,9,,,,,,,,,,,,,,,,,,,,,,,,,,,,,981.2563235550742,None,981.2563235550742,None,981.6894615755737,None,981.6894615755737,None,v,8.857680394381077,981.6894615755737,None,t,9.308675649388988,981.6894615755737,None,8.857680394381077,9.308675649388988,10.731921912154972,False,False,False,991.0704973901261,None,991.0704973901261,None,991.0704973901261,None,991.0704973901261,None,991.0704973901261,None,991.0704973901261,None,991.0704973901261,None,991.0704973901261,None,992.0865637045326,None,992.0865637045326,None,993.0698295241664,None,993.0698295241664,None,c,,,,,,,,,,,,,,,,,,,,,,,,,,,,,,,,,,,,,,,,,,,,,,,83_84Exp,001,2021_May_31_1038,ComputerHuman,2020.1.3,60.03262190366982,
Computer.xlsx,c,Sychronize.jpg,Number9.jpg,9,Computer,,,,,0,3,3,3,0,9,9,7,,,,,,,,,,,,,,,,,,,,,,,,,,,,,994.1193882578773,None,994.1193882578773,None,994.5700162186854,None,994.5700162186854,None,v,8.84428875162348,994.5700162186854,None,t,10.19964637106932,994.5700162186854,None,8.84428875162348,10.19964637106932,9.406658804411048,False,False,False,1004.8669002807474,None,1004.8669002807474,None,1004.8669002807474,None,1004.8669002807474,None,1004.8669002807474,None,1004.8669002807474,None,1004.8669002807474,None,1004.8669002807474,None,1005.8667677982107,None,1005.8667677982107,None,1006.8499110795178,None,1006.8499110795178,None,c,,,,,,,,,,,,,,,,,,,,,,,,,,,,,,,,,,,,,,,,,,,,,,,83_84Exp,001,2021_May_31_1038,ComputerHuman,2020.1.3,60.03262190366982,
Computer.xlsx,c,,,,,,,,,0,3,3,3,,,,,,,,,,,,,,,,,,,,,,,,,,,,,,,,,,,,,,,,,,,,,,,,,,,,,,,,,,,,,,,,,,,,,,,,,,,,,,,c,1007.8509269928195,None,1007.8509269928195,None,q,0,4.090818863973254,1007.8509269928195,None,o,0,3.542179809276149,1007.8509269928195,None,h,h,1012.0158911680019,None,1012.0158911680019,None,1014.0314856136156,None,None,None,None,None,None,None,None,,,,,,,,,,,,,,,,,,83_84Exp,001,2021_May_31_1038,ComputerHuman,2020.1.3,60.03262190366982,
Computer.xlsx,c,Sychronize.jpg,Number10.jpg,10,Computer,,,,,0,4,4,5,0,0,0,8,,,,,,,,,,,,,,,,,,,,,,,,,1019.0167399544234,None,1019.0167399544234,None,1022.1129845075629,None,1022.1129845075629,None,1022.5465748292163,None,1022.5465748292163,None,v,9.949789760158183,1022.5465748292163,None,t,10.692703067179536,1022.5465748292163,None,9.949789760158183,10.692703067179536,10.30285929385792,False,False,False,1033.3106320924671,None,1033.3106320924671,None,1033.3106320924671,None,1033.3106320924671,None,1033.3106320924671,None,1033.3106320924671,None,1033.3106320924671,None,1033.3106320924671,None,1034.3434431730116,None,1034.3434431730116,None,1035.309845216771,None,1035.309845216771,None,c,,,,,,,,,,,,,,,,,,,,,,,,,,,,,,,,,,,,,,,,,,,,,,,83_84Exp,001,2021_May_31_1038,ComputerHuman,2020.1.3,60.03262190366982,
Computer.xlsx,c,Sychronize.jpg,Number6.jpg,6,Computer,,,,,0,4,4,5,0,1,1,1,,,,,,,,,,,,,,,,,,,,,,,,,,,,,1036.3596515933832,None,1036.3596515933832,None,1036.8097993450938,None,1036.8097993450938,None,v,5.953910833158261,1036.8097993450938,None,t,5.676948872647245,1036.8097993450938,None,5.953910833158261,5.676948872647245,5.973270635932419,False,True,True,1042.8416811231955,None,1042.8416811231955,None,1042.8416811231955,None,1042.8416811231955,None,1042.8416811231955,None,1042.8416811231955,None,1042.8416811231955,None,1042.8416811231955,None,1043.8579139229205,None,1043.8579139229205,None,1044.8410462976744,None,1044.8410462976744,None,c,,,,,,,,,,,,,,,,,,,,,,,,,,,,,,,,,,,,,,,,,,,,,,,83_84Exp,001,2021_May_31_1038,ComputerHuman,2020.1.3,60.03262190366982,
Computer.xlsx,c,Sychronize.jpg,Number8.jpg,8,Computer,,,,,0,4,4,5,0,2,2,5,,,,,,,,,,,,,,,,,,,,,,,,,,,,,1045.8911869280478,None,1045.8911869280478,None,1046.3411855166114,None,1046.3411855166114,None,v,7.87383460277033,1046.3411855166114,None,t,7.821198938086582,1046.3411855166114,None,7.87383460277033,7.821198938086582,8.331231926247687,False,False,False,1054.274205168936,None,1054.274205168936,None,1054.274205168936,None,1054.274205168936,None,1054.274205168936,None,1054.274205168936,None,1054.274205168936,None,1054.274205168936,None,1055.3052147436065,None,1055.3052147436065,None,1056.2883791964564,None,1056.2883791964564,None,c,,,,,,,,,,,,,,,,,,,,,,,,,,,,,,,,,,,,,,,,,,,,,,,83_84Exp,001,2021_May_31_1038,ComputerHuman,2020.1.3,60.03262190366982,
Computer.xlsx,c,Sychronize.jpg,Number7.jpg,7,Computer,,,,,0,4,4,5,0,3,3,2,,,,,,,,,,,,,,,,,,,,,,,,,,,,,1057.3384421978371,None,1057.3384421978371,None,1057.7880924182778,None,1057.7880924182778,None,v,6.41816524838714,1057.7880924182778,None,t,7.702412786072728,1057.7880924182778,None,6.41816524838714,7.702412786072728,7.272777780322599,False,False,False,1065.5705236941649,None,1065.5705236941649,None,1065.5705236941649,None,1065.5705236941649,None,1065.5705236941649,None,1065.5705236941649,None,1065.5705236941649,None,1065.5705236941649,None,1066.5692928576195,None,1066.5692928576195,None,1067.5523235448095,None,1067.5523235448095,None,c,,,,,,,,,,,,,,,,,,,,,,,,,,,,,,,,,,,,,,,,,,,,,,,83_84Exp,001,2021_May_31_1038,ComputerHuman,2020.1.3,60.03262190366982,
Computer.xlsx,c,Sychronize.jpg,Number9.jpg,9,Computer,,,,,0,4,4,5,0,4,4,6,,,,,,,,,,,,,,,,,,,,,,,,,,,,,1068.6029665181663,None,1068.6029665181663,None,1069.0522622756457,None,1069.0522622756457,None,v,8.805484841175257,1069.0522622756457,None,t,8.752844043995992,1069.0522622756457,None,8.805484841175257,8.752844043995992,9.274637146641457,False,False,False,1077.9347711163691,None,1077.9347711163691,None,1077.9347711163691,None,1077.9347711163691,None,1077.9347711163691,None,1077.9347711163691,None,1077.9347711163691,None,1077.9347711163691,None,1078.9496749205746,None,1078.9496749205746,None,1079.9328329578057,None,1079.9328329578057,None,c,,,,,,,,,,,,,,,,,,,,,,,,,,,,,,,,,,,,,,,,,,,,,,,83_84Exp,001,2021_May_31_1038,ComputerHuman,2020.1.3,60.03262190366982,
Computer.xlsx,c,Sychronize.jpg,Number6.jpg,6,Computer,,,,,0,4,4,5,0,5,5,0,,,,,,,,,,,,,,,,,,,,,,,,,,,,,1080.9832937275773,None,1080.9832937275773,None,1081.4163999907614,None,1081.4163999907614,None,v,6.260346469100114,1081.4163999907614,None,t,5.468001457628816,1081.4163999907614,None,6.260346469100114,5.468001457628816,6.32708145269311,False,True,False,1087.7310793766073,None,1087.7310793766073,None,1087.7310793766073,None,1087.7310793766073,None,1087.7310793766073,None,1087.7310793766073,None,1087.7310793766073,None,1087.7310793766073,None,1088.764025826717,None,1088.764025826717,None,1089.7472287732826,None,1089.7472287732826,None,c,,,,,,,,,,,,,,,,,,,,,,,,,,,,,,,,,,,,,,,,,,,,,,,83_84Exp,001,2021_May_31_1038,ComputerHuman,2020.1.3,60.03262190366982,
Computer.xlsx,c,Sychronize.jpg,Number7.jpg,7,Computer,,,,,0,4,4,5,0,6,6,3,,,,,,,,,,,,,,,,,,,,,,,,,,,,,1090.797187520851,None,1090.797187520851,None,1091.2470680620213,None,1091.2470680620213,None,v,7.053002317321898,1091.2470680620213,None,t,7.604280757761444,1091.2470680620213,None,7.053002317321898,7.604280757761444,6.635180720595265,False,False,False,1098.9450081991613,None,1098.9450081991613,None,1098.9450081991613,None,1098.9450081991613,None,1098.9450081991613,None,1098.9450081991613,None,1098.9450081991613,None,1098.9450081991613,None,1099.9280161109032,None,1099.9280161109032,None,1100.9111805637535,None,1100.9111805637535,None,c,,,,,,,,,,,,,,,,,,,,,,,,,,,,,,,,,,,,,,,,,,,,,,,83_84Exp,001,2021_May_31_1038,ComputerHuman,2020.1.3,60.03262190366982,
Computer.xlsx,c,Sychronize.jpg,Number10.jpg,10,Computer,,,,,0,4,4,5,0,7,7,9,,,,,,,,,,,,,,,,,,,,,,,,,,,,,1101.9613202317837,None,1101.9613202317837,None,1102.411038457788,None,1102.411038457788,None,v,9.660113004717005,1102.411038457788,None,t,10.719619476793468,1102.411038457788,None,9.660113004717005,10.719619476793468,10.643537260120148,False,False,True,1113.224956630414,None,1113.224956630414,None,1113.224956630414,None,1113.224956630414,None,1113.224956630414,None,1113.224956630414,None,1113.224956630414,None,1113.224956630414,None,1114.224715403132,None,1114.224715403132,None,1115.1911819238649,None,1115.1911819238649,None,c,,,,,,,,,,,,,,,,,,,,,,,,,,,,,,,,,,,,,,,,,,,,,,,83_84Exp,001,2021_May_31_1038,ComputerHuman,2020.1.3,60.03262190366982,
Computer.xlsx,c,Sychronize.jpg,Number8.jpg,8,Computer,,,,,0,4,4,5,0,8,8,4,,,,,,,,,,,,,,,,,,,,,,,,,,,,,1116.2426233210326,None,1116.2426233210326,None,1116.6911832069886,None,1116.6911832069886,None,v,8.447170262835243,1116.6911832069886,None,t,8.142874235899399,1116.6911832069886,None,8.447170262835243,8.142874235899399,7.530650395568965,False,False,False,1125.222221651945,None,1125.222221651945,None,1125.222221651945,None,1125.222221651945,None,1125.222221651945,None,1125.222221651945,None,1125.222221651945,None,1125.222221651945,None,1126.2219419309477,None,1126.2219419309477,None,1127.2050823252257,None,1127.2050823252257,None,c,,,,,,,,,,,,,,,,,,,,,,,,,,,,,,,,,,,,,,,,,,,,,,,83_84Exp,001,2021_May_31_1038,ComputerHuman,2020.1.3,60.03262190366982,
Computer.xlsx,c,Sychronize.jpg,Number9.jpg,9,Computer,,,,,0,4,4,5,0,9,9,7,,,,,,,,,,,,,,,,,,,,,,,,,,,,,1128.2391351488682,None,1128.2391351488682,None,1128.7051577087514,None,1128.7051577087514,None,v,8.860347688067577,1128.7051577087514,None,t,9.155828974989163,1128.7051577087514,None,8.860347688067577,9.155828974989163,9.428482893439591,False,False,True,1137.9194996971828,None,1137.9194996971828,None,1137.9194996971828,None,1137.9194996971828,None,1137.9194996971828,None,1137.9194996971828,None,1137.9194996971828,None,1137.9194996971828,None,1138.9523133439748,None,1138.9523133439748,None,1139.9353777131655,None,1139.9353777131655,None,c,,,,,,,,,,,,,,,,,,,,,,,,,,,,,,,,,,,,,,,,,,,,,,,83_84Exp,001,2021_May_31_1038,ComputerHuman,2020.1.3,60.03262190366982,
Computer.xlsx,c,,,,,,,,,0,4,4,5,,,,,,,,,,,,,,,,,,,,,,,,,,,,,,,,,,,,,,,,,,,,,,,,,,,,,,,,,,,,,,,,,,,,,,,,,,,,,,,c,1140.9356744355541,None,1140.9356744355541,None,a,0,2.917384788309846,1140.9356744355541,None,l,1,3.024200036441016,1140.9356744355541,None,c,c,1144.0512662507635,None,1144.0512662507635,None,None,None,1146.0506060835469,None,1146.0506060835469,None,"['space', 'space']",1147.0338638836565,None,"[4.414650451402849, 9.51040934216826]",,,,,,,,,,,,,,,,,83_84Exp,001,2021_May_31_1038,ComputerHuman,2020.1.3,60.03262190366982,
Human.xlsx,h,Sychronize.jpg,Number10.jpg,10,Human,,,,,0,5,5,2,0,0,0,9,,,,,,,,,,,,,,,,,,,,,,,,,1156.6005847195347,None,1156.6005847195347,None,1159.6807395412575,None,1159.6807395412575,None,1160.1142875198243,None,1160.1142875198243,None,v,10.305523655671095,1160.1142875198243,None,t,10.280688472928432,1160.1142875198243,None,10.305523655671095,10.280688472928432,10.162771646724863,True,False,False,1170.4787373548147,None,1170.4787373548147,None,1170.4787373548147,None,1170.4787373548147,None,1170.4787373548147,None,1170.4787373548147,None,1170.4787373548147,None,1170.4787373548147,None,1171.4801080518587,None,1171.4801080518587,None,1172.4944152034777,None,1172.4944152034777,None,h,,,,,,,,,,,,,,,,,,,,,,,,,,,,,,,,,,,,,,,,,,,,,,,83_84Exp,001,2021_May_31_1038,ComputerHuman,2020.1.3,60.03262190366982,
Human.xlsx,h,Sychronize.jpg,Number9.jpg,9,Human,,,,,0,5,5,2,0,1,1,7,,,,,,,,,,,,,,,,,,,,,,,,,,,,,1173.544565136499,None,1173.544565136499,None,1174.0110037492877,None,1174.0110037492877,None,v,10.167405318291458,1174.0110037492877,None,t,8.922812081380926,1174.0110037492877,None,10.167405318291458,8.922812081380926,8.642429088340533,False,False,False,1184.2587833034795,None,1184.2587833034795,None,1184.2587833034795,None,1184.2587833034795,None,1184.2587833034795,None,1184.2587833034795,None,1184.2587833034795,None,1184.2587833034795,None,1185.2435272817793,None,1185.2435272817793,None,1186.2412096393396,None,1186.2412096393396,None,h,,,,,,,,,,,,,,,,,,,,,,,,,,,,,,,,,,,,,,,,,,,,,,,83_84Exp,001,2021_May_31_1038,ComputerHuman,2020.1.3,60.03262190366982,
Human.xlsx,h,Sychronize.jpg,Number10.jpg,10,Human,,,,,0,5,5,2,0,2,2,8,,,,,,,,,,,,,,,,,,,,,,,,,,,,,1187.3083234318942,None,1187.3083234318942,None,1187.7413546323337,None,1187.7413546323337,None,v,9.888552995580994,1187.7413546323337,None,t,11.859602513896334,1187.7413546323337,None,9.888552995580994,11.859602513896334,9.898425313901067,False,False,False,1199.6716020955978,None,1199.6716020955978,None,1199.6716020955978,None,1199.6716020955978,None,1199.6716020955978,None,1199.6716020955978,None,1199.6716020955978,None,1199.6716020955978,None,1200.65590596242,None,1200.65590596242,None,1201.6541958791195,None,1201.6541958791195,None,h,,,,,,,,,,,,,,,,,,,,,,,,,,,,,,,,,,,,,,,,,,,,,,,83_84Exp,001,2021_May_31_1038,ComputerHuman,2020.1.3,60.03262190366982,
Human.xlsx,h,Sychronize.jpg,Number7.jpg,7,Human,,,,,0,5,5,2,0,3,3,2,,,,,,,,,,,,,,,,,,,,,,,,,,,,,1202.704989298747,None,1202.704989298747,None,1203.1543646099049,None,1203.1543646099049,None,v,8.678265678490334,1203.1543646099049,None,t,7.257925535191134,1203.1543646099049,None,8.678265678490334,7.257925535191134,7.515371141436462,False,False,False,1211.9185463361682,None,1211.9185463361682,None,1211.9185463361682,None,1211.9185463361682,None,1211.9185463361682,None,1211.9185463361682,None,1211.9185463361682,None,1211.9185463361682,None,1212.9038401330345,None,1212.9038401330345,None,1213.8847219085696,None,1213.8847219085696,None,h,,,,,,,,,,,,,,,,,,,,,,,,,,,,,,,,,,,,,,,,,,,,,,,83_84Exp,001,2021_May_31_1038,ComputerHuman,2020.1.3,60.03262190366982,
Human.xlsx,h,Sychronize.jpg,Number6.jpg,6,Human,,,,,0,5,5,2,0,4,4,0,,,,,,,,,,,,,,,,,,,,,,,,,,,,,1214.952620972916,None,1214.952620972916,None,1215.3846574315967,None,1215.3846574315967,None,v,6.619304854827078,1215.3846574315967,None,t,7.1189965843241225,1215.3846574315967,None,6.619304854827078,7.1189965843241225,5.610820510188283,False,False,False,1222.5843268988951,None,1222.5843268988951,None,1222.5843268988951,None,1222.5843268988951,None,1222.5843268988951,None,1222.5843268988951,None,1222.5843268988951,None,1222.5843268988951,None,1223.584829241879,None,1223.584829241879,None,1224.5822694098142,None,1224.5822694098142,None,h,,,,,,,,,,,,,,,,,,,,,,,,,,,,,,,,,,,,,,,,,,,,,,,83_84Exp,001,2021_May_31_1038,ComputerHuman,2020.1.3,60.03262190366982,
Human.xlsx,h,Sychronize.jpg,Number7.jpg,7,Human,,,,,0,5,5,2,0,5,5,3,,,,,,,,,,,,,,,,,,,,,,,,,,,,,1225.6323048240324,None,1225.6323048240324,None,1226.0823829662745,None,1226.0823829662745,None,v,7.26479858805078,1226.0823829662745,None,t,7.47193904391861,1226.0823829662745,None,7.26479858805078,7.47193904391861,7.173311082071214,True,False,False,1233.6303297756585,None,1233.6303297756585,None,1233.6303297756585,None,1233.6303297756585,None,1233.6303297756585,None,1233.6303297756585,None,1233.6303297756585,None,1233.6303297756585,None,1234.614728593645,None,1234.614728593645,None,1235.613022038935,None,1235.613022038935,None,h,,,,,,,,,,,,,,,,,,,,,,,,,,,,,,,,,,,,,,,,,,,,,,,83_84Exp,001,2021_May_31_1038,ComputerHuman,2020.1.3,60.03262190366982,
Human.xlsx,h,Sychronize.jpg,Number6.jpg,6,Human,,,,,0,5,5,2,0,6,6,1,,,,,,,,,,,,,,,,,,,,,,,,,,,,,1236.6798256363013,None,1236.6798256363013,None,1237.1130775340412,None,1237.1130775340412,None,v,6.309549456725108,1237.1130775340412,None,t,6.808920405262143,1237.1130775340412,None,6.309549456725108,6.808920405262143,6.144768014676979,False,False,False,1243.9958506982762,None,1243.9958506982762,None,1243.9958506982762,None,1243.9958506982762,None,1243.9958506982762,None,1243.9958506982762,None,1243.9958506982762,None,1243.9958506982762,None,1244.996663878011,None,1244.996663878011,None,1245.99394173078,None,1245.99394173078,None,h,,,,,,,,,,,,,,,,,,,,,,,,,,,,,,,,,,,,,,,,,,,,,,,83_84Exp,001,2021_May_31_1038,ComputerHuman,2020.1.3,60.03262190366982,
Human.xlsx,h,Sychronize.jpg,Number8.jpg,8,Human,,,,,0,5,5,2,0,7,7,5,,,,,,,,,,,,,,,,,,,,,,,,,,,,,1247.044002486694,None,1247.044002486694,None,1247.4937191087934,None,1247.4937191087934,None,v,8.136067584699049,1247.4937191087934,None,t,8.95096446003572,1247.4937191087934,None,8.136067584699049,8.95096446003572,8.114151373180677,False,False,False,1256.524864053029,None,1256.524864053029,None,1256.524864053029,None,1256.524864053029,None,1256.524864053029,None,1256.524864053029,None,1256.524864053029,None,1256.524864053029,None,1257.5271069535047,None,1257.5271069535047,None,1258.5242985161958,None,1258.5242985161958,None,h,,,,,,,,,,,,,,,,,,,,,,,,,,,,,,,,,,,,,,,,,,,,,,,83_84Exp,001,2021_May_31_1038,ComputerHuman,2020.1.3,60.03262190366982,
Human.xlsx,h,Sychronize.jpg,Number9.jpg,9,Human,,,,,0,5,5,2,0,8,8,6,,,,,,,,,,,,,,,,,,,,,,,,,,,,,1259.5751554504536,None,1259.5751554504536,None,1260.0242311521938,None,1260.0242311521938,None,v,9.656541429502795,1260.0242311521938,None,t,9.631752118437362,1260.0242311521938,None,9.656541429502795,9.631752118437362,9.398205936042102,True,False,False,1269.7384390541838,None,1269.7384390541838,None,1269.7384390541838,None,1269.7384390541838,None,1269.7384390541838,None,1269.7384390541838,None,1269.7384390541838,None,1269.7384390541838,None,1270.741229206978,None,1270.741229206978,None,1271.7380922899656,None,1271.7380922899656,None,h,,,,,,,,,,,,,,,,,,,,,,,,,,,,,,,,,,,,,,,,,,,,,,,83_84Exp,001,2021_May_31_1038,ComputerHuman,2020.1.3,60.03262190366982,
Human.xlsx,h,Sychronize.jpg,Number8.jpg,8,Human,,,,,0,5,5,2,0,9,9,4,,,,,,,,,,,,,,,,,,,,,,,,,,,,,1272.8043117452025,None,1272.8043117452025,None,1273.2543238065664,None,1273.2543238065664,None,v,8.413723715208107,1273.2543238065664,None,t,8.780798500798028,1273.2543238065664,None,8.413723715208107,8.780798500798028,8.006186691507017,False,False,False,1282.1187463751753,None,1282.1187463751753,None,1282.1187463751753,None,1282.1187463751753,None,1282.1187463751753,None,1282.1187463751753,None,1282.1187463751753,None,1282.1187463751753,None,1283.0869428676278,None,1283.0869428676278,None,1284.0850618080754,None,1284.0850618080754,None,h,,,,,,,,,,,,,,,,,,,,,,,,,,,,,,,,,,,,,,,,,,,,,,,83_84Exp,001,2021_May_31_1038,ComputerHuman,2020.1.3,60.03262190366982,
Human.xlsx,h,,,,,,,,,0,5,5,2,,,,,,,,,,,,,,,,,,,,,,,,,,,,,,,,,,,,,,,,,,,,,,,,,,,,,,,,,,,,,,,,,,,,,,,,,,,,,,,h,1285.0852164244984,None,1285.0852164244984,None,q,1,3.2863486529763577,1285.0852164244984,None,o,0,3.1732467395822823,1285.0852164244984,None,h,h,1288.4677172456977,None,1288.4677172456977,None,1290.4668100771414,None,None,None,None,None,None,None,None,,,,,,,,,,,,,,,,,,83_84Exp,001,2021_May_31_1038,ComputerHuman,2020.1.3,60.03262190366982,
Human.xlsx,h,Sychronize.jpg,Number6.jpg,6,Human,,,,,0,6,6,0,0,0,0,0,,,,,,,,,,,,,,,,,,,,,,,,,1295.4689875383015,None,1295.4689875383015,None,1298.531596924609,None,1298.531596924609,None,1298.9653264651993,None,1298.9653264651993,None,v,6.4731676349974805,1298.9653264651993,None,t,6.539975081735065,1298.9653264651993,None,6.4731676349974805,6.539975081735065,6.378633434084275,True,False,False,1305.5965858640811,None,1305.5965858640811,None,1305.5965858640811,None,1305.5965858640811,None,1305.5965858640811,None,1305.5965858640811,None,1305.5965858640811,None,1305.5965858640811,None,1306.598620577714,None,1306.598620577714,None,1307.5960305922385,None,1307.5960305922385,None,h,,,,,,,,,,,,,,,,,,,,,,,,,,,,,,,,,,,,,,,,,,,,,,,83_84Exp,001,2021_May_31_1038,ComputerHuman,2020.1.3,60.03262190366982,
Human.xlsx,h,Sychronize.jpg,Number7.jpg,7,Human,,,,,0,6,6,0,0,1,1,2,,,,,,,,,,,,,,,,,,,,,,,,,,,,,1308.6464974568485,None,1308.6464974568485,None,1309.0962955573123,None,1309.0962955573123,None,None,,1309.0962955573123,None,t,7.624898953997672,1309.0962955573123,None,13,7.624898953997672,7.037371686434565,False,False,False,1322.160055584925,None,1322.160055584925,None,1322.160055584925,None,1322.160055584925,None,1322.160055584925,None,1322.160055584925,None,1322.160055584925,None,1322.160055584925,None,1323.1616963795377,None,1323.1616963795377,None,1324.1589373424968,None,1324.1589373424968,None,h,,,,,,,,,,,,,,,,,,,,,,,,,,,,,,,,,,,,,,,,,,,,,,,83_84Exp,001,2021_May_31_1038,ComputerHuman,2020.1.3,60.03262190366982,
Human.xlsx,h,Sychronize.jpg,Number8.jpg,8,Human,,,,,0,6,6,0,0,2,2,4,,,,,,,,,,,,,,,,,,,,,,,,,,,,,1325.2087603997188,None,1325.2087603997188,None,1325.6589306060964,None,1325.6589306060964,None,v,8.889637876789493,1325.6589306060964,None,t,9.576787583980149,1325.6589306060964,None,8.889637876789493,9.576787583980149,7.908543771609908,False,False,False,1335.3229516852548,None,1335.3229516852548,None,1335.3229516852548,None,1335.3229516852548,None,1335.3229516852548,None,1335.3229516852548,None,1335.3229516852548,None,1335.3229516852548,None,1336.2914394468198,None,1336.2914394468198,None,1337.289146504514,None,1337.289146504514,None,h,,,,,,,,,,,,,,,,,,,,,,,,,,,,,,,,,,,,,,,,,,,,,,,83_84Exp,001,2021_May_31_1038,ComputerHuman,2020.1.3,60.03262190366982,
Human.xlsx,h,Sychronize.jpg,Number6.jpg,6,Human,,,,,0,6,6,0,0,3,3,1,,,,,,,,,,,,,,,,,,,,,,,,,,,,,1338.3557149694361,None,1338.3557149694361,None,1338.805874590042,None,1338.805874590042,None,v,6.185985593085206,1338.805874590042,None,t,6.689008632857167,1338.805874590042,None,6.185985593085206,6.689008632857167,6.0066951778037625,False,False,False,1345.572325841601,None,1345.572325841601,None,1345.572325841601,None,1345.572325841601,None,1345.572325841601,None,1345.572325841601,None,1345.572325841601,None,1345.572325841601,None,1346.572814070223,None,1346.572814070223,None,1347.5533574218448,None,1347.5533574218448,None,h,,,,,,,,,,,,,,,,,,,,,,,,,,,,,,,,,,,,,,,,,,,,,,,83_84Exp,001,2021_May_31_1038,ComputerHuman,2020.1.3,60.03262190366982,
Human.xlsx,h,Sychronize.jpg,Number9.jpg,9,Human,,,,,0,6,6,0,0,4,4,7,,,,,,,,,,,,,,,,,,,,,,,,,,,,,1348.6200779369424,None,1348.6200779369424,None,1349.0534719406478,None,1349.0534719406478,None,v,9.661533743590553,1349.0534719406478,None,t,8.732833727679918,1349.0534719406478,None,9.661533743590553,8.732833727679918,8.819551423996419,False,False,False,1358.7843854734983,None,1358.7843854734983,None,1358.7843854734983,None,1358.7843854734983,None,1358.7843854734983,None,1358.7843854734983,None,1358.7843854734983,None,1358.7843854734983,None,1359.7861488064382,None,1359.7861488064382,None,1360.7836977191191,None,1360.7836977191191,None,h,,,,,,,,,,,,,,,,,,,,,,,,,,,,,,,,,,,,,,,,,,,,,,,83_84Exp,001,2021_May_31_1038,ComputerHuman,2020.1.3,60.03262190366982,
Human.xlsx,h,Sychronize.jpg,Number10.jpg,10,Human,,,,,0,6,6,0,0,5,5,8,,,,,,,,,,,,,,,,,,,,,,,,,,,,,1361.8332356020674,None,1361.8332356020674,None,1362.2835238558387,None,1362.2835238558387,None,v,10.062550041830036,1362.2835238558387,None,t,11.585632798185088,1362.2835238558387,None,10.062550041830036,11.585632798185088,9.76213094820736,False,False,False,1373.9638938574294,None,1373.9638938574294,None,1373.9638938574294,None,1373.9638938574294,None,1373.9638938574294,None,1373.9638938574294,None,1373.9638938574294,None,1373.9638938574294,None,1374.9488646278687,None,1374.9488646278687,None,1375.9467878919304,None,1375.9467878919304,None,h,,,,,,,,,,,,,,,,,,,,,,,,,,,,,,,,,,,,,,,,,,,,,,,83_84Exp,001,2021_May_31_1038,ComputerHuman,2020.1.3,60.03262190366982,
Human.xlsx,h,Sychronize.jpg,Number7.jpg,7,Human,,,,,0,6,6,0,0,6,6,3,,,,,,,,,,,,,,,,,,,,,,,,,,,,,1376.9964742964635,None,1376.9964742964635,None,1377.4469133172856,None,1377.4469133172856,None,v,7.45438206038898,1377.4469133172856,None,t,8.505836609575908,1377.4469133172856,None,7.45438206038898,8.505836609575908,7.000152477350996,False,False,False,1386.0284551958816,None,1386.0284551958816,None,1386.0284551958816,None,1386.0284551958816,None,1386.0284551958816,None,1386.0284551958816,None,1386.0284551958816,None,1386.0284551958816,None,1387.0132796902026,None,1387.0132796902026,None,1388.0106088679254,None,1388.0106088679254,None,h,,,,,,,,,,,,,,,,,,,,,,,,,,,,,,,,,,,,,,,,,,,,,,,83_84Exp,001,2021_May_31_1038,ComputerHuman,2020.1.3,60.03262190366982,
Human.xlsx,h,Sychronize.jpg,Number9.jpg,9,Human,,,,,0,6,6,0,0,7,7,6,,,,,,,,,,,,,,,,,,,,,,,,,,,,,1389.0775593829717,None,1389.0775593829717,None,1389.527424205875,None,1389.527424205875,None,v,9.256922132346517,1389.527424205875,None,t,10.531704386230558,1389.527424205875,None,9.256922132346517,10.531704386230558,8.400698354794036,False,False,False,1400.1425370951101,None,1400.1425370951101,None,1400.1425370951101,None,1400.1425370951101,None,1400.1425370951101,None,1400.1425370951101,None,1400.1425370951101,None,1400.1425370951101,None,1401.126015592521,None,1401.126015592521,None,1402.1238676432095,None,1402.1238676432095,None,h,,,,,,,,,,,,,,,,,,,,,,,,,,,,,,,,,,,,,,,,,,,,,,,83_84Exp,001,2021_May_31_1038,ComputerHuman,2020.1.3,60.03262190366982,
Human.xlsx,h,Sychronize.jpg,Number8.jpg,8,Human,,,,,0,6,6,0,0,8,8,5,,,,,,,,,,,,,,,,,,,,,,,,,,,,,1403.1917275722785,None,1403.1917275722785,None,1403.6241159276728,None,1403.6241159276728,None,v,9.69924860267838,1403.6241159276728,None,t,8.9468828430945,1403.6241159276728,None,9.69924860267838,8.9468828430945,8.390512071719998,False,False,False,1413.4213185252288,None,1413.4213185252288,None,1413.4213185252288,None,1413.4213185252288,None,1413.4213185252288,None,1413.4213185252288,None,1413.4213185252288,None,1413.4213185252288,None,1414.4062501603908,None,1414.4062501603908,None,1415.3877879329902,None,1415.3877879329902,None,h,,,,,,,,,,,,,,,,,,,,,,,,,,,,,,,,,,,,,,,,,,,,,,,83_84Exp,001,2021_May_31_1038,ComputerHuman,2020.1.3,60.03262190366982,
Human.xlsx,h,Sychronize.jpg,Number10.jpg,10,Human,,,,,0,6,6,0,0,9,9,9,,,,,,,,,,,,,,,,,,,,,,,,,,,,,1416.437572175716,None,1416.437572175716,None,1416.8878328423248,None,1416.8878328423248,None,v,10.286644733803314,1416.8878328423248,None,t,11.817602341957809,1416.8878328423248,None,10.286644733803314,11.817602341957809,9.310097273961215,False,False,False,1428.8010712159394,None,1428.8010712159394,None,1428.8010712159394,None,1428.8010712159394,None,1428.8010712159394,None,1428.8010712159394,None,1428.8010712159394,None,1428.8010712159394,None,1429.7862357380786,None,1429.7862357380786,None,1430.7672647520749,None,1430.7672647520749,None,h,,,,,,,,,,,,,,,,,,,,,,,,,,,,,,,,,,,,,,,,,,,,,,,83_84Exp,001,2021_May_31_1038,ComputerHuman,2020.1.3,60.03262190366982,
Human.xlsx,h,,,,,,,,,0,6,6,0,,,,,,,,,,,,,,,,,,,,,,,,,,,,,,,,,,,,,,,,,,,,,,,,,,,,,,,,,,,,,,,,,,,,,,,,,,,,,,,h,1431.767921711482,None,1431.767921711482,None,q,1,3.038039810200189,1431.767921711482,None,o,0,2.1852160395610554,1431.767921711482,None,h,h,1434.8830522436706,None,1434.8830522436706,None,1436.8825069160375,None,None,None,None,None,None,None,None,,,,,,,,,,,,,,,,,,83_84Exp,001,2021_May_31_1038,ComputerHuman,2020.1.3,60.03262190366982,
Human.xlsx,h,Sychronize.jpg,Number6.jpg,6,Human,,,,,0,7,7,4,0,0,0,0,,,,,,,,,,,,,,,,,,,,,,,,,1441.9011789341862,None,1441.9011789341862,None,1444.9651609422235,None,1444.9651609422235,None,1445.414076253484,None,1445.414076253484,None,v,6.526773341306125,1445.414076253484,None,t,6.613984061035808,1445.414076253484,None,6.526773341306125,6.613984061035808,6.283074748185811,True,False,False,1452.0976168540883,None,1452.0976168540883,None,1452.0976168540883,None,1452.0976168540883,None,1452.0976168540883,None,1452.0976168540883,None,1452.0976168540883,None,1452.0976168540883,None,1453.0975963241067,None,1453.0975963241067,None,1454.0951802019126,None,1454.0951802019126,None,h,,,,,,,,,,,,,,,,,,,,,,,,,,,,,,,,,,,,,,,,,,,,,,,83_84Exp,001,2021_May_31_1038,ComputerHuman,2020.1.3,60.03262190366982,
Human.xlsx,h,Sychronize.jpg,Number9.jpg,9,Human,,,,,0,7,7,4,0,1,1,6,,,,,,,,,,,,,,,,,,,,,,,,,,,,,1455.1622648034,None,1455.1622648034,None,1455.6119031549451,None,1455.6119031549451,None,v,9.46013013442007,1455.6119031549451,None,t,10.223737341982996,1455.6119031549451,None,9.46013013442007,10.223737341982996,9.63866202721252,False,False,False,1465.9094252503373,None,1465.9094252503373,None,1465.9094252503373,None,1465.9094252503373,None,1465.9094252503373,None,1465.9094252503373,None,1465.9094252503373,None,1465.9094252503373,None,1466.8947841657387,None,1466.8947841657387,None,1467.8918984202178,None,1467.8918984202178,None,h,,,,,,,,,,,,,,,,,,,,,,,,,,,,,,,,,,,,,,,,,,,,,,,83_84Exp,001,2021_May_31_1038,ComputerHuman,2020.1.3,60.03262190366982,
Human.xlsx,h,Sychronize.jpg,Number10.jpg,10,Human,,,,,0,7,7,4,0,2,2,9,,,,,,,,,,,,,,,,,,,,,,,,,,,,,1468.9583571780513,None,1468.9583571780513,None,1469.3919349892476,None,1469.3919349892476,None,v,10.491142916899662,1469.3919349892476,None,t,10.530780857845457,1469.3919349892476,None,10.491142916899662,10.530780857845457,9.44516104576293,True,False,False,1480.0056730112865,None,1480.0056730112865,None,1480.0056730112865,None,1480.0056730112865,None,1480.0056730112865,None,1480.0056730112865,None,1480.0056730112865,None,1480.0056730112865,None,1480.9904856367116,None,1480.9904856367116,None,1481.9719201178423,None,1481.9719201178423,None,h,,,,,,,,,,,,,,,,,,,,,,,,,,,,,,,,,,,,,,,,,,,,,,,83_84Exp,001,2021_May_31_1038,ComputerHuman,2020.1.3,60.03262190366982,
Human.xlsx,h,Sychronize.jpg,Number8.jpg,8,Human,,,,,0,7,7,4,0,3,3,5,,,,,,,,,,,,,,,,,,,,,,,,,,,,,1483.0224864245497,None,1483.0224864245497,None,1483.4719570076527,None,1483.4719570076527,None,v,8.546270087304038,1483.4719570076527,None,t,8.41388667193587,1483.4719570076527,None,8.546270087304038,8.41388667193587,8.529720805837028,True,False,False,1492.087719799114,None,1492.087719799114,None,1492.087719799114,None,1492.087719799114,None,1492.087719799114,None,1492.087719799114,None,1492.087719799114,None,1492.087719799114,None,1493.0877467447149,None,1493.0877467447149,None,1494.0858005666278,None,1494.0858005666278,None,h,,,,,,,,,,,,,,,,,,,,,,,,,,,,,,,,,,,,,,,,,,,,,,,83_84Exp,001,2021_May_31_1038,ComputerHuman,2020.1.3,60.03262190366982,
Human.xlsx,h,Sychronize.jpg,Number10.jpg,10,Human,,,,,0,7,7,4,0,4,4,8,,,,,,,,,,,,,,,,,,,,,,,,,,,,,1495.1195865005106,None,1495.1195865005106,None,1495.5856337605283,None,1495.5856337605283,None,v,10.799655609560887,1495.5856337605283,None,t,10.874684993096707,1495.5856337605283,None,10.799655609560887,10.874684993096707,9.264546841879733,True,False,False,1506.549564507768,None,1506.549564507768,None,1506.549564507768,None,1506.549564507768,None,1506.549564507768,None,1506.549564507768,None,1506.549564507768,None,1506.549564507768,None,1507.534956142827,None,1507.534956142827,None,1508.5322782633689,None,1508.5322782633689,None,h,,,,,,,,,,,,,,,,,,,,,,,,,,,,,,,,,,,,,,,,,,,,,,,83_84Exp,001,2021_May_31_1038,ComputerHuman,2020.1.3,60.03262190366982,
Human.xlsx,h,Sychronize.jpg,Number9.jpg,9,Human,,,,,0,7,7,4,0,5,5,7,,,,,,,,,,,,,,,,,,,,,,,,,,,,,1509.5825468853454,None,1509.5825468853454,None,1510.0326391419494,None,1510.0326391419494,None,v,9.115826947653659,1510.0326391419494,None,t,9.778792015890303,1510.0326391419494,None,9.115826947653659,9.778792015890303,8.573702935350347,False,False,False,1519.8799705009828,None,1519.8799705009828,None,1519.8799705009828,None,1519.8799705009828,None,1519.8799705009828,None,1519.8799705009828,None,1519.8799705009828,None,1519.8799705009828,None,1520.8653297371652,None,1520.8653297371652,None,1521.8792917284704,None,1521.8792917284704,None,h,,,,,,,,,,,,,,,,,,,,,,,,,,,,,,,,,,,,,,,,,,,,,,,83_84Exp,001,2021_May_31_1038,ComputerHuman,2020.1.3,60.03262190366982,
Human.xlsx,h,Sychronize.jpg,Number6.jpg,6,Human,,,,,0,7,7,4,0,6,6,1,,,,,,,,,,,,,,,,,,,,,,,,,,,,,1522.929032344986,None,1522.929032344986,None,1523.3793529976342,None,1523.3793529976342,None,v,6.916356364550666,1523.3793529976342,None,t,5.931985454507867,1523.3793529976342,None,6.916356364550666,5.931985454507867,6.0269074322567056,False,False,False,1530.378077572535,None,1530.378077572535,None,1530.378077572535,None,1530.378077572535,None,1530.378077572535,None,1530.378077572535,None,1530.378077572535,None,1530.378077572535,None,1531.3799403475728,None,1531.3799403475728,None,1532.3601093478137,None,1532.3601093478137,None,h,,,,,,,,,,,,,,,,,,,,,,,,,,,,,,,,,,,,,,,,,,,,,,,83_84Exp,001,2021_May_31_1038,ComputerHuman,2020.1.3,60.03262190366982,
Human.xlsx,h,Sychronize.jpg,Number8.jpg,8,Human,,,,,0,7,7,4,0,7,7,4,,,,,,,,,,,,,,,,,,,,,,,,,,,,,1533.4271586633959,None,1533.4271586633959,None,1533.8598851219226,None,1533.8598851219226,None,v,8.595082363719484,1533.8598851219226,None,t,8.538966867175986,1533.8598851219226,None,8.595082363719484,8.538966867175986,8.420100871529046,True,False,False,1542.5249304546878,None,1542.5249304546878,None,1542.5249304546878,None,1542.5249304546878,None,1542.5249304546878,None,1542.5249304546878,None,1542.5249304546878,None,1542.5249304546878,None,1543.527299742862,None,1543.527299742862,None,1544.5238000225831,None,1544.5238000225831,None,h,,,,,,,,,,,,,,,,,,,,,,,,,,,,,,,,,,,,,,,,,,,,,,,83_84Exp,001,2021_May_31_1038,ComputerHuman,2020.1.3,60.03262190366982,
Human.xlsx,h,Sychronize.jpg,Number7.jpg,7,Human,,,,,0,7,7,4,0,8,8,2,,,,,,,,,,,,,,,,,,,,,,,,,,,,,1545.5408716645197,None,1545.5408716645197,None,1546.023955601349,None,1546.023955601349,None,v,7.530276590175163,1546.023955601349,None,t,7.409924064731058,1546.023955601349,None,7.530276590175163,7.409924064731058,7.371899350320703,True,False,False,1553.6226348819782,None,1553.6226348819782,None,1553.6226348819782,None,1553.6226348819782,None,1553.6226348819782,None,1553.6226348819782,None,1553.6226348819782,None,1553.6226348819782,None,1554.6070330584025,None,1554.6070330584025,None,1555.6213639478128,None,1555.6213639478128,None,h,,,,,,,,,,,,,,,,,,,,,,,,,,,,,,,,,,,,,,,,,,,,,,,83_84Exp,001,2021_May_31_1038,ComputerHuman,2020.1.3,60.03262190366982,
Human.xlsx,h,Sychronize.jpg,Number7.jpg,7,Human,,,,,0,7,7,4,0,9,9,3,,,,,,,,,,,,,,,,,,,,,,,,,,,,,1556.6715142016146,None,1556.6715142016146,None,1557.1216244219527,None,1557.1216244219527,None,v,6.843926910699793,1557.1216244219527,None,t,7.587315935884817,1557.1216244219527,None,6.843926910699793,7.587315935884817,7.381276942481333,False,False,False,1564.7868849987426,None,1564.7868849987426,None,1564.7868849987426,None,1564.7868849987426,None,1564.7868849987426,None,1564.7868849987426,None,1564.7868849987426,None,1564.7868849987426,None,1565.7716328264141,None,1565.7716328264141,None,1566.7687499679218,None,1566.7687499679218,None,h,,,,,,,,,,,,,,,,,,,,,,,,,,,,,,,,,,,,,,,,,,,,,,,83_84Exp,001,2021_May_31_1038,ComputerHuman,2020.1.3,60.03262190366982,
Human.xlsx,h,,,,,,,,,0,7,7,4,,,,,,,,,,,,,,,,,,,,,,,,,,,,,,,,,,,,,,,,,,,,,,,,,,,,,,,,,,,,,,,,,,,,,,,,,,,,,,,h,1567.7690851840257,None,1567.7690851840257,None,a,0,3.1719742015120573,1567.7690851840257,None,l,0,3.8831327596917617,1567.7690851840257,None,c,c,1571.7346240062207,None,1571.7346240062207,None,1573.7504923987744,None,None,None,None,None,None,None,None,,,,,,,,,,,,,,,,,,83_84Exp,001,2021_May_31_1038,ComputerHuman,2020.1.3,60.03262190366982,
Computer.xlsx,c,Sychronize.jpg,Number8.jpg,8,Computer,,,,,0,8,8,9,0,0,0,5,,,,,,,,,,,,,,,,,,,,,,,,,1578.7520683956332,None,1578.7520683956332,None,1581.8159711707735,None,1581.8159711707735,None,1582.2486507952804,None,1582.2486507952804,None,v,7.999115606891792,1582.2486507952804,None,t,9.250759288533118,1582.2486507952804,None,7.999115606891792,9.250759288533118,8.435206790479436,False,False,False,1591.5807681549195,None,1591.5807681549195,None,1591.5807681549195,None,1591.5807681549195,None,1591.5807681549195,None,1591.5807681549195,None,1591.5807681549195,None,1591.5807681549195,None,1592.6128016624152,None,1592.6128016624152,None,1593.5957665895085,None,1593.5957665895085,None,c,,,,,,,,,,,,,,,,,,,,,,,,,,,,,,,,,,,,,,,,,,,,,,,83_84Exp,001,2021_May_31_1038,ComputerHuman,2020.1.3,60.03262190366982,
Computer.xlsx,c,Sychronize.jpg,Number9.jpg,9,Computer,,,,,0,8,8,9,0,1,1,6,,,,,,,,,,,,,,,,,,,,,,,,,,,,,1594.6461452393542,None,1594.6461452393542,None,1595.0960565754967,None,1595.0960565754967,None,v,9.29081841488005,1595.0960565754967,None,t,10.273713090942692,1595.0960565754967,None,9.29081841488005,10.273713090942692,8.449288070081515,False,False,False,1605.4600242767033,None,1605.4600242767033,None,1605.4600242767033,None,1605.4600242767033,None,1605.4600242767033,None,1605.4600242767033,None,1605.4600242767033,None,1605.4600242767033,None,1606.4593849602488,None,1606.4593849602488,None,1607.4425962471196,None,1607.4425962471196,None,c,,,,,,,,,,,,,,,,,,,,,,,,,,,,,,,,,,,,,,,,,,,,,,,83_84Exp,001,2021_May_31_1038,ComputerHuman,2020.1.3,60.03262190366982,
Computer.xlsx,c,Sychronize.jpg,Number7.jpg,7,Computer,,,,,0,8,8,9,0,2,2,2,,,,,,,,,,,,,,,,,,,,,,,,,,,,,1608.492391075617,None,1608.492391075617,None,1608.942762732438,None,1608.942762732438,None,v,7.119338536828309,1608.942762732438,None,t,7.990910350703416,1608.942762732438,None,7.119338536828309,7.990910350703416,7.135293023127236,False,True,False,1617.0072817278033,None,1617.0072817278033,None,1617.0072817278033,None,1617.0072817278033,None,1617.0072817278033,None,1617.0072817278033,None,1617.0072817278033,None,1617.0072817278033,None,1618.006570877195,None,1618.006570877195,None,1618.9898315643331,None,1618.9898315643331,None,c,,,,,,,,,,,,,,,,,,,,,,,,,,,,,,,,,,,,,,,,,,,,,,,83_84Exp,001,2021_May_31_1038,ComputerHuman,2020.1.3,60.03262190366982,
Computer.xlsx,c,Sychronize.jpg,Number10.jpg,10,Computer,,,,,0,8,8,9,0,3,3,9,,,,,,,,,,,,,,,,,,,,,,,,,,,,,1620.0564654685713,None,1620.0564654685713,None,1620.4897529729978,None,1620.4897529729978,None,v,10.255392648727138,1620.4897529729978,None,t,9.99073680820402,1620.4897529729978,None,10.255392648727138,9.99073680820402,10.72685910026471,False,False,False,1630.837048404564,None,1630.837048404564,None,1630.837048404564,None,1630.837048404564,None,1630.837048404564,None,1630.837048404564,None,1630.837048404564,None,1630.837048404564,None,1631.820175646823,None,1631.820175646823,None,1632.8032448277277,None,1632.8032448277277,None,c,,,,,,,,,,,,,,,,,,,,,,,,,,,,,,,,,,,,,,,,,,,,,,,83_84Exp,001,2021_May_31_1038,ComputerHuman,2020.1.3,60.03262190366982,
Computer.xlsx,c,Sychronize.jpg,Number6.jpg,6,Computer,,,,,0,8,8,9,0,4,4,1,,,,,,,,,,,,,,,,,,,,,,,,,,,,,1633.8695226650998,None,1633.8695226650998,None,1634.3031556506207,None,1634.3031556506207,None,v,6.1057335747318575,1634.3031556506207,None,t,6.525009046023115,1634.3031556506207,None,6.1057335747318575,6.525009046023115,5.651296161094369,False,False,False,1640.9028492406474,None,1640.9028492406474,None,1640.9028492406474,None,1640.9028492406474,None,1640.9028492406474,None,1640.9028492406474,None,1640.9028492406474,None,1640.9028492406474,None,1641.9178050113687,None,1641.9178050113687,None,1642.9009604823518,None,1642.9009604823518,None,c,,,,,,,,,,,,,,,,,,,,,,,,,,,,,,,,,,,,,,,,,,,,,,,83_84Exp,001,2021_May_31_1038,ComputerHuman,2020.1.3,60.03262190366982,
Computer.xlsx,c,Sychronize.jpg,Number8.jpg,8,Computer,,,,,0,8,8,9,0,5,5,4,,,,,,,,,,,,,,,,,,,,,,,,,,,,,1643.9350152306802,None,1643.9350152306802,None,1644.4008109984243,None,1644.4008109984243,None,v,7.331040177174145,1644.4008109984243,None,t,8.44181033376617,1644.4008109984243,None,7.331040177174145,8.44181033376617,7.460968963028176,False,True,False,1652.9161221944496,None,1652.9161221944496,None,1652.9161221944496,None,1652.9161221944496,None,1652.9161221944496,None,1652.9161221944496,None,1652.9161221944496,None,1652.9161221944496,None,1653.9149763648588,None,1653.9149763648588,None,1654.89807762386,None,1654.89807762386,None,c,,,,,,,,,,,,,,,,,,,,,,,,,,,,,,,,,,,,,,,,,,,,,,,83_84Exp,001,2021_May_31_1038,ComputerHuman,2020.1.3,60.03262190366982,
Computer.xlsx,c,Sychronize.jpg,Number6.jpg,6,Computer,,,,,0,8,8,9,0,6,6,0,,,,,,,,,,,,,,,,,,,,,,,,,,,,,1655.9649681528663,None,1655.9649681528663,None,1656.4150700328992,None,1656.4150700328992,None,v,5.808010991238916,1656.4150700328992,None,t,5.611037367132667,1656.4150700328992,None,5.808010991238916,5.611037367132667,6.343922658848208,False,False,False,1662.3129821337839,None,1662.3129821337839,None,1662.3129821337839,None,1662.3129821337839,None,1662.3129821337839,None,1662.3129821337839,None,1662.3129821337839,None,1662.3129821337839,None,1663.3127502091493,None,1663.3127502091493,None,1664.2791006071743,None,1664.2791006071743,None,c,,,,,,,,,,,,,,,,,,,,,,,,,,,,,,,,,,,,,,,,,,,,,,,83_84Exp,001,2021_May_31_1038,ComputerHuman,2020.1.3,60.03262190366982,
Computer.xlsx,c,Sychronize.jpg,Number10.jpg,10,Computer,,,,,0,8,8,9,0,7,7,8,,,,,,,,,,,,,,,,,,,,,,,,,,,,,1665.329618796738,None,1665.329618796738,None,1665.7793691008383,None,1665.7793691008383,None,v,10.155111708761524,1665.7793691008383,None,t,10.685695286316331,1665.7793691008383,None,10.155111708761524,10.685695286316331,10.084783952401205,False,True,False,1676.5443579119983,None,1676.5443579119983,None,1676.5443579119983,None,1676.5443579119983,None,1676.5443579119983,None,1676.5443579119983,None,1676.5443579119983,None,1676.5443579119983,None,1677.5594506561897,None,1677.5594506561897,None,1678.5426003531156,None,1678.5426003531156,None,c,,,,,,,,,,,,,,,,,,,,,,,,,,,,,,,,,,,,,,,,,,,,,,,83_84Exp,001,2021_May_31_1038,ComputerHuman,2020.1.3,60.03262190366982,
Computer.xlsx,c,Sychronize.jpg,Number7.jpg,7,Computer,,,,,0,8,8,9,0,8,8,3,,,,,,,,,,,,,,,,,,,,,,,,,,,,,1679.5928981661596,None,1679.5928981661596,None,1680.0426513572884,None,1680.0426513572884,None,v,7.630864196738912,1680.0426513572884,None,t,7.157902823898894,1680.0426513572884,None,7.630864196738912,7.157902823898894,7.012758552482708,False,False,True,1687.7407204483748,None,1687.7407204483748,None,1687.7407204483748,None,1687.7407204483748,None,1687.7407204483748,None,1687.7407204483748,None,1687.7407204483748,None,1687.7407204483748,None,1688.7568846009744,None,1688.7568846009744,None,1689.7393202394824,None,1689.7393202394824,None,c,,,,,,,,,,,,,,,,,,,,,,,,,,,,,,,,,,,,,,,,,,,,,,,83_84Exp,001,2021_May_31_1038,ComputerHuman,2020.1.3,60.03262190366982,
Computer.xlsx,c,Sychronize.jpg,Number9.jpg,9,Computer,,,,,0,8,8,9,0,9,9,7,,,,,,,,,,,,,,,,,,,,,,,,,,,,,1690.7898900747805,None,1690.7898900747805,None,1691.2399027777064,None,1691.2399027777064,None,v,9.532635292578107,1691.2399027777064,None,t,9.69579699954329,1691.2399027777064,None,9.532635292578107,9.69579699954329,8.54138245692091,False,False,False,1701.0044171538261,None,1701.0044171538261,None,1701.0044171538261,None,1701.0044171538261,None,1701.0044171538261,None,1701.0044171538261,None,1701.0044171538261,None,1701.0044171538261,None,1702.0037156058656,None,1702.0037156058656,None,1702.9868001842565,None,1702.9868001842565,None,c,,,,,,,,,,,,,,,,,,,,,,,,,,,,,,,,,,,,,,,,,,,,,,,83_84Exp,001,2021_May_31_1038,ComputerHuman,2020.1.3,60.03262190366982,
Computer.xlsx,c,,,,,,,,,0,8,8,9,,,,,,,,,,,,,,,,,,,,,,,,,,,,,,,,,,,,,,,,,,,,,,,,,,,,,,,,,,,,,,,,,,,,,,,,,,,,,,,c,1703.9871171158456,None,1703.9871171158456,None,q,0,3.1529368138494647,1703.9871171158456,None,o,0,3.408203716439857,1703.9871171158456,None,h,h,1707.5032164706909,None,1707.5032164706909,None,1709.4852748707895,None,None,None,None,None,None,None,None,,,,,,,,,,,,,,,,,,83_84Exp,001,2021_May_31_1038,ComputerHuman,2020.1.3,60.03262190366982,
Human.xlsx,h,Sychronize.jpg,Number7.jpg,7,Human,,,,,0,9,9,6,0,0,0,3,,,,,,,,,,,,,,,,,,,,,,,,,1714.4870760558829,None,1714.4870760558829,None,1717.568474545389,None,1717.568474545389,None,1717.9839426674607,None,1717.9839426674607,None,v,7.331040497954746,1717.9839426674607,None,t,6.765925491564758,1717.9839426674607,None,7.331040497954746,6.765925491564758,7.00825125599949,False,False,False,1725.3833332477916,None,1725.3833332477916,None,1725.3833332477916,None,1725.3833332477916,None,1725.3833332477916,None,1725.3833332477916,None,1725.3833332477916,None,1725.3833332477916,None,1726.3836675015527,None,1726.3836675015527,None,1727.3811766373942,None,1727.3811766373942,None,h,,,,,,,,,,,,,,,,,,,,,,,,,,,,,,,,,,,,,,,,,,,,,,,83_84Exp,001,2021_May_31_1038,ComputerHuman,2020.1.3,60.03262190366982,
Human.xlsx,h,Sychronize.jpg,Number6.jpg,6,Human,,,,,0,9,9,6,0,1,1,1,,,,,,,,,,,,,,,,,,,,,,,,,,,,,1728.4319848129462,None,1728.4319848129462,None,1728.8813954100096,None,1728.8813954100096,None,v,6.200891642757597,1728.8813954100096,None,t,6.10799508050286,1728.8813954100096,None,6.200891642757597,6.10799508050286,6.216849696571299,True,False,False,1735.1792302668387,None,1735.1792302668387,None,1735.1792302668387,None,1735.1792302668387,None,1735.1792302668387,None,1735.1792302668387,None,1735.1792302668387,None,1735.1792302668387,None,1736.148135364433,None,1736.148135364433,None,1737.1454918085374,None,1737.1454918085374,None,h,,,,,,,,,,,,,,,,,,,,,,,,,,,,,,,,,,,,,,,,,,,,,,,83_84Exp,001,2021_May_31_1038,ComputerHuman,2020.1.3,60.03262190366982,
Human.xlsx,h,Sychronize.jpg,Number9.jpg,9,Human,,,,,0,9,9,6,0,2,2,6,,,,,,,,,,,,,,,,,,,,,,,,,,,,,1738.2119136765605,None,1738.2119136765605,None,1738.6623636039358,None,1738.6623636039358,None,v,8.943132272104322,1738.6623636039358,None,t,9.314776261695897,1738.6623636039358,None,8.943132272104322,9.314776261695897,9.133395204171741,False,False,False,1748.0434443278227,None,1748.0434443278227,None,1748.0434443278227,None,1748.0434443278227,None,1748.0434443278227,None,1748.0434443278227,None,1748.0434443278227,None,1748.0434443278227,None,1749.0281318486736,None,1749.0281318486736,None,1750.0252133834952,None,1750.0252133834952,None,h,,,,,,,,,,,,,,,,,,,,,,,,,,,,,,,,,,,,,,,,,,,,,,,83_84Exp,001,2021_May_31_1038,ComputerHuman,2020.1.3,60.03262190366982,
Human.xlsx,h,Sychronize.jpg,Number10.jpg,10,Human,,,,,0,9,9,6,0,3,3,9,,,,,,,,,,,,,,,,,,,,,,,,,,,,,1751.092668807773,None,1751.092668807773,None,1751.5255790737901,None,1751.5255790737901,None,v,10.078984612779095,1751.5255790737901,None,t,10.446673693908451,1751.5255790737901,None,10.078984612779095,10.446673693908451,10.302333349924005,False,False,False,1762.0416575778727,None,1762.0416575778727,None,1762.0416575778727,None,1762.0416575778727,None,1762.0416575778727,None,1762.0416575778727,None,1762.0416575778727,None,1762.0416575778727,None,1763.041470241792,None,1763.041470241792,None,1764.022615378496,None,1764.022615378496,None,h,,,,,,,,,,,,,,,,,,,,,,,,,,,,,,,,,,,,,,,,,,,,,,,83_84Exp,001,2021_May_31_1038,ComputerHuman,2020.1.3,60.03262190366982,
Human.xlsx,h,Sychronize.jpg,Number8.jpg,8,Human,,,,,0,9,9,6,0,4,4,4,,,,,,,,,,,,,,,,,,,,,,,,,,,,,1765.090011779077,None,1765.090011779077,None,1765.5225942069524,None,1765.5225942069524,None,v,8.109214048152808,1765.5225942069524,None,t,7.772896382617546,1765.5225942069524,None,8.109214048152808,7.772896382617546,7.829810598788808,False,False,False,1773.7203239117825,None,1773.7203239117825,None,1773.7203239117825,None,1773.7203239117825,None,1773.7203239117825,None,1773.7203239117825,None,1773.7203239117825,None,1773.7203239117825,None,1774.7056353516018,None,1774.7056353516018,None,1775.7031624511774,None,1775.7031624511774,None,h,,,,,,,,,,,,,,,,,,,,,,,,,,,,,,,,,,,,,,,,,,,,,,,83_84Exp,001,2021_May_31_1038,ComputerHuman,2020.1.3,60.03262190366982,
Human.xlsx,h,Sychronize.jpg,Number10.jpg,10,Human,,,,,0,9,9,6,0,5,5,8,,,,,,,,,,,,,,,,,,,,,,,,,,,,,1776.7374738242738,None,1776.7374738242738,None,1777.2030055892874,None,1777.2030055892874,None,v,10.231861761370055,1777.2030055892874,None,t,8.326839871277116,1777.2030055892874,None,10.231861761370055,8.326839871277116,9.300661933038981,False,False,False,1787.5173010003236,None,1787.5173010003236,None,1787.5173010003236,None,1787.5173010003236,None,1787.5173010003236,None,1787.5173010003236,None,1787.5173010003236,None,1787.5173010003236,None,1788.5190582384248,None,1788.5190582384248,None,1789.516418852682,None,1789.516418852682,None,h,,,,,,,,,,,,,,,,,,,,,,,,,,,,,,,,,,,,,,,,,,,,,,,83_84Exp,001,2021_May_31_1038,ComputerHuman,2020.1.3,60.03262190366982,
Human.xlsx,h,Sychronize.jpg,Number8.jpg,8,Human,,,,,0,9,9,6,0,6,6,5,,,,,,,,,,,,,,,,,,,,,,,,,,,,,1790.5835178893126,None,1790.5835178893126,None,1791.0166597591833,None,1791.0166597591833,None,v,8.541435597448071,1791.0166597591833,None,t,8.396909981163844,1791.0166597591833,None,8.541435597448071,8.396909981163844,7.8132558149244415,True,False,False,1799.632250291269,None,1799.632250291269,None,1799.632250291269,None,1799.632250291269,None,1799.632250291269,None,1799.632250291269,None,1799.632250291269,None,1799.632250291269,None,1800.6159931121915,None,1800.6159931121915,None,1801.6137174920577,None,1801.6137174920577,None,h,,,,,,,,,,,,,,,,,,,,,,,,,,,,,,,,,,,,,,,,,,,,,,,83_84Exp,001,2021_May_31_1038,ComputerHuman,2020.1.3,60.03262190366982,
Human.xlsx,h,Sychronize.jpg,Number7.jpg,7,Human,,,,,0,9,9,6,0,7,7,2,,,,,,,,,,,,,,,,,,,,,,,,,,,,,1802.680754297182,None,1802.680754297182,None,1803.1135134753667,None,1803.1135134753667,None,v,6.363892959243003,1803.1135134753667,None,t,7.5308671479238,1803.1135134753667,None,6.363892959243003,7.5308671479238,6.69687963917119,False,False,False,1810.7120259498965,None,1810.7120259498965,None,1810.7120259498965,None,1810.7120259498965,None,1810.7120259498965,None,1810.7120259498965,None,1810.7120259498965,None,1810.7120259498965,None,1811.7132295200604,None,1811.7132295200604,None,1812.7111787673798,None,1812.7111787673798,None,h,,,,,,,,,,,,,,,,,,,,,,,,,,,,,,,,,,,,,,,,,,,,,,,83_84Exp,001,2021_May_31_1038,ComputerHuman,2020.1.3,60.03262190366982,
Human.xlsx,h,Sychronize.jpg,Number9.jpg,9,Human,,,,,0,9,9,6,0,8,8,7,,,,,,,,,,,,,,,,,,,,,,,,,,,,,1813.7608962876661,None,1813.7608962876661,None,1814.1943480319446,None,1814.1943480319446,None,v,7.726265737513586,1814.1943480319446,None,t,9.533763799996905,1814.1943480319446,None,7.726265737513586,9.533763799996905,8.562617647777296,False,False,False,1823.8090134317404,None,1823.8090134317404,None,1823.8090134317404,None,1823.8090134317404,None,1823.8090134317404,None,1823.8090134317404,None,1823.8090134317404,None,1823.8090134317404,None,1824.810178187408,None,1824.810178187408,None,1825.808133529566,None,1825.808133529566,None,h,,,,,,,,,,,,,,,,,,,,,,,,,,,,,,,,,,,,,,,,,,,,,,,83_84Exp,001,2021_May_31_1038,ComputerHuman,2020.1.3,60.03262190366982,
Human.xlsx,h,Sychronize.jpg,Number6.jpg,6,Human,,,,,0,9,9,6,0,9,9,0,,,,,,,,,,,,,,,,,,,,,,,,,,,,,1826.8583267680165,None,1826.8583267680165,None,1827.3080575044783,None,1827.3080575044783,None,v,6.039905151485527,1827.3080575044783,None,t,6.0470239225610385,1827.3080575044783,None,6.039905151485527,6.0470239225610385,5.9779215503364735,True,False,False,1833.424004744992,None,1833.424004744992,None,1833.424004744992,None,1833.424004744992,None,1833.424004744992,None,1833.424004744992,None,1833.424004744992,None,1833.424004744992,None,1834.4246607420564,None,1834.4246607420564,None,1835.4223908959798,None,1835.4223908959798,None,h,,,,,,,,,,,,,,,,,,,,,,,,,,,,,,,,,,,,,,,,,,,,,,,83_84Exp,001,2021_May_31_1038,ComputerHuman,2020.1.3,60.03262190366982,
Human.xlsx,h,,,,,,,,,0,9,9,6,,,,,,,,,,,,,,,,,,,,,,,,,,,,,,,,,,,,,,,,,,,,,,,,,,,,,,,,,,,,,,,,,,,,,,,,,,,,,,,h,1836.4230751217683,None,1836.4230751217683,None,q,0,3.012399467247178,1836.4230751217683,None,l,0,4.239149904792157,1836.4230751217683,None,h,c,1840.7545926210114,None,1840.7545926210114,None,None,None,1842.7540973352084,None,1842.7540973352084,None,"['space', 'space']",1843.7372319554297,None,"[432.8615628063458, 433.62952269076186]",,,,,,,,,,,,,,,,,83_84Exp,001,2021_May_31_1038,ComputerHuman,2020.1.3,60.03262190366982,
Computer.xlsx,c,Sychronize.jpg,Number7.jpg,7,Computer,,,,,1,0,10,7,0,0,0,3,,,,,,,,,,,,,,,,,,,,,,,,,2277.4212822769805,None,2277.4212822769805,None,2280.485110630938,None,2280.485110630938,None,2280.9352551748384,None,2280.9352551748384,None,v,6.142855951385172,2280.9352551748384,None,t,6.873953612506739,2280.9352551748384,None,6.142855951385172,6.873953612506739,7.2625728578735265,False,False,False,2287.8836177805038,None,2287.8836177805038,None,2287.8836177805038,None,2287.8836177805038,None,2287.8836177805038,None,2287.8836177805038,None,2287.8836177805038,None,2287.8836177805038,None,2288.916227731386,None,2288.916227731386,None,2289.899354011302,None,2289.899354011302,None,c,,,,,,,,,,,,,,,,,,,,,,,,,,,,,,,,,,,,,,,,,,,,,,,83_84Exp,001,2021_May_31_1038,ComputerHuman,2020.1.3,60.03262190366982,
Computer.xlsx,c,Sychronize.jpg,Number7.jpg,7,Computer,,,,,1,0,10,7,0,1,1,2,,,,,,,,,,,,,,,,,,,,,,,,,,,,,2290.932172790589,None,2290.932172790589,None,2291.399084555295,None,2291.399084555295,None,v,6.394331543803219,2291.399084555295,None,t,7.17785539964143,2291.399084555295,None,6.394331543803219,7.17785539964143,7.3669452636014965,False,False,True,2298.6485687395107,None,2298.6485687395107,None,2298.6485687395107,None,2298.6485687395107,None,2298.6485687395107,None,2298.6485687395107,None,2298.6485687395107,None,2298.6485687395107,None,2299.6468955460205,None,2299.6468955460205,None,2300.6301222303773,None,2300.6301222303773,None,c,,,,,,,,,,,,,,,,,,,,,,,,,,,,,,,,,,,,,,,,,,,,,,,83_84Exp,001,2021_May_31_1038,ComputerHuman,2020.1.3,60.03262190366982,
Computer.xlsx,c,Sychronize.jpg,Number6.jpg,6,Computer,,,,,1,0,10,7,0,2,2,1,,,,,,,,,,,,,,,,,,,,,,,,,,,,,2301.6971000118047,None,2301.6971000118047,None,2302.129921742277,None,2302.129921742277,None,v,5.97879477460674,2302.129921742277,None,t,6.217835934653067,2302.129921742277,None,5.97879477460674,6.217835934653067,6.355931664926884,False,False,True,2308.429014702033,None,2308.429014702033,None,2308.429014702033,None,2308.429014702033,None,2308.429014702033,None,2308.429014702033,None,2308.429014702033,None,2308.429014702033,None,2309.44480739028,None,2309.44480739028,None,2310.4279118570907,None,2310.4279118570907,None,c,,,,,,,,,,,,,,,,,,,,,,,,,,,,,,,,,,,,,,,,,,,,,,,83_84Exp,001,2021_May_31_1038,ComputerHuman,2020.1.3,60.03262190366982,
Computer.xlsx,c,Sychronize.jpg,Number9.jpg,9,Computer,,,,,1,0,10,7,0,3,3,7,,,,,,,,,,,,,,,,,,,,,,,,,,,,,2311.4780056534437,None,2311.4780056534437,None,2311.9281232517437,None,2311.9281232517437,None,v,8.243816305424389,2311.9281232517437,None,t,9.182764952241996,2311.9281232517437,None,8.243816305424389,9.182764952241996,9.445033422959934,False,False,True,2321.1766088448294,None,2321.1766088448294,None,2321.1766088448294,None,2321.1766088448294,None,2321.1766088448294,None,2321.1766088448294,None,2321.1766088448294,None,2321.1766088448294,None,2322.208200957724,None,2322.208200957724,None,2323.191558520712,None,2323.191558520712,None,c,,,,,,,,,,,,,,,,,,,,,,,,,,,,,,,,,,,,,,,,,,,,,,,83_84Exp,001,2021_May_31_1038,ComputerHuman,2020.1.3,60.03262190366982,
Computer.xlsx,c,Sychronize.jpg,Number10.jpg,10,Computer,,,,,1,0,10,7,0,4,4,8,,,,,,,,,,,,,,,,,,,,,,,,,,,,,2324.2413847857442,None,2324.2413847857442,None,2324.6917683114602,None,2324.6917683114602,None,v,9.107265945380277,2324.6917683114602,None,t,10.16267219521933,2324.6917683114602,None,9.107265945380277,10.16267219521933,10.573607495838647,False,False,False,2334.9227164886547,None,2334.9227164886547,None,2334.9227164886547,None,2334.9227164886547,None,2334.9227164886547,None,2334.9227164886547,None,2334.9227164886547,None,2334.9227164886547,None,2335.938387600918,None,2335.938387600918,None,2336.9216794038093,None,2336.9216794038093,None,c,,,,,,,,,,,,,,,,,,,,,,,,,,,,,,,,,,,,,,,,,,,,,,,83_84Exp,001,2021_May_31_1038,ComputerHuman,2020.1.3,60.03262190366982,
Computer.xlsx,c,Sychronize.jpg,Number9.jpg,9,Computer,,,,,1,0,10,7,0,5,5,6,,,,,,,,,,,,,,,,,,,,,,,,,,,,,2337.988666487885,None,2337.988666487885,None,2338.4383969035657,None,2338.4383969035657,None,v,8.683669875331816,2338.4383969035657,None,t,9.622783082782007,2338.4383969035657,None,8.683669875331816,9.622783082782007,9.255085975899862,False,False,False,2348.152420035722,None,2348.152420035722,None,2348.152420035722,None,2348.152420035722,None,2348.152420035722,None,2348.152420035722,None,2348.152420035722,None,2348.152420035722,None,2349.135475423046,None,2349.135475423046,None,2350.1185583975325,None,2350.1185583975325,None,c,,,,,,,,,,,,,,,,,,,,,,,,,,,,,,,,,,,,,,,,,,,,,,,83_84Exp,001,2021_May_31_1038,ComputerHuman,2020.1.3,60.03262190366982,
Computer.xlsx,c,Sychronize.jpg,Number6.jpg,6,Computer,,,,,1,0,10,7,0,6,6,0,,,,,,,,,,,,,,,,,,,,,,,,,,,,,2351.168303825762,None,2351.168303825762,None,2351.6183729861373,None,2351.6183729861373,None,v,6.57105522821621,2351.6183729861373,None,t,6.28196967208487,2351.6183729861373,None,6.57105522821621,6.28196967208487,6.037727493054424,False,False,True,2358.2668891175704,None,2358.2668891175704,None,2358.2668891175704,None,2358.2668891175704,None,2358.2668891175704,None,2358.2668891175704,None,2358.2668891175704,None,2358.2668891175704,None,2359.2829143720137,None,2359.2829143720137,None,2360.266263273916,None,2360.266263273916,None,c,,,,,,,,,,,,,,,,,,,,,,,,,,,,,,,,,,,,,,,,,,,,,,,83_84Exp,001,2021_May_31_1038,ComputerHuman,2020.1.3,60.03262190366982,
Computer.xlsx,c,Sychronize.jpg,Number8.jpg,8,Computer,,,,,1,0,10,7,0,7,7,5,,,,,,,,,,,,,,,,,,,,,,,,,,,,,2361.2999112719863,None,2361.2999112719863,None,2361.765906886269,None,2361.765906886269,None,v,8.102716950579179,2361.765906886269,None,t,8.449739397547546,2361.765906886269,None,8.102716950579179,8.449739397547546,8.293448169595406,False,True,True,2370.2809515133163,None,2370.2809515133163,None,2370.2809515133163,None,2370.2809515133163,None,2370.2809515133163,None,2370.2809515133163,None,2370.2809515133163,None,2370.2809515133163,None,2371.29695687934,None,2371.29695687934,None,2372.296747409373,None,2372.296747409373,None,c,,,,,,,,,,,,,,,,,,,,,,,,,,,,,,,,,,,,,,,,,,,,,,,83_84Exp,001,2021_May_31_1038,ComputerHuman,2020.1.3,60.03262190366982,
Computer.xlsx,c,Sychronize.jpg,Number10.jpg,10,Computer,,,,,1,0,10,7,0,8,8,9,,,,,,,,,,,,,,,,,,,,,,,,,,,,,2373.346913702223,None,2373.346913702223,None,2373.796799055108,None,2373.796799055108,None,v,9.507020612101314,2373.796799055108,None,t,10.989701327263447,2373.796799055108,None,9.507020612101314,10.989701327263447,10.587497348547952,False,False,False,2384.8616558328245,None,2384.8616558328245,None,2384.8616558328245,None,2384.8616558328245,None,2384.8616558328245,None,2384.8616558328245,None,2384.8616558328245,None,2384.8616558328245,None,2385.8599797523057,None,2385.8599797523057,None,2386.843227928987,None,2386.843227928987,None,c,,,,,,,,,,,,,,,,,,,,,,,,,,,,,,,,,,,,,,,,,,,,,,,83_84Exp,001,2021_May_31_1038,ComputerHuman,2020.1.3,60.03262190366982,
Computer.xlsx,c,Sychronize.jpg,Number8.jpg,8,Computer,,,,,1,0,10,7,0,9,9,4,,,,,,,,,,,,,,,,,,,,,,,,,,,,,2387.9101078722215,None,2387.9101078722215,None,2388.36014142591,None,2388.36014142591,None,v,8.186708954151527,2388.36014142591,None,t,8.533953702325562,2388.36014142591,None,8.186708954151527,8.533953702325562,7.906746632956707,False,True,False,2396.990831759368,None,2396.990831759368,None,2396.990831759368,None,2396.990831759368,None,2396.990831759368,None,2396.990831759368,None,2396.990831759368,None,2396.990831759368,None,2397.9738499361006,None,2397.9738499361006,None,2398.9571404558683,None,2398.9571404558683,None,c,,,,,,,,,,,,,,,,,,,,,,,,,,,,,,,,,,,,,,,,,,,,,,,83_84Exp,001,2021_May_31_1038,ComputerHuman,2020.1.3,60.03262190366982,
Computer.xlsx,c,,,,,,,,,1,0,10,7,,,,,,,,,,,,,,,,,,,,,,,,,,,,,,,,,,,,,,,,,,,,,,,,,,,,,,,,,,,,,,,,,,,,,,,,,,,,,,,c,2399.957151362421,None,2399.957151362421,None,q,0,3.165447912871059,2399.957151362421,None,l,1,3.8801988970267303,2399.957151362421,None,h,c,2403.9224585807624,None,2403.9224585807624,None,2405.9221817467937,None,None,None,None,None,None,None,None,,,,,,,,,,,,,,,,,,83_84Exp,001,2021_May_31_1038,ComputerHuman,2020.1.3,60.03262190366982,
Human.xlsx,h,Sychronize.jpg,Number10.jpg,10,Human,,,,,1,1,11,0,0,0,0,9,,,,,,,,,,,,,,,,,,,,,,,,,2410.923682680908,None,2410.923682680908,None,2413.9875819274575,None,2413.9875819274575,None,2414.437223807593,None,2414.437223807593,None,v,10.275821904976965,2414.437223807593,None,t,10.766787430005479,2414.437223807593,None,10.275821904976965,10.766787430005479,9.480799104078308,False,False,False,2425.3009502815175,None,2425.3009502815175,None,2425.3009502815175,None,2425.3009502815175,None,2425.3009502815175,None,2425.3009502815175,None,2425.3009502815175,None,2425.3009502815175,None,2426.3029647859494,None,2426.3029647859494,None,2427.3005348701736,None,2427.3005348701736,None,h,,,,,,,,,,,,,,,,,,,,,,,,,,,,,,,,,,,,,,,,,,,,,,,83_84Exp,001,2021_May_31_1038,ComputerHuman,2020.1.3,60.03262190366982,
Human.xlsx,h,Sychronize.jpg,Number7.jpg,7,Human,,,,,1,1,11,0,0,1,1,3,,,,,,,,,,,,,,,,,,,,,,,,,,,,,2428.334708949019,None,2428.334708949019,None,2428.8005448143836,None,2428.8005448143836,None,v,7.335740259807153,2428.8005448143836,None,t,7.070976636880914,2428.8005448143836,None,7.335740259807153,7.070976636880914,7.131702014301833,True,False,False,2436.198662856644,None,2436.198662856644,None,2436.198662856644,None,2436.198662856644,None,2436.198662856644,None,2436.198662856644,None,2436.198662856644,None,2436.198662856644,None,2437.1997891185965,None,2437.1997891185965,None,2438.1978086169465,None,2438.1978086169465,None,h,,,,,,,,,,,,,,,,,,,,,,,,,,,,,,,,,,,,,,,,,,,,,,,83_84Exp,001,2021_May_31_1038,ComputerHuman,2020.1.3,60.03262190366982,
Human.xlsx,h,Sychronize.jpg,Number6.jpg,6,Human,,,,,1,1,11,0,0,2,2,0,,,,,,,,,,,,,,,,,,,,,,,,,,,,,2439.2815917921134,None,2439.2815917921134,None,2439.714711207317,None,2439.714711207317,None,v,6.3689080487793035,2439.714711207317,None,t,6.636005994754669,2439.714711207317,None,6.3689080487793035,6.636005994754669,6.0831001197187335,True,False,False,2446.429771424319,None,2446.429771424319,None,2446.429771424319,None,2446.429771424319,None,2446.429771424319,None,2446.429771424319,None,2446.429771424319,None,2446.429771424319,None,2447.4314314657895,None,2447.4314314657895,None,2448.412141623511,None,2448.412141623511,None,h,,,,,,,,,,,,,,,,,,,,,,,,,,,,,,,,,,,,,,,,,,,,,,,83_84Exp,001,2021_May_31_1038,ComputerHuman,2020.1.3,60.03262190366982,
Human.xlsx,h,Sychronize.jpg,Number8.jpg,8,Human,,,,,1,1,11,0,0,3,3,5,,,,,,,,,,,,,,,,,,,,,,,,,,,,,2449.4622642901504,None,2449.4622642901504,None,2449.912222781094,None,2449.912222781094,None,v,8.438964365084757,2449.912222781094,None,t,8.465811486011262,2449.912222781094,None,8.438964365084757,8.465811486011262,8.34624142041348,True,False,False,2458.4603476239113,None,2458.4603476239113,None,2458.4603476239113,None,2458.4603476239113,None,2458.4603476239113,None,2458.4603476239113,None,2458.4603476239113,None,2458.4603476239113,None,2459.461650636173,None,2459.461650636173,None,2460.459374053696,None,2460.459374053696,None,h,,,,,,,,,,,,,,,,,,,,,,,,,,,,,,,,,,,,,,,,,,,,,,,83_84Exp,001,2021_May_31_1038,ComputerHuman,2020.1.3,60.03262190366982,
Human.xlsx,h,Sychronize.jpg,Number10.jpg,10,Human,,,,,1,1,11,0,0,4,4,8,,,,,,,,,,,,,,,,,,,,,,,,,,,,,2461.4930720935963,None,2461.4930720935963,None,2461.959409660383,None,2461.959409660383,None,v,10.534485877939005,2461.959409660383,None,t,8.829846230438761,2461.959409660383,None,10.534485877939005,8.829846230438761,10.616149670017176,False,False,False,2472.5750617824133,None,2472.5750617824133,None,2472.5750617824133,None,2472.5750617824133,None,2472.5750617824133,None,2472.5750617824133,None,2472.5750617824133,None,2472.5750617824133,None,2473.5744022567583,None,2473.5744022567583,None,2474.5727518387166,None,2474.5727518387166,None,h,,,,,,,,,,,,,,,,,,,,,,,,,,,,,,,,,,,,,,,,,,,,,,,83_84Exp,001,2021_May_31_1038,ComputerHuman,2020.1.3,60.03262190366982,
Human.xlsx,h,Sychronize.jpg,Number9.jpg,9,Human,,,,,1,1,11,0,0,5,5,7,,,,,,,,,,,,,,,,,,,,,,,,,,,,,2475.622816764783,None,2475.622816764783,None,2476.072529858292,None,2476.072529858292,None,v,8.884521420469355,2476.072529858292,None,t,9.79973003074383,2476.072529858292,None,8.884521420469355,9.79973003074383,8.552684164810387,False,False,False,2485.9371484240673,None,2485.9371484240673,None,2485.9371484240673,None,2485.9371484240673,None,2485.9371484240673,None,2485.9371484240673,None,2485.9371484240673,None,2485.9371484240673,None,2486.9389011712356,None,2486.9389011712356,None,2487.9363432638565,None,2487.9363432638565,None,h,,,,,,,,,,,,,,,,,,,,,,,,,,,,,,,,,,,,,,,,,,,,,,,83_84Exp,001,2021_May_31_1038,ComputerHuman,2020.1.3,60.03262190366982,
Human.xlsx,h,Sychronize.jpg,Number6.jpg,6,Human,,,,,1,1,11,0,0,6,6,1,,,,,,,,,,,,,,,,,,,,,,,,,,,,,2489.003288967188,None,2489.003288967188,None,2489.4530148919353,None,2489.4530148919353,None,v,5.719482824104489,2489.4530148919353,None,t,6.574970039057916,2489.4530148919353,None,5.719482824104489,6.574970039057916,6.352418239567129,False,False,False,2496.1017145100777,None,2496.1017145100777,None,2496.1017145100777,None,2496.1017145100777,None,2496.1017145100777,None,2496.1017145100777,None,2496.1017145100777,None,2496.1017145100777,None,2497.103628289288,None,2497.103628289288,None,2498.0838762016456,None,2498.0838762016456,None,h,,,,,,,,,,,,,,,,,,,,,,,,,,,,,,,,,,,,,,,,,,,,,,,83_84Exp,001,2021_May_31_1038,ComputerHuman,2020.1.3,60.03262190366982,
Human.xlsx,h,Sychronize.jpg,Number9.jpg,9,Human,,,,,1,1,11,0,0,7,7,6,,,,,,,,,,,,,,,,,,,,,,,,,,,,,2499.1507182927267,None,2499.1507182927267,None,2499.584183509806,None,2499.584183509806,None,v,7.7074875408675325,2499.584183509806,None,t,9.5107955624444,2499.584183509806,None,7.7074875408675325,9.5107955624444,9.312774375055305,False,False,False,2509.181306681996,None,2509.181306681996,None,2509.181306681996,None,2509.181306681996,None,2509.181306681996,None,2509.181306681996,None,2509.181306681996,None,2509.181306681996,None,2510.166599195738,None,2510.166599195738,None,2511.1642241335067,None,2511.1642241335067,None,h,,,,,,,,,,,,,,,,,,,,,,,,,,,,,,,,,,,,,,,,,,,,,,,83_84Exp,001,2021_May_31_1038,ComputerHuman,2020.1.3,60.03262190366982,
Human.xlsx,h,Sychronize.jpg,Number7.jpg,7,Human,,,,,1,1,11,0,0,8,8,2,,,,,,,,,,,,,,,,,,,,,,,,,,,,,2512.2139188783444,None,2512.2139188783444,None,2512.646607484718,None,2512.646607484718,None,v,7.080223789629599,2512.646607484718,None,t,7.119954436272565,2512.646607484718,None,7.080223789629599,7.119954436272565,6.729705227084827,True,False,False,2519.829228085528,None,2519.829228085528,None,2519.829228085528,None,2519.829228085528,None,2519.829228085528,None,2519.829228085528,None,2519.829228085528,None,2519.829228085528,None,2520.8304582805113,None,2520.8304582805113,None,2521.845026227051,None,2521.845026227051,None,h,,,,,,,,,,,,,,,,,,,,,,,,,,,,,,,,,,,,,,,,,,,,,,,83_84Exp,001,2021_May_31_1038,ComputerHuman,2020.1.3,60.03262190366982,
Human.xlsx,h,Sychronize.jpg,Number8.jpg,8,Human,,,,,1,1,11,0,0,9,9,4,,,,,,,,,,,,,,,,,,,,,,,,,,,,,2522.8954096886114,None,2522.8954096886114,None,2523.345347970355,None,2523.345347970355,None,v,7.128764043790397,2523.345347970355,None,t,7.935917908302599,2523.345347970355,None,7.128764043790397,7.935917908302599,8.041703468735102,False,False,False,2531.3761323567905,None,2531.3761323567905,None,2531.3761323567905,None,2531.3761323567905,None,2531.3761323567905,None,2531.3761323567905,None,2531.3761323567905,None,2531.3761323567905,None,2532.344727259196,None,2532.344727259196,None,2533.3423133824685,None,2533.3423133824685,None,h,,,,,,,,,,,,,,,,,,,,,,,,,,,,,,,,,,,,,,,,,,,,,,,83_84Exp,001,2021_May_31_1038,ComputerHuman,2020.1.3,60.03262190366982,
Human.xlsx,h,,,,,,,,,1,1,11,0,,,,,,,,,,,,,,,,,,,,,,,,,,,,,,,,,,,,,,,,,,,,,,,,,,,,,,,,,,,,,,,,,,,,,,,,,,,,,,,h,2534.3428728244635,None,2534.3428728244635,None,a,0,3.1072110918357794,2534.3428728244635,None,o,1,3.350159043200165,2534.3428728244635,None,c,h,2537.7748281255613,None,2537.7748281255613,None,2539.7908350954904,None,None,None,None,None,None,None,None,,,,,,,,,,,,,,,,,,83_84Exp,001,2021_May_31_1038,ComputerHuman,2020.1.3,60.03262190366982,
