Condition,CorrectTuringReply,Sychronize,NumberImage,Number,Partner,trials.thisRepN,trials.thisTrialN,trials.thisN,trials.thisIndex,Block.thisRepN,Block.thisTrialN,Block.thisN,Block.thisIndex,trials_loop.thisRepN,trials_loop.thisTrialN,trials_loop.thisN,trials_loop.thisIndex,key_resp_Istr.keys,key_resp_Istr.rt,key_resp_Istr.started,key_resp_Istr.stopped,key_respPrLeft.keys,key_respPrLeft.rt,key_respPrRight.keys,key_respPrRight.rt,RTPrLeft,RTPrRight,CompPr,SychronizedRTsPr,SychronizedRTsLeftCPr,SychronizedRTsRightCPr,CreditLeftPr.started,CreditLeftPr.stopped,CreditRightPr.started,CreditRightPr.stopped,text_StartExp.started,text_StartExp.stopped,key_startExp.keys,key_startExp.rt,key_startExp.started,key_startExp.stopped,SychroLeft.started,SychroLeft.stopped,SychroRight.started,SychroRight.stopped,NumberLeft.started,NumberLeft.stopped,NumberRight.started,NumberRight.stopped,CrossLeft.started,CrossLeft.stopped,CrossRight.started,CrossRight.stopped,key_respLeft.keys,key_respLeft.rt,key_respLeft.started,key_respLeft.stopped,key_respRight.keys,key_respRight.rt,key_respRight.started,key_respRight.stopped,RTLeft,RTRight,Comp,SychronizedRTs,SychronizedRTsLeftC,SychronizedRTsRightC,FeedbackLeftLeft.started,FeedbackLeftLeft.stopped,FeedbackLeftRight.started,FeedbackLeftRight.stopped,FeedbackRightLeft.started,FeedbackRightLeft.stopped,FeedbackRightRight.started,FeedbackRightRight.stopped,textLeftLeft.started,textLeftLeft.stopped,textLeftRight.started,textLeftRight.stopped,textRightLeft.started,textRightLeft.stopped,textRightRight.started,textRightRight.stopped,CreditLeft.started,CreditLeft.stopped,CreditRight.started,CreditRight.stopped,BlankLeft.started,BlankLeft.stopped,BlankRight.started,BlankRight.stopped,CorrectTuringReply,TuringtextLeft.started,TuringtextLeft.stopped,TuringtextRight.started,TuringtextRight.stopped,keyTuringLeft.keys,keyTuringLeft.corr,keyTuringLeft.rt,keyTuringLeft.started,keyTuringLeft.stopped,keyTuringRight.keys,keyTuringRight.corr,keyTuringRight.rt,keyTuringRight.started,keyTuringRight.stopped,RespTuringLeft,RespTuringRight,ScoreLeft.started,ScoreLeft.stopped,ScoreRight.started,ScoreRight.stopped,BlockText.started,BlockText.stopped,text_Pause.started,text_Pause.stopped,text_LongPause.started,text_LongPause.stopped,key_respPause.keys,key_respPause.started,key_respPause.stopped,key_respPause.rt,QuestImageLeft.started,QuestImageLeft.stopped,QuestImageRight.started,QuestImageRight.stopped,respQuestLeft.keys,respQuestLeft.rt,respQuestLeft.started,respQuestLeft.stopped,respQuestRight.keys,respQuestRight.rt,respQuestRight.started,respQuestRight.stopped,RespInclusionLeft,RespInclusionRight,EndText.started,EndText.stopped,participant,session,date,expName,psychopyVersion,frameRate,
,,,,,,,,,,,,,,,,,,"['t', 't', 'v']","[269.40074071579056, 318.2037022957702, 345.4870304161841]",21.594813706289642,None,,,,,,,,,,,,,,,,,,,,,,,,,,,,,,,,,,,,,,,,,,,,,,,,,,,,,,,,,,,,,,,,,,,,,,,,,,,,,,,,,,,,,,,,,,,,,,,,,,,,,,,,,,,,,,,,,,,,,,9_10Exp,001,2021_Apr_27_1033,ComputerHuman,2020.1.3,60.0275561136494,
,,,,,,,,,,,,,,,,,,,,,,v,8.999658032467778,t,10.391104994618217,8.999658032467778,10.391104994618217,9,False,False,False,437.0324028672667,None,437.0324028672667,None,438.03218344344623,None,"['space', 'space']","[2.78487932491862, 3.6328490931928172]",439.0154090698388,None,,,,,,,,,,,,,,,,,,,,,,,,,,,,,,,,,,,,,,,,,,,,,,,,,,,,,,,,,,,,,,,,,,,,,,,,,,,,,,,,,,,,,,,,,,,,,,,,,,9_10Exp,001,2021_Apr_27_1033,ComputerHuman,2020.1.3,60.0275561136494,
Human.xlsx,h,Sychronize.jpg,Number7.jpg,7,Human,,,,,0,0,0,0,0,0,0,3,,,,,,,,,,,,,,,,,,,,,,,,,442.7169612367288,None,442.7169612367288,None,445.797753793001,None,445.797753793001,None,446.2142705681763,None,446.2142705681763,None,v,7.309761312436422,446.2142705681763,None,t,6.541189925110302,446.2142705681763,None,7.309761312436422,6.541189925110302,7.50595285102428,False,False,False,453.6126143032898,None,453.6126143032898,None,453.6126143032898,None,453.6126143032898,None,453.6126143032898,None,453.6126143032898,None,453.6126143032898,None,453.6126143032898,None,454.6168911430086,None,454.6168911430086,None,455.6122399354563,None,455.6122399354563,None,h,,,,,,,,,,,,,,,,,,,,,,,,,,,,,,,,,,,,,,,,,,,,,,,9_10Exp,001,2021_Apr_27_1033,ComputerHuman,2020.1.3,60.0275561136494,
Human.xlsx,h,Sychronize.jpg,Number7.jpg,7,Human,,,,,0,0,0,0,0,1,1,2,,,,,,,,,,,,,,,,,,,,,,,,,,,,,456.6454794362353,None,456.6454794362353,None,457.0954384546658,None,457.0954384546658,None,v,7.484330925766699,457.0954384546658,None,t,6.456044179895798,457.0954384546658,None,7.484330925766699,6.456044179895798,6.921104229833192,False,False,False,464.6770979595831,None,464.6770979595831,None,464.6770979595831,None,464.6770979595831,None,464.6770979595831,None,464.6770979595831,None,464.6770979595831,None,464.6770979595831,None,465.6629480103493,None,465.6629480103493,None,466.6601214850889,None,466.6601214850889,None,h,,,,,,,,,,,,,,,,,,,,,,,,,,,,,,,,,,,,,,,,,,,,,,,9_10Exp,001,2021_Apr_27_1033,ComputerHuman,2020.1.3,60.0275561136494,
Human.xlsx,h,Sychronize.jpg,Number6.jpg,6,Human,,,,,0,0,0,0,0,2,2,0,,,,,,,,,,,,,,,,,,,,,,,,,,,,,467.71068584379555,None,467.71068584379555,None,468.1604061907028,None,468.1604061907028,None,v,5.983118801637829,468.1604061907028,None,t,6.730176389162807,468.1604061907028,None,5.983118801637829,6.730176389162807,6.449225692297311,False,False,False,474.9752384710264,None,474.9752384710264,None,474.9752384710264,None,474.9752384710264,None,474.9752384710264,None,474.9752384710264,None,474.9752384710264,None,474.9752384710264,None,475.9439003225598,None,475.9439003225598,None,476.941444315592,None,476.941444315592,None,h,,,,,,,,,,,,,,,,,,,,,,,,,,,,,,,,,,,,,,,,,,,,,,,9_10Exp,001,2021_Apr_27_1033,ComputerHuman,2020.1.3,60.0275561136494,
Human.xlsx,h,Sychronize.jpg,Number10.jpg,10,Human,,,,,0,0,0,0,0,3,3,8,,,,,,,,,,,,,,,,,,,,,,,,,,,,,478.0252077548994,None,478.0252077548994,None,478.4582316813994,None,478.4582316813994,None,v,10.193020782707208,478.4582316813994,None,t,10.764004869668497,478.4582316813994,None,10.193020782707208,10.764004869668497,10.451687656517553,False,False,False,489.29086167156674,None,489.29086167156674,None,489.29086167156674,None,489.29086167156674,None,489.29086167156674,None,489.29086167156674,None,489.29086167156674,None,489.29086167156674,None,490.2743548410381,None,490.2743548410381,None,491.27209965177735,None,491.27209965177735,None,h,,,,,,,,,,,,,,,,,,,,,,,,,,,,,,,,,,,,,,,,,,,,,,,9_10Exp,001,2021_Apr_27_1033,ComputerHuman,2020.1.3,60.0275561136494,
Human.xlsx,h,Sychronize.jpg,Number6.jpg,6,Human,,,,,0,0,0,0,0,4,4,1,,,,,,,,,,,,,,,,,,,,,,,,,,,,,492.33887699273873,None,492.33887699273873,None,492.77203725713844,None,492.77203725713844,None,v,9.874924893856587,492.77203725713844,None,t,5.698133133157171,492.77203725713844,None,9.874924893856587,5.698133133157171,6.269025369018837,False,False,False,502.7366570909344,None,502.7366570909344,None,502.7366570909344,None,502.7366570909344,None,502.7366570909344,None,502.7366570909344,None,502.7366570909344,None,502.7366570909344,None,503.72230856955866,None,503.72230856955866,None,504.7029036764716,None,504.7029036764716,None,h,,,,,,,,,,,,,,,,,,,,,,,,,,,,,,,,,,,,,,,,,,,,,,,9_10Exp,001,2021_Apr_27_1033,ComputerHuman,2020.1.3,60.0275561136494,
Human.xlsx,h,Sychronize.jpg,Number9.jpg,9,Human,,,,,0,0,0,0,0,5,5,6,,,,,,,,,,,,,,,,,,,,,,,,,,,,,505.7695947235634,None,505.7695947235634,None,506.20288426837124,None,506.20288426837124,None,v,8.495801915467382,506.20288426837124,None,t,8.72698576151106,506.20288426837124,None,8.495801915467382,8.72698576151106,9.275431524784965,True,False,False,515.0176982633757,None,515.0176982633757,None,515.0176982633757,None,515.0176982633757,None,515.0176982633757,None,515.0176982633757,None,515.0176982633757,None,515.0176982633757,None,516.0028008616555,None,516.0028008616555,None,517.000518404815,None,517.000518404815,None,h,,,,,,,,,,,,,,,,,,,,,,,,,,,,,,,,,,,,,,,,,,,,,,,9_10Exp,001,2021_Apr_27_1033,ComputerHuman,2020.1.3,60.0275561136494,
Human.xlsx,h,Sychronize.jpg,Number9.jpg,9,Human,,,,,0,0,0,0,0,6,6,7,,,,,,,,,,,,,,,,,,,,,,,,,,,,,518.0342917085709,None,518.0342917085709,None,518.500415910793,None,518.500415910793,None,v,9.262001344131022,518.500415910793,None,t,7.609060535631215,518.500415910793,None,9.262001344131022,7.609060535631215,8.411419348970004,False,False,False,527.8484079743239,None,527.8484079743239,None,527.8484079743239,None,527.8484079743239,None,527.8484079743239,None,527.8484079743239,None,527.8484079743239,None,527.8484079743239,None,528.8338220646046,None,528.8338220646046,None,529.8314353493697,None,529.8314353493697,None,h,,,,,,,,,,,,,,,,,,,,,,,,,,,,,,,,,,,,,,,,,,,,,,,9_10Exp,001,2021_Apr_27_1033,ComputerHuman,2020.1.3,60.0275561136494,
Human.xlsx,h,Sychronize.jpg,Number10.jpg,10,Human,,,,,0,0,0,0,0,7,7,9,,,,,,,,,,,,,,,,,,,,,,,,,,,,,530.8810158296319,None,530.8810158296319,None,531.3316530088168,None,531.3316530088168,None,v,7.5624996992546585,531.3316530088168,None,t,12.086065464647618,531.3316530088168,None,7.5624996992546585,12.086065464647618,10.2802762012188,False,False,False,543.495449682493,None,543.495449682493,None,543.495449682493,None,543.495449682493,None,543.495449682493,None,543.495449682493,None,543.495449682493,None,543.495449682493,None,544.497477107263,None,544.497477107263,None,545.4951272834596,None,545.4951272834596,None,h,,,,,,,,,,,,,,,,,,,,,,,,,,,,,,,,,,,,,,,,,,,,,,,9_10Exp,001,2021_Apr_27_1033,ComputerHuman,2020.1.3,60.0275561136494,
Human.xlsx,h,Sychronize.jpg,Number8.jpg,8,Human,,,,,0,0,0,0,0,8,8,4,,,,,,,,,,,,,,,,,,,,,,,,,,,,,546.5452338676178,None,546.5452338676178,None,546.995037621241,None,546.995037621241,None,v,8.598797980915151,546.995037621241,None,t,8.530121212412269,546.995037621241,None,8.598797980915151,8.530121212412269,8.164493508681394,True,False,False,555.6450595155029,None,555.6450595155029,None,555.6450595155029,None,555.6450595155029,None,555.6450595155029,None,555.6450595155029,None,555.6450595155029,None,555.6450595155029,None,556.6449196488575,None,556.6449196488575,None,557.6428858081872,None,557.6428858081872,None,h,,,,,,,,,,,,,,,,,,,,,,,,,,,,,,,,,,,,,,,,,,,,,,,9_10Exp,001,2021_Apr_27_1033,ComputerHuman,2020.1.3,60.0275561136494,
Human.xlsx,h,Sychronize.jpg,Number8.jpg,8,Human,,,,,0,0,0,0,0,9,9,5,,,,,,,,,,,,,,,,,,,,,,,,,,,,,558.6930960091495,None,558.6930960091495,None,559.1426424851352,None,559.1426424851352,None,v,7.122986088721518,559.1426424851352,None,t,7.066065817522031,559.1426424851352,None,7.122986088721518,7.066065817522031,8.429388194771017,True,False,False,566.3577939565421,None,566.3577939565421,None,566.3577939565421,None,566.3577939565421,None,566.3577939565421,None,566.3577939565421,None,566.3577939565421,None,566.3577939565421,None,567.3432629027784,None,567.3432629027784,None,568.3407895728778,None,568.3407895728778,None,h,,,,,,,,,,,,,,,,,,,,,,,,,,,,,,,,,,,,,,,,,,,,,,,9_10Exp,001,2021_Apr_27_1033,ComputerHuman,2020.1.3,60.0275561136494,
Human.xlsx,h,,,,,,,,,0,0,0,0,,,,,,,,,,,,,,,,,,,,,,,,,,,,,,,,,,,,,,,,,,,,,,,,,,,,,,,,,,,,,,,,,,,,,,,,,,,,,,,h,569.3413843269163,None,569.3413843269163,None,q,0,13.719830748527784,569.3413843269163,None,o,1,14.99090995122333,569.3413843269163,None,h,h,584.4374954888199,None,584.4374954888199,None,586.4206806950342,None,None,None,None,None,None,None,None,,,,,,,,,,,,,,,,,,9_10Exp,001,2021_Apr_27_1033,ComputerHuman,2020.1.3,60.0275561136494,
Computer.xlsx,c,Sychronize.jpg,Number9.jpg,9,Computer,,,,,0,1,1,5,0,0,0,6,,,,,,,,,,,,,,,,,,,,,,,,,591.4057848972898,None,591.4057848972898,None,594.5036302772796,None,594.5036302772796,None,594.9358987314163,None,594.9358987314163,None,v,8.468852243400761,594.9358987314163,None,t,8.36807543816576,594.9358987314163,None,8.468852243400761,8.36807543816576,8.747151671628256,False,True,False,603.4860131750529,None,603.4860131750529,None,603.4860131750529,None,603.4860131750529,None,603.4860131750529,None,603.4860131750529,None,603.4860131750529,None,603.4860131750529,None,604.5171967003025,None,604.5171967003025,None,605.4836328757192,None,605.4836328757192,None,c,,,,,,,,,,,,,,,,,,,,,,,,,,,,,,,,,,,,,,,,,,,,,,,9_10Exp,001,2021_Apr_27_1033,ComputerHuman,2020.1.3,60.0275561136494,
Computer.xlsx,c,Sychronize.jpg,Number8.jpg,8,Computer,,,,,0,1,1,5,0,1,1,5,,,,,,,,,,,,,,,,,,,,,,,,,,,,,606.5504631478661,None,606.5504631478661,None,606.9835422511151,None,606.9835422511151,None,v,7.956949944742519,606.9835422511151,None,t,7.467954338031632,606.9835422511151,None,7.956949944742519,7.467954338031632,8.143652169428472,False,True,False,615.0319178251375,None,615.0319178251375,None,615.0319178251375,None,615.0319178251375,None,615.0319178251375,None,615.0319178251375,None,615.0319178251375,None,615.0319178251375,None,616.0317166866362,None,616.0317166866362,None,617.014873342091,None,617.014873342091,None,c,,,,,,,,,,,,,,,,,,,,,,,,,,,,,,,,,,,,,,,,,,,,,,,9_10Exp,001,2021_Apr_27_1033,ComputerHuman,2020.1.3,60.0275561136494,
Computer.xlsx,c,Sychronize.jpg,Number7.jpg,7,Computer,,,,,0,1,1,5,0,2,2,2,,,,,,,,,,,,,,,,,,,,,,,,,,,,,618.0652628674907,None,618.0652628674907,None,618.5151551605504,None,618.5151551605504,None,v,6.325170061480094,618.5151551605504,None,t,7.43612056119855,618.5151551605504,None,6.325170061480094,7.43612056119855,6.984023385420676,False,False,False,626.0149172910142,None,626.0149172910142,None,626.0149172910142,None,626.0149172910142,None,626.0149172910142,None,626.0149172910142,None,626.0149172910142,None,626.0149172910142,None,627.0295766628014,None,627.0295766628014,None,628.0293546726207,None,628.0293546726207,None,c,,,,,,,,,,,,,,,,,,,,,,,,,,,,,,,,,,,,,,,,,,,,,,,9_10Exp,001,2021_Apr_27_1033,ComputerHuman,2020.1.3,60.0275561136494,
Computer.xlsx,c,Sychronize.jpg,Number10.jpg,10,Computer,,,,,0,1,1,5,0,3,3,8,,,,,,,,,,,,,,,,,,,,,,,,,,,,,629.0790480727437,None,629.0790480727437,None,629.5295161929325,None,629.5295161929325,None,v,8.762515097418145,629.5295161929325,None,t,11.217994678010655,629.5295161929325,None,8.762515097418145,11.217994678010655,10.544016203162606,False,False,False,640.8436685481302,None,640.8436685481302,None,640.8436685481302,None,640.8436685481302,None,640.8436685481302,None,640.8436685481302,None,640.8436685481302,None,640.8436685481302,None,641.8268017855453,None,641.8268017855453,None,642.8099189832083,None,642.8099189832083,None,c,,,,,,,,,,,,,,,,,,,,,,,,,,,,,,,,,,,,,,,,,,,,,,,9_10Exp,001,2021_Apr_27_1033,ComputerHuman,2020.1.3,60.0275561136494,
Computer.xlsx,c,Sychronize.jpg,Number10.jpg,10,Computer,,,,,0,1,1,5,0,4,4,9,,,,,,,,,,,,,,,,,,,,,,,,,,,,,643.8773725601532,None,643.8773725601532,None,644.3268009835574,None,644.3268009835574,None,v,8.092905456884182,644.3268009835574,None,t,8.528076464710466,644.3268009835574,None,8.092905456884182,8.528076464710466,9.405779601389353,False,False,False,652.9413743822688,None,652.9413743822688,None,652.9413743822688,None,652.9413743822688,None,652.9413743822688,None,652.9413743822688,None,652.9413743822688,None,652.9413743822688,None,653.9411960202169,None,653.9411960202169,None,654.9076283460927,None,654.9076283460927,None,c,,,,,,,,,,,,,,,,,,,,,,,,,,,,,,,,,,,,,,,,,,,,,,,9_10Exp,001,2021_Apr_27_1033,ComputerHuman,2020.1.3,60.0275561136494,
Computer.xlsx,c,Sychronize.jpg,Number7.jpg,7,Computer,,,,,0,1,1,5,0,5,5,3,,,,,,,,,,,,,,,,,,,,,,,,,,,,,655.9746000888599,None,655.9746000888599,None,656.4078521006468,None,656.4078521006468,None,v,7.515518621351475,656.4078521006468,None,t,7.711048663007205,656.4078521006468,None,7.515518621351475,7.711048663007205,7.03099573685579,False,False,False,664.2058333373434,None,664.2058333373434,None,664.2058333373434,None,664.2058333373434,None,664.2058333373434,None,664.2058333373434,None,664.2058333373434,None,664.2058333373434,None,665.2056966786486,None,665.2056966786486,None,666.1888315200395,None,666.1888315200395,None,c,,,,,,,,,,,,,,,,,,,,,,,,,,,,,,,,,,,,,,,,,,,,,,,9_10Exp,001,2021_Apr_27_1033,ComputerHuman,2020.1.3,60.0275561136494,
Computer.xlsx,c,Sychronize.jpg,Number8.jpg,8,Computer,,,,,0,1,1,5,0,6,6,4,,,,,,,,,,,,,,,,,,,,,,,,,,,,,667.2224723354366,None,667.2224723354366,None,667.6887591807536,None,667.6887591807536,None,v,7.442476473693205,667.6887591807536,None,t,6.07415466492148,667.6887591807536,None,7.442476473693205,6.07415466492148,7.755305064716024,False,False,False,675.2204186054723,None,675.2204186054723,None,675.2204186054723,None,675.2204186054723,None,675.2204186054723,None,675.2204186054723,None,675.2204186054723,None,675.2204186054723,None,676.2035916214745,None,676.2035916214745,None,677.1867405778485,None,677.1867405778485,None,c,,,,,,,,,,,,,,,,,,,,,,,,,,,,,,,,,,,,,,,,,,,,,,,9_10Exp,001,2021_Apr_27_1033,ComputerHuman,2020.1.3,60.0275561136494,
Computer.xlsx,c,Sychronize.jpg,Number6.jpg,6,Computer,,,,,0,1,1,5,0,7,7,0,,,,,,,,,,,,,,,,,,,,,,,,,,,,,678.2538784924554,None,678.2538784924554,None,678.7035866491515,None,678.7035866491515,None,v,5.275415710296329,678.7035866491515,None,t,6.351127514431937,678.7035866491515,None,5.275415710296329,6.351127514431937,6.415363244107579,False,False,True,685.1367732187455,None,685.1367732187455,None,685.1367732187455,None,685.1367732187455,None,685.1367732187455,None,685.1367732187455,None,685.1367732187455,None,685.1367732187455,None,686.1516439944762,None,686.1516439944762,None,687.1181635766079,None,687.1181635766079,None,c,,,,,,,,,,,,,,,,,,,,,,,,,,,,,,,,,,,,,,,,,,,,,,,9_10Exp,001,2021_Apr_27_1033,ComputerHuman,2020.1.3,60.0275561136494,
Computer.xlsx,c,Sychronize.jpg,Number9.jpg,9,Computer,,,,,0,1,1,5,0,8,8,7,,,,,,,,,,,,,,,,,,,,,,,,,,,,,688.184777632885,None,688.184777632885,None,688.6184774745734,None,688.6184774745734,None,v,7.852220944389046,688.6184774745734,None,t,7.647110999901997,688.6184774745734,None,7.852220944389046,7.647110999901997,8.671664053619615,False,False,False,696.5510832447135,None,696.5510832447135,None,696.5510832447135,None,696.5510832447135,None,696.5510832447135,None,696.5510832447135,None,696.5510832447135,None,696.5510832447135,None,697.5662658332412,None,697.5662658332412,None,698.5493445354969,None,698.5493445354969,None,c,,,,,,,,,,,,,,,,,,,,,,,,,,,,,,,,,,,,,,,,,,,,,,,9_10Exp,001,2021_Apr_27_1033,ComputerHuman,2020.1.3,60.0275561136494,
Computer.xlsx,c,Sychronize.jpg,Number6.jpg,6,Computer,,,,,0,1,1,5,0,9,9,1,,,,,,,,,,,,,,,,,,,,,,,,,,,,,699.5994382878525,None,699.5994382878525,None,700.0495407016751,None,700.0495407016751,None,v,5.121052336109642,700.0495407016751,None,t,5.432060899734097,700.0495407016751,None,5.121052336109642,5.432060899734097,5.8863087834695635,False,False,False,705.5646365151388,None,705.5646365151388,None,705.5646365151388,None,705.5646365151388,None,705.5646365151388,None,705.5646365151388,None,705.5646365151388,None,705.5646365151388,None,706.5477854715127,None,706.5477854715127,None,707.5309248040348,None,707.5309248040348,None,c,,,,,,,,,,,,,,,,,,,,,,,,,,,,,,,,,,,,,,,,,,,,,,,9_10Exp,001,2021_Apr_27_1033,ComputerHuman,2020.1.3,60.0275561136494,
Computer.xlsx,c,,,,,,,,,0,1,1,5,,,,,,,,,,,,,,,,,,,,,,,,,,,,,,,,,,,,,,,,,,,,,,,,,,,,,,,,,,,,,,,,,,,,,,,,,,,,,,,c,708.5309620162616,None,708.5309620162616,None,a,0,4.143510235769099,708.5309620162616,None,l,1,8.035033386745454,708.5309620162616,None,c,c,716.6795238118157,None,716.6795238118157,None,718.6622114648944,None,None,None,None,None,None,None,None,,,,,,,,,,,,,,,,,,9_10Exp,001,2021_Apr_27_1033,ComputerHuman,2020.1.3,60.0275561136494,
Computer.xlsx,c,Sychronize.jpg,Number10.jpg,10,Computer,,,,,0,2,2,1,0,0,0,8,,,,,,,,,,,,,,,,,,,,,,,,,723.6482520679256,None,723.6482520679256,None,726.7438576568165,None,726.7438576568165,None,727.1609820178328,None,727.1609820178328,None,v,9.588866807495833,727.1609820178328,None,t,8.74406328644909,727.1609820178328,None,9.588866807495833,8.74406328644909,10.434817493985976,False,False,False,736.8419606352381,None,736.8419606352381,None,736.8419606352381,None,736.8419606352381,None,736.8419606352381,None,736.8419606352381,None,736.8419606352381,None,736.8419606352381,None,737.8415974952322,None,737.8415974952322,None,738.8082922314661,None,738.8082922314661,None,c,,,,,,,,,,,,,,,,,,,,,,,,,,,,,,,,,,,,,,,,,,,,,,,9_10Exp,001,2021_Apr_27_1033,ComputerHuman,2020.1.3,60.0275561136494,
Computer.xlsx,c,Sychronize.jpg,Number10.jpg,10,Computer,,,,,0,2,2,1,0,1,1,9,,,,,,,,,,,,,,,,,,,,,,,,,,,,,739.858592896635,None,739.858592896635,None,740.3252669415879,None,740.3252669415879,None,v,10.58036092652037,740.3252669415879,None,t,9.30426448911021,740.3252669415879,None,10.58036092652037,9.30426448911021,10.234407343997772,False,False,False,750.9739613858992,None,750.9739613858992,None,750.9739613858992,None,750.9739613858992,None,750.9739613858992,None,750.9739613858992,None,750.9739613858992,None,750.9739613858992,None,751.9891831114237,None,751.9891831114237,None,752.9723015922664,None,752.9723015922664,None,c,,,,,,,,,,,,,,,,,,,,,,,,,,,,,,,,,,,,,,,,,,,,,,,9_10Exp,001,2021_Apr_27_1033,ComputerHuman,2020.1.3,60.0275561136494,
Computer.xlsx,c,Sychronize.jpg,Number9.jpg,9,Computer,,,,,0,2,2,1,0,2,2,6,,,,,,,,,,,,,,,,,,,,,,,,,,,,,754.0221942061207,None,754.0221942061207,None,754.4556839270444,None,754.4556839270444,None,v,7.757667884084185,754.4556839270444,None,t,7.553085326673681,754.4556839270444,None,7.757667884084185,7.553085326673681,9.13550504605261,False,False,False,762.3038785726549,None,762.3038785726549,None,762.3038785726549,None,762.3038785726549,None,762.3038785726549,None,762.3038785726549,None,762.3038785726549,None,762.3038785726549,None,763.3036556200886,None,763.3036556200886,None,764.2868427510748,None,764.2868427510748,None,c,,,,,,,,,,,,,,,,,,,,,,,,,,,,,,,,,,,,,,,,,,,,,,,9_10Exp,001,2021_Apr_27_1033,ComputerHuman,2020.1.3,60.0275561136494,
Computer.xlsx,c,Sychronize.jpg,Number8.jpg,8,Computer,,,,,0,2,2,1,0,3,3,4,,,,,,,,,,,,,,,,,,,,,,,,,,,,,765.3372743006266,None,765.3372743006266,None,765.7867723365589,None,765.7867723365589,None,v,8.390311347644456,765.7867723365589,None,t,9.082102683290032,765.7867723365589,None,8.390311347644456,9.082102683290032,7.656158877330655,False,False,False,774.9366346352799,None,774.9366346352799,None,774.9366346352799,None,774.9366346352799,None,774.9366346352799,None,774.9366346352799,None,774.9366346352799,None,774.9366346352799,None,775.9346296661652,None,775.9346296661652,None,776.9177398063357,None,776.9177398063357,None,c,,,,,,,,,,,,,,,,,,,,,,,,,,,,,,,,,,,,,,,,,,,,,,,9_10Exp,001,2021_Apr_27_1033,ComputerHuman,2020.1.3,60.0275561136494,
Computer.xlsx,c,Sychronize.jpg,Number8.jpg,8,Computer,,,,,0,2,2,1,0,4,4,5,,,,,,,,,,,,,,,,,,,,,,,,,,,,,777.9846833191386,None,777.9846833191386,None,778.4347170828178,None,778.4347170828178,None,v,6.974360454952148,778.4347170828178,None,t,6.957103926371019,778.4347170828178,None,6.974360454952148,6.957103926371019,7.765568433696435,False,False,False,785.4843113572679,None,785.4843113572679,None,785.4843113572679,None,785.4843113572679,None,785.4843113572679,None,785.4843113572679,None,785.4843113572679,None,785.4843113572679,None,786.4992270443063,None,786.4992270443063,None,787.4657167924988,None,787.4657167924988,None,c,,,,,,,,,,,,,,,,,,,,,,,,,,,,,,,,,,,,,,,,,,,,,,,9_10Exp,001,2021_Apr_27_1033,ComputerHuman,2020.1.3,60.0275561136494,
Computer.xlsx,c,Sychronize.jpg,Number6.jpg,6,Computer,,,,,0,2,2,1,0,5,5,0,,,,,,,,,,,,,,,,,,,,,,,,,,,,,788.5332351700454,None,788.5332351700454,None,788.9657079706349,None,788.9657079706349,None,v,5.399052050602222,788.9657079706349,None,t,5.226174952001202,788.9657079706349,None,5.399052050602222,5.226174952001202,6.345856087170852,False,False,False,794.4477837071399,None,794.4477837071399,None,794.4477837071399,None,794.4477837071399,None,794.4477837071399,None,794.4477837071399,None,794.4477837071399,None,794.4477837071399,None,795.44753765733,None,795.44753765733,None,796.4306535718124,None,796.4306535718124,None,c,,,,,,,,,,,,,,,,,,,,,,,,,,,,,,,,,,,,,,,,,,,,,,,9_10Exp,001,2021_Apr_27_1033,ComputerHuman,2020.1.3,60.0275561136494,
Computer.xlsx,c,Sychronize.jpg,Number6.jpg,6,Computer,,,,,0,2,2,1,0,6,6,1,,,,,,,,,,,,,,,,,,,,,,,,,,,,,797.4810793470542,None,797.4810793470542,None,797.9308907997583,None,797.9308907997583,None,v,5.109613425915086,797.9308907997583,None,t,5.201105138976345,797.9308907997583,None,5.109613425915086,5.201105138976345,6.140563649600003,False,False,False,803.2291647619459,None,803.2291647619459,None,803.2291647619459,None,803.2291647619459,None,803.2291647619459,None,803.2291647619459,None,803.2291647619459,None,803.2291647619459,None,804.2125360292948,None,804.2125360292948,None,805.1957334257222,None,805.1957334257222,None,c,,,,,,,,,,,,,,,,,,,,,,,,,,,,,,,,,,,,,,,,,,,,,,,9_10Exp,001,2021_Apr_27_1033,ComputerHuman,2020.1.3,60.0275561136494,
Computer.xlsx,c,Sychronize.jpg,Number7.jpg,7,Computer,,,,,0,2,2,1,0,7,7,2,,,,,,,,,,,,,,,,,,,,,,,,,,,,,806.2621280581798,None,806.2621280581798,None,806.6959401781378,None,806.6959401781378,None,v,4.192311184037862,806.6959401781378,None,t,7.615087633190342,806.6959401781378,None,4.192311184037862,7.615087633190342,7.139416495502309,False,False,False,814.3780489565343,None,814.3780489565343,None,814.3780489565343,None,814.3780489565343,None,814.3780489565343,None,814.3780489565343,None,814.3780489565343,None,814.3780489565343,None,815.3937403260243,None,815.3937403260243,None,816.3769062845358,None,816.3769062845358,None,c,,,,,,,,,,,,,,,,,,,,,,,,,,,,,,,,,,,,,,,,,,,,,,,9_10Exp,001,2021_Apr_27_1033,ComputerHuman,2020.1.3,60.0275561136494,
Computer.xlsx,c,Sychronize.jpg,Number7.jpg,7,Computer,,,,,0,2,2,1,0,8,8,3,,,,,,,,,,,,,,,,,,,,,,,,,,,,,817.4267956904396,None,817.4267956904396,None,817.8769927388039,None,817.8769927388039,None,v,6.7669770358852475,817.8769927388039,None,t,5.586142615858989,817.8769927388039,None,6.7669770358852475,5.586142615858989,6.4828338037786075,False,True,False,824.7100343090315,None,824.7100343090315,None,824.7100343090315,None,824.7100343090315,None,824.7100343090315,None,824.7100343090315,None,824.7100343090315,None,824.7100343090315,None,825.7249102174828,None,825.7249102174828,None,826.7083093940018,None,826.7083093940018,None,c,,,,,,,,,,,,,,,,,,,,,,,,,,,,,,,,,,,,,,,,,,,,,,,9_10Exp,001,2021_Apr_27_1033,ComputerHuman,2020.1.3,60.0275561136494,
Computer.xlsx,c,Sychronize.jpg,Number9.jpg,9,Computer,,,,,0,2,2,1,0,9,9,7,,,,,,,,,,,,,,,,,,,,,,,,,,,,,827.7916522709884,None,827.7916522709884,None,828.2252029429737,None,828.2252029429737,None,v,7.490618829708183,828.2252029429737,None,t,7.218139677375802,828.2252029429737,None,7.490618829708183,7.218139677375802,8.978971652331103,False,False,False,835.8065060445806,None,835.8065060445806,None,835.8065060445806,None,835.8065060445806,None,835.8065060445806,None,835.8065060445806,None,835.8065060445806,None,835.8065060445806,None,836.789681626944,None,836.789681626944,None,837.7728161475397,None,837.7728161475397,None,c,,,,,,,,,,,,,,,,,,,,,,,,,,,,,,,,,,,,,,,,,,,,,,,9_10Exp,001,2021_Apr_27_1033,ComputerHuman,2020.1.3,60.0275561136494,
Computer.xlsx,c,,,,,,,,,0,2,2,1,,,,,,,,,,,,,,,,,,,,,,,,,,,,,,,,,,,,,,,,,,,,,,,,,,,,,,,,,,,,,,,,,,,,,,,,,,,,,,,c,838.773567449567,None,838.773567449567,None,q,0,3.914058041449607,838.773567449567,None,l,1,5.145155914418865,838.773567449567,None,h,c,844.0217521505301,None,844.0217521505301,None,846.0046216944074,None,None,None,None,None,None,None,None,,,,,,,,,,,,,,,,,,9_10Exp,001,2021_Apr_27_1033,ComputerHuman,2020.1.3,60.0275561136494,
Computer.xlsx,c,Sychronize.jpg,Number7.jpg,7,Computer,,,,,0,3,3,3,0,0,0,3,,,,,,,,,,,,,,,,,,,,,,,,,851.0062683354427,None,851.0062683354427,None,854.0702489850846,None,854.0702489850846,None,854.503168332395,None,854.503168332395,None,v,7.0919988900486715,854.503168332395,None,t,5.795122631931008,854.503168332395,None,7.0919988900486715,5.795122631931008,7.000829196320206,False,True,False,861.6696603261526,None,861.6696603261526,None,861.6696603261526,None,861.6696603261526,None,861.6696603261526,None,861.6696603261526,None,861.6696603261526,None,861.6696603261526,None,862.7013385173814,None,862.7013385173814,None,863.6845644645691,None,863.6845644645691,None,c,,,,,,,,,,,,,,,,,,,,,,,,,,,,,,,,,,,,,,,,,,,,,,,9_10Exp,001,2021_Apr_27_1033,ComputerHuman,2020.1.3,60.0275561136494,
Computer.xlsx,c,Sychronize.jpg,Number6.jpg,6,Computer,,,,,0,3,3,3,0,1,1,0,,,,,,,,,,,,,,,,,,,,,,,,,,,,,864.7515246587145,None,864.7515246587145,None,865.1848417918973,None,865.1848417918973,None,v,6.186136199958128,865.1848417918973,None,t,5.3051774718460365,865.1848417918973,None,6.186136199958128,5.3051774718460365,5.577870914485531,False,False,True,871.4666554388396,None,871.4666554388396,None,871.4666554388396,None,871.4666554388396,None,871.4666554388396,None,871.4666554388396,None,871.4666554388396,None,871.4666554388396,None,872.4495272282829,None,872.4495272282829,None,873.4326883748681,None,873.4326883748681,None,c,,,,,,,,,,,,,,,,,,,,,,,,,,,,,,,,,,,,,,,,,,,,,,,9_10Exp,001,2021_Apr_27_1033,ComputerHuman,2020.1.3,60.0275561136494,
Computer.xlsx,c,Sychronize.jpg,Number9.jpg,9,Computer,,,,,0,3,3,3,0,2,2,7,,,,,,,,,,,,,,,,,,,,,,,,,,,,,874.4826762648545,None,874.4826762648545,None,874.9327478823516,None,874.9327478823516,None,v,7.905994216064755,874.9327478823516,None,t,7.905101764212304,874.9327478823516,None,7.905994216064755,7.905101764212304,8.36582050549795,False,False,False,882.9322692561245,None,882.9322692561245,None,882.9322692561245,None,882.9322692561245,None,882.9322692561245,None,882.9322692561245,None,882.9322692561245,None,882.9322692561245,None,883.9473973094919,None,883.9473973094919,None,884.9304975050163,None,884.9304975050163,None,c,,,,,,,,,,,,,,,,,,,,,,,,,,,,,,,,,,,,,,,,,,,,,,,9_10Exp,001,2021_Apr_27_1033,ComputerHuman,2020.1.3,60.0275561136494,
Computer.xlsx,c,Sychronize.jpg,Number7.jpg,7,Computer,,,,,0,3,3,3,0,3,3,2,,,,,,,,,,,,,,,,,,,,,,,,,,,,,885.9803657384464,None,885.9803657384464,None,886.4138439107483,None,886.4138439107483,None,v,5.89272549085581,886.4138439107483,None,t,5.924148650015013,886.4138439107483,None,5.89272549085581,5.924148650015013,6.9963793145410715,False,False,False,892.4140514651517,None,892.4140514651517,None,892.4140514651517,None,892.4140514651517,None,892.4140514651517,None,892.4140514651517,None,892.4140514651517,None,892.4140514651517,None,893.4121780220103,None,893.4121780220103,None,894.4120881993931,None,894.4120881993931,None,c,,,,,,,,,,,,,,,,,,,,,,,,,,,,,,,,,,,,,,,,,,,,,,,9_10Exp,001,2021_Apr_27_1033,ComputerHuman,2020.1.3,60.0275561136494,
Computer.xlsx,c,Sychronize.jpg,Number10.jpg,10,Computer,,,,,0,3,3,3,0,4,4,9,,,,,,,,,,,,,,,,,,,,,,,,,,,,,895.4621877260606,None,895.4621877260606,None,895.9121749744572,None,895.9121749744572,None,v,8.538550102574845,895.9121749744572,None,t,8.53757231923646,895.9121749744572,None,8.538550102574845,8.53757231923646,10.507619838396844,False,False,False,904.5434534550432,None,904.5434534550432,None,904.5434534550432,None,904.5434534550432,None,904.5434534550432,None,904.5434534550432,None,904.5434534550432,None,904.5434534550432,None,905.5432850376374,None,905.5432850376374,None,906.5264278989043,None,906.5264278989043,None,c,,,,,,,,,,,,,,,,,,,,,,,,,,,,,,,,,,,,,,,,,,,,,,,9_10Exp,001,2021_Apr_27_1033,ComputerHuman,2020.1.3,60.0275561136494,
Computer.xlsx,c,Sychronize.jpg,Number8.jpg,8,Computer,,,,,0,3,3,3,0,5,5,4,,,,,,,,,,,,,,,,,,,,,,,,,,,,,907.5928761041368,None,907.5928761041368,None,908.026356842799,None,908.026356842799,None,v,8.723679326843921,908.026356842799,None,t,7.6670692644647715,908.026356842799,None,8.723679326843921,7.6670692644647715,7.503318185466427,False,False,True,916.8076875327815,None,916.8076875327815,None,916.8076875327815,None,916.8076875327815,None,916.8076875327815,None,916.8076875327815,None,916.8076875327815,None,916.8076875327815,None,917.841070749746,None,917.841070749746,None,918.8240493639432,None,918.8240493639432,None,c,,,,,,,,,,,,,,,,,,,,,,,,,,,,,,,,,,,,,,,,,,,,,,,9_10Exp,001,2021_Apr_27_1033,ComputerHuman,2020.1.3,60.0275561136494,
Computer.xlsx,c,Sychronize.jpg,Number9.jpg,9,Computer,,,,,0,3,3,3,0,6,6,6,,,,,,,,,,,,,,,,,,,,,,,,,,,,,919.8578332539364,None,919.8578332539364,None,920.3077229806349,None,920.3077229806349,None,v,8.806030626304164,920.3077229806349,None,t,8.133036918698963,920.3077229806349,None,8.806030626304164,8.133036918698963,8.947459770377016,False,True,False,929.2054477416832,None,929.2054477416832,None,929.2054477416832,None,929.2054477416832,None,929.2054477416832,None,929.2054477416832,None,929.2054477416832,None,929.2054477416832,None,930.2052834946135,None,930.2052834946135,None,931.188399729891,None,931.188399729891,None,c,,,,,,,,,,,,,,,,,,,,,,,,,,,,,,,,,,,,,,,,,,,,,,,9_10Exp,001,2021_Apr_27_1033,ComputerHuman,2020.1.3,60.0275561136494,
Computer.xlsx,c,Sychronize.jpg,Number8.jpg,8,Computer,,,,,0,3,3,3,0,7,7,5,,,,,,,,,,,,,,,,,,,,,,,,,,,,,932.238392752598,None,932.238392752598,None,932.6885237171809,None,932.6885237171809,None,v,8.11683612665638,932.6885237171809,None,t,6.868111527610381,932.6885237171809,None,8.11683612665638,6.868111527610381,8.453231790313565,False,False,False,940.9031939959996,None,940.9031939959996,None,940.9031939959996,None,940.9031939959996,None,940.9031939959996,None,940.9031939959996,None,940.9031939959996,None,940.9031939959996,None,941.8862204086608,None,941.8862204086608,None,942.8695082692948,None,942.8695082692948,None,c,,,,,,,,,,,,,,,,,,,,,,,,,,,,,,,,,,,,,,,,,,,,,,,9_10Exp,001,2021_Apr_27_1033,ComputerHuman,2020.1.3,60.0275561136494,
Computer.xlsx,c,Sychronize.jpg,Number10.jpg,10,Computer,,,,,0,3,3,3,0,8,8,8,,,,,,,,,,,,,,,,,,,,,,,,,,,,,943.936094737197,None,943.936094737197,None,944.386235646426,None,944.386235646426,None,v,12.68688830397241,944.386235646426,None,t,9.038085751726612,944.386235646426,None,12.68688830397241,9.038085751726612,10.4419177905081,False,False,False,957.1667572912711,None,957.1667572912711,None,957.1667572912711,None,957.1667572912711,None,957.1667572912711,None,957.1667572912711,None,957.1667572912711,None,957.1667572912711,None,958.1498587699753,None,958.1498587699753,None,959.1330725269509,None,959.1330725269509,None,c,,,,,,,,,,,,,,,,,,,,,,,,,,,,,,,,,,,,,,,,,,,,,,,9_10Exp,001,2021_Apr_27_1033,ComputerHuman,2020.1.3,60.0275561136494,
Computer.xlsx,c,Sychronize.jpg,Number6.jpg,6,Computer,,,,,0,3,3,3,0,9,9,1,,,,,,,,,,,,,,,,,,,,,,,,,,,,,960.2166912876874,None,960.2166912876874,None,960.6499436202685,None,960.6499436202685,None,v,6.039451055496102,960.6499436202685,None,t,5.266141845951097,960.6499436202685,None,6.039451055496102,5.266141845951097,5.709914387419259,False,False,False,966.7663376913342,None,966.7663376913342,None,966.7663376913342,None,966.7663376913342,None,966.7663376913342,None,966.7663376913342,None,966.7663376913342,None,966.7663376913342,None,967.7813839419614,None,967.7813839419614,None,968.7645890374706,None,968.7645890374706,None,c,,,,,,,,,,,,,,,,,,,,,,,,,,,,,,,,,,,,,,,,,,,,,,,9_10Exp,001,2021_Apr_27_1033,ComputerHuman,2020.1.3,60.0275561136494,
Computer.xlsx,c,,,,,,,,,0,3,3,3,,,,,,,,,,,,,,,,,,,,,,,,,,,,,,,,,,,,,,,,,,,,,,,,,,,,,,,,,,,,,,,,,,,,,,,,,,,,,,,c,969.7657929813249,None,969.7657929813249,None,q,0,3.194929192511154,969.7657929813249,None,o,0,3.1902093348153358,969.7657929813249,None,h,h,973.0639091123439,None,973.0639091123439,None,975.0467966207452,None,None,None,None,None,None,None,None,,,,,,,,,,,,,,,,,,9_10Exp,001,2021_Apr_27_1033,ComputerHuman,2020.1.3,60.0275561136494,
Human.xlsx,h,Sychronize.jpg,Number7.jpg,7,Human,,,,,0,4,4,2,0,0,0,2,,,,,,,,,,,,,,,,,,,,,,,,,980.0655451671428,None,980.0655451671428,None,983.14527332541,None,983.14527332541,None,983.5788169399038,None,983.5788169399038,None,v,7.057548708719878,983.5788169399038,None,t,6.109138970023196,983.5788169399038,None,7.057548708719878,6.109138970023196,6.760080787997261,False,False,False,990.7119093561487,None,990.7119093561487,None,990.7119093561487,None,990.7119093561487,None,990.7119093561487,None,990.7119093561487,None,990.7119093561487,None,990.7119093561487,None,991.6954785540483,None,991.6954785540483,None,992.6933734968743,None,992.6933734968743,None,h,,,,,,,,,,,,,,,,,,,,,,,,,,,,,,,,,,,,,,,,,,,,,,,9_10Exp,001,2021_Apr_27_1033,ComputerHuman,2020.1.3,60.0275561136494,
Human.xlsx,h,Sychronize.jpg,Number7.jpg,7,Human,,,,,0,4,4,2,0,1,1,3,,,,,,,,,,,,,,,,,,,,,,,,,,,,,993.7607763882006,None,993.7607763882006,None,994.2099844253999,None,994.2099844253999,None,v,6.534153606297878,994.2099844253999,None,t,6.097246776411339,994.2099844253999,None,6.534153606297878,6.097246776411339,7.0653048990503695,False,False,False,1000.8418242973385,None,1000.8418242973385,None,1000.8418242973385,None,1000.8418242973385,None,1000.8418242973385,None,1000.8418242973385,None,1000.8418242973385,None,1000.8418242973385,None,1001.8275351230486,None,1001.8275351230486,None,1002.8248176681091,None,1002.8248176681091,None,h,,,,,,,,,,,,,,,,,,,,,,,,,,,,,,,,,,,,,,,,,,,,,,,9_10Exp,001,2021_Apr_27_1033,ComputerHuman,2020.1.3,60.0275561136494,
Human.xlsx,h,Sychronize.jpg,Number9.jpg,9,Human,,,,,0,4,4,2,0,2,2,7,,,,,,,,,,,,,,,,,,,,,,,,,,,,,1003.8747901599327,None,1003.8747901599327,None,1004.3080447380789,None,1004.3080447380789,None,v,8.336045013962575,1004.3080447380789,None,t,7.419114252764302,1004.3080447380789,None,8.336045013962575,7.419114252764302,9.240263136243403,False,False,False,1012.7245220554623,None,1012.7245220554623,None,1012.7245220554623,None,1012.7245220554623,None,1012.7245220554623,None,1012.7245220554623,None,1012.7245220554623,None,1012.7245220554623,None,1013.7253025498394,None,1013.7253025498394,None,1014.7225315221249,None,1014.7225315221249,None,h,,,,,,,,,,,,,,,,,,,,,,,,,,,,,,,,,,,,,,,,,,,,,,,9_10Exp,001,2021_Apr_27_1033,ComputerHuman,2020.1.3,60.0275561136494,
Human.xlsx,h,Sychronize.jpg,Number8.jpg,8,Human,,,,,0,4,4,2,0,3,3,5,,,,,,,,,,,,,,,,,,,,,,,,,,,,,1015.7731209028461,None,1015.7731209028461,None,1016.222334072766,None,1016.222334072766,None,v,8.325338478885897,1016.222334072766,None,t,7.949049083247701,1016.222334072766,None,8.325338478885897,7.949049083247701,8.485029266522004,False,False,False,1024.622249382871,None,1024.622249382871,None,1024.622249382871,None,1024.622249382871,None,1024.622249382871,None,1024.622249382871,None,1024.622249382871,None,1024.622249382871,None,1025.6060463452623,None,1025.6060463452623,None,1026.6036557804864,None,1026.6036557804864,None,h,,,,,,,,,,,,,,,,,,,,,,,,,,,,,,,,,,,,,,,,,,,,,,,9_10Exp,001,2021_Apr_27_1033,ComputerHuman,2020.1.3,60.0275561136494,
Human.xlsx,h,Sychronize.jpg,Number6.jpg,6,Human,,,,,0,4,4,2,0,4,4,0,,,,,,,,,,,,,,,,,,,,,,,,,,,,,1027.6702810645902,None,1027.6702810645902,None,1028.1202962221569,None,1028.1202962221569,None,v,5.719183384098869,1028.1202962221569,None,t,6.338554914500492,1028.1202962221569,None,5.719183384098869,6.338554914500492,5.803049002649589,False,False,False,1034.5520311941118,None,1034.5520311941118,None,1034.5520311941118,None,1034.5520311941118,None,1034.5520311941118,None,1034.5520311941118,None,1034.5520311941118,None,1034.5520311941118,None,1035.5377843647693,None,1035.5377843647693,None,1036.5183364851446,None,1036.5183364851446,None,h,,,,,,,,,,,,,,,,,,,,,,,,,,,,,,,,,,,,,,,,,,,,,,,9_10Exp,001,2021_Apr_27_1033,ComputerHuman,2020.1.3,60.0275561136494,
Human.xlsx,h,Sychronize.jpg,Number10.jpg,10,Human,,,,,0,4,4,2,0,5,5,8,,,,,,,,,,,,,,,,,,,,,,,,,,,,,1037.5854442450172,None,1037.5854442450172,None,1038.018477474573,None,1038.018477474573,None,v,12.008617196860541,1038.018477474573,None,t,10.388053271227363,1038.018477474573,None,12.008617196860541,10.388053271227363,9.698128916410017,False,False,False,1050.100621540426,None,1050.100621540426,None,1050.100621540426,None,1050.100621540426,None,1050.100621540426,None,1050.100621540426,None,1050.100621540426,None,1050.100621540426,None,1051.1014831959528,None,1051.1014831959528,None,1052.0987776104294,None,1052.0987776104294,None,h,,,,,,,,,,,,,,,,,,,,,,,,,,,,,,,,,,,,,,,,,,,,,,,9_10Exp,001,2021_Apr_27_1033,ComputerHuman,2020.1.3,60.0275561136494,
Human.xlsx,h,Sychronize.jpg,Number9.jpg,9,Human,,,,,0,4,4,2,0,6,6,6,,,,,,,,,,,,,,,,,,,,,,,,,,,,,1053.1488132988798,None,1053.1488132988798,None,1053.5823594797348,None,1053.5823594797348,None,v,8.920471055464077,1053.5823594797348,None,t,9.508081629510343,1053.5823594797348,None,8.920471055464077,9.508081629510343,8.932457329795751,False,False,False,1063.1798951320952,None,1063.1798951320952,None,1063.1798951320952,None,1063.1798951320952,None,1063.1798951320952,None,1063.1798951320952,None,1063.1798951320952,None,1063.1798951320952,None,1064.1651911697954,None,1064.1651911697954,None,1065.1628734254982,None,1065.1628734254982,None,h,,,,,,,,,,,,,,,,,,,,,,,,,,,,,,,,,,,,,,,,,,,,,,,9_10Exp,001,2021_Apr_27_1033,ComputerHuman,2020.1.3,60.0275561136494,
Human.xlsx,h,Sychronize.jpg,Number8.jpg,8,Human,,,,,0,4,4,2,0,7,7,4,,,,,,,,,,,,,,,,,,,,,,,,,,,,,1066.2127252983792,None,1066.2127252983792,None,1066.6627718938616,None,1066.6627718938616,None,v,8.843776976859772,1066.6627718938616,None,t,8.631085682755838,1066.6627718938616,None,8.843776976859772,8.631085682755838,7.715951190985197,True,False,False,1075.594274129001,None,1075.594274129001,None,1075.594274129001,None,1075.594274129001,None,1075.594274129001,None,1075.594274129001,None,1075.594274129001,None,1075.594274129001,None,1076.5625991457227,None,1076.5625991457227,None,1077.5771985288338,None,1077.5771985288338,None,h,,,,,,,,,,,,,,,,,,,,,,,,,,,,,,,,,,,,,,,,,,,,,,,9_10Exp,001,2021_Apr_27_1033,ComputerHuman,2020.1.3,60.0275561136494,
Human.xlsx,h,Sychronize.jpg,Number6.jpg,6,Human,,,,,0,4,4,2,0,8,8,1,,,,,,,,,,,,,,,,,,,,,,,,,,,,,1078.6272624472494,None,1078.6272624472494,None,1079.0772913990031,None,1079.0772913990031,None,v,7.005236979329311,1079.0772913990031,None,t,5.33208511976045,1079.0772913990031,None,7.005236979329311,5.33208511976045,6.15589879358177,False,False,False,1086.1755291113495,None,1086.1755291113495,None,1086.1755291113495,None,1086.1755291113495,None,1086.1755291113495,None,1086.1755291113495,None,1086.1755291113495,None,1086.1755291113495,None,1087.1443484732563,None,1087.1443484732563,None,1088.1418860503873,None,1088.1418860503873,None,h,,,,,,,,,,,,,,,,,,,,,,,,,,,,,,,,,,,,,,,,,,,,,,,9_10Exp,001,2021_Apr_27_1033,ComputerHuman,2020.1.3,60.0275561136494,
Human.xlsx,h,Sychronize.jpg,Number10.jpg,10,Human,,,,,0,4,4,2,0,9,9,9,,,,,,,,,,,,,,,,,,,,,,,,,,,,,1089.208801333224,None,1089.208801333224,None,1089.6421059553995,None,1089.6421059553995,None,v,7.027948627879596,1089.6421059553995,None,t,9.451019887689654,1089.6421059553995,None,7.027948627879596,9.451019887689654,9.425013479231051,False,False,False,1099.189762146504,None,1099.189762146504,None,1099.189762146504,None,1099.189762146504,None,1099.189762146504,None,1099.189762146504,None,1099.189762146504,None,1099.189762146504,None,1100.175367109845,None,1100.175367109845,None,1101.172751988528,None,1101.172751988528,None,h,,,,,,,,,,,,,,,,,,,,,,,,,,,,,,,,,,,,,,,,,,,,,,,9_10Exp,001,2021_Apr_27_1033,ComputerHuman,2020.1.3,60.0275561136494,
Human.xlsx,h,,,,,,,,,0,4,4,2,,,,,,,,,,,,,,,,,,,,,,,,,,,,,,,,,,,,,,,,,,,,,,,,,,,,,,,,,,,,,,,,,,,,,,,,,,,,,,,h,1102.1738693177167,None,1102.1738693177167,None,q,1,2.8480621572507516,1102.1738693177167,None,o,1,2.8391947402442383,1102.1738693177167,None,h,h,1105.1223246093114,None,1105.1223246093114,None,None,None,1107.1048329379537,None,1107.1048329379537,None,"['space', 'space']",1108.0880925686224,None,"[4.281686612100202, 5.697618577883986]",,,,,,,,,,,,,,,,,9_10Exp,001,2021_Apr_27_1033,ComputerHuman,2020.1.3,60.0275561136494,
Human.xlsx,h,Sychronize.jpg,Number6.jpg,6,Human,,,,,0,5,5,6,0,0,0,0,,,,,,,,,,,,,,,,,,,,,,,,,1113.8393820845586,None,1113.8393820845586,None,1116.9037778430065,None,1116.9037778430065,None,1117.3533057128789,None,1117.3533057128789,None,v,5.488210621203507,1117.3533057128789,None,t,4.903174748295896,1117.3533057128789,None,5.488210621203507,4.903174748295896,5.761396407344129,False,False,False,1122.9198172751348,None,1122.9198172751348,None,1122.9198172751348,None,1122.9198172751348,None,1122.9198172751348,None,1122.9198172751348,None,1122.9198172751348,None,1122.9198172751348,None,1123.9035943482331,None,1123.9035943482331,None,1124.901490895034,None,1124.901490895034,None,h,,,,,,,,,,,,,,,,,,,,,,,,,,,,,,,,,,,,,,,,,,,,,,,9_10Exp,001,2021_Apr_27_1033,ComputerHuman,2020.1.3,60.0275561136494,
Human.xlsx,h,Sychronize.jpg,Number10.jpg,10,Human,,,,,0,5,5,6,0,1,1,8,,,,,,,,,,,,,,,,,,,,,,,,,,,,,1125.9682351941055,None,1125.9682351941055,None,1126.401593389056,None,1126.401593389056,None,v,6.8197346704073425,1126.401593389056,None,t,8.763104077144817,1126.401593389056,None,6.8197346704073425,8.763104077144817,10.082934726647192,False,False,False,1135.2495779139017,None,1135.2495779139017,None,1135.2495779139017,None,1135.2495779139017,None,1135.2495779139017,None,1135.2495779139017,None,1135.2495779139017,None,1135.2495779139017,None,1136.2355854750413,None,1136.2355854750413,None,1137.215902131844,None,1137.215902131844,None,h,,,,,,,,,,,,,,,,,,,,,,,,,,,,,,,,,,,,,,,,,,,,,,,9_10Exp,001,2021_Apr_27_1033,ComputerHuman,2020.1.3,60.0275561136494,
Human.xlsx,h,Sychronize.jpg,Number9.jpg,9,Human,,,,,0,5,5,6,0,2,2,6,,,,,,,,,,,,,,,,,,,,,,,,,,,,,1138.2658486392675,None,1138.2658486392675,None,1138.7160379885509,None,1138.7160379885509,None,v,7.932939717797126,1138.7160379885509,None,t,8.348062317648328,1138.7160379885509,None,7.932939717797126,8.348062317648328,8.716480441947278,False,False,False,1147.147298504614,None,1147.147298504614,None,1147.147298504614,None,1147.147298504614,None,1147.147298504614,None,1147.147298504614,None,1147.147298504614,None,1147.147298504614,None,1148.131714280673,None,1148.131714280673,None,1149.1302931585642,None,1149.1302931585642,None,h,,,,,,,,,,,,,,,,,,,,,,,,,,,,,,,,,,,,,,,,,,,,,,,9_10Exp,001,2021_Apr_27_1033,ComputerHuman,2020.1.3,60.0275561136494,
Human.xlsx,h,Sychronize.jpg,Number6.jpg,6,Human,,,,,0,5,5,6,0,3,3,1,,,,,,,,,,,,,,,,,,,,,,,,,,,,,1150.179841238526,None,1150.179841238526,None,1150.6305765809984,None,1150.6305765809984,None,v,7.61021058591632,1150.6305765809984,None,t,5.517111368816586,1150.6305765809984,None,7.61021058591632,5.517111368816586,6.37532179113798,False,False,False,1158.3284829120494,None,1158.3284829120494,None,1158.3284829120494,None,1158.3284829120494,None,1158.3284829120494,None,1158.3284829120494,None,1158.3284829120494,None,1158.3284829120494,None,1159.297137064501,None,1159.297137064501,None,1160.2947914110327,None,1160.2947914110327,None,h,,,,,,,,,,,,,,,,,,,,,,,,,,,,,,,,,,,,,,,,,,,,,,,9_10Exp,001,2021_Apr_27_1033,ComputerHuman,2020.1.3,60.0275561136494,
Human.xlsx,h,Sychronize.jpg,Number7.jpg,7,Human,,,,,0,5,5,6,0,4,4,3,,,,,,,,,,,,,,,,,,,,,,,,,,,,,1161.3621554861566,None,1161.3621554861566,None,1161.81151910896,None,1161.81151910896,None,v,6.72903179239438,1161.81151910896,None,t,7.472135580823306,1161.81151910896,None,6.72903179239438,7.472135580823306,7.134953412343499,False,False,False,1169.360254133845,None,1169.360254133845,None,1169.360254133845,None,1169.360254133845,None,1169.360254133845,None,1169.360254133845,None,1169.360254133845,None,1169.360254133845,None,1170.3444023668262,None,1170.3444023668262,None,1171.342700228246,None,1171.342700228246,None,h,,,,,,,,,,,,,,,,,,,,,,,,,,,,,,,,,,,,,,,,,,,,,,,9_10Exp,001,2021_Apr_27_1033,ComputerHuman,2020.1.3,60.0275561136494,
Human.xlsx,h,Sychronize.jpg,Number9.jpg,9,Human,,,,,0,5,5,6,0,5,5,7,,,,,,,,,,,,,,,,,,,,,,,,,,,,,1172.409613907107,None,1172.409613907107,None,1172.8429624782057,None,1172.8429624782057,None,v,7.597333230678487,1172.8429624782057,None,t,8.48415609245967,1172.8429624782057,None,7.597333230678487,8.48415609245967,8.922212571919529,False,False,False,1181.4087326830822,None,1181.4087326830822,None,1181.4087326830822,None,1181.4087326830822,None,1181.4087326830822,None,1181.4087326830822,None,1181.4087326830822,None,1181.4087326830822,None,1182.4096761413484,None,1182.4096761413484,None,1183.4071226126835,None,1183.4071226126835,None,h,,,,,,,,,,,,,,,,,,,,,,,,,,,,,,,,,,,,,,,,,,,,,,,9_10Exp,001,2021_Apr_27_1033,ComputerHuman,2020.1.3,60.0275561136494,
Human.xlsx,h,Sychronize.jpg,Number10.jpg,10,Human,,,,,0,5,5,6,0,6,6,9,,,,,,,,,,,,,,,,,,,,,,,,,,,,,1184.457001753145,None,1184.457001753145,None,1184.9073235907872,None,1184.9073235907872,None,v,8.205181160989014,1184.9073235907872,None,t,8.95999011951244,1184.9073235907872,None,8.205181160989014,8.95999011951244,9.833510743592901,False,False,False,1193.9550007939679,None,1193.9550007939679,None,1193.9550007939679,None,1193.9550007939679,None,1193.9550007939679,None,1193.9550007939679,None,1193.9550007939679,None,1193.9550007939679,None,1194.9404193753799,None,1194.9404193753799,None,1195.9379784457797,None,1195.9379784457797,None,h,,,,,,,,,,,,,,,,,,,,,,,,,,,,,,,,,,,,,,,,,,,,,,,9_10Exp,001,2021_Apr_27_1033,ComputerHuman,2020.1.3,60.0275561136494,
Human.xlsx,h,Sychronize.jpg,Number7.jpg,7,Human,,,,,0,5,5,6,0,7,7,2,,,,,,,,,,,,,,,,,,,,,,,,,,,,,1196.9883509690417,None,1196.9883509690417,None,1197.4379227878371,None,1197.4379227878371,None,v,4.661879121214042,1197.4379227878371,None,t,6.921516205764419,1197.4379227878371,None,4.661879121214042,6.921516205764419,6.818842733439622,False,False,False,1204.452980587087,None,1204.452980587087,None,1204.452980587087,None,1204.452980587087,None,1204.452980587087,None,1204.452980587087,None,1204.452980587087,None,1204.452980587087,None,1205.4215478040778,None,1205.4215478040778,None,1206.4193586985984,None,1206.4193586985984,None,h,,,,,,,,,,,,,,,,,,,,,,,,,,,,,,,,,,,,,,,,,,,,,,,9_10Exp,001,2021_Apr_27_1033,ComputerHuman,2020.1.3,60.0275561136494,
Human.xlsx,h,Sychronize.jpg,Number8.jpg,8,Human,,,,,0,5,5,6,0,8,8,4,,,,,,,,,,,,,,,,,,,,,,,,,,,,,1207.4864488147423,None,1207.4864488147423,None,1207.9192189923506,None,1207.9192189923506,None,v,6.992306051317428,1207.9192189923506,None,t,8.179121374414535,1207.9192189923506,None,6.992306051317428,8.179121374414535,8.019223821704955,False,False,False,1216.1689149588337,None,1216.1689149588337,None,1216.1689149588337,None,1216.1689149588337,None,1216.1689149588337,None,1216.1689149588337,None,1216.1689149588337,None,1216.1689149588337,None,1217.151504448626,None,1217.151504448626,None,1218.1670960508527,None,1218.1670960508527,None,h,,,,,,,,,,,,,,,,,,,,,,,,,,,,,,,,,,,,,,,,,,,,,,,9_10Exp,001,2021_Apr_27_1033,ComputerHuman,2020.1.3,60.0275561136494,
Human.xlsx,h,Sychronize.jpg,Number8.jpg,8,Human,,,,,0,5,5,6,0,9,9,5,,,,,,,,,,,,,,,,,,,,,,,,,,,,,1219.200099446468,None,1219.200099446468,None,1219.650655785298,None,1219.650655785298,None,v,6.316586548101441,1219.650655785298,None,t,7.2480871792658945,1219.650655785298,None,6.316586548101441,7.2480871792658945,7.932222209636905,False,False,False,1226.9820851999593,None,1226.9820851999593,None,1226.9820851999593,None,1226.9820851999593,None,1226.9820851999593,None,1226.9820851999593,None,1226.9820851999593,None,1226.9820851999593,None,1227.9676099645358,None,1227.9676099645358,None,1228.96496757564,None,1228.96496757564,None,h,,,,,,,,,,,,,,,,,,,,,,,,,,,,,,,,,,,,,,,,,,,,,,,9_10Exp,001,2021_Apr_27_1033,ComputerHuman,2020.1.3,60.0275561136494,
Human.xlsx,h,,,,,,,,,0,5,5,6,,,,,,,,,,,,,,,,,,,,,,,,,,,,,,,,,,,,,,,,,,,,,,,,,,,,,,,,,,,,,,,,,,,,,,,,,,,,,,,h,1229.9656053162162,None,1229.9656053162162,None,q,1,3.4535852857716236,1229.9656053162162,None,o,0,2.62517278823816,1229.9656053162162,None,h,h,1233.5143403411012,None,1233.5143403411012,None,1235.5138212946968,None,None,None,None,None,None,None,None,,,,,,,,,,,,,,,,,,9_10Exp,001,2021_Apr_27_1033,ComputerHuman,2020.1.3,60.0275561136494,
Computer.xlsx,c,Sychronize.jpg,Number10.jpg,10,Computer,,,,,0,6,6,7,0,0,0,8,,,,,,,,,,,,,,,,,,,,,,,,,1240.4987189049343,None,1240.4987189049343,None,1243.5797648893022,None,1243.5797648893022,None,1244.0294059998305,None,1244.0294059998305,None,v,9.449311654003395,1244.0294059998305,None,t,9.420534733282693,1244.0294059998305,None,9.449311654003395,9.420534733282693,10.679130980922903,False,False,False,1253.5770872129488,None,1253.5770872129488,None,1253.5770872129488,None,1253.5770872129488,None,1253.5770872129488,None,1253.5770872129488,None,1253.5770872129488,None,1253.5770872129488,None,1254.5768042717073,None,1254.5768042717073,None,1255.5433918623921,None,1255.5433918623921,None,c,,,,,,,,,,,,,,,,,,,,,,,,,,,,,,,,,,,,,,,,,,,,,,,9_10Exp,001,2021_Apr_27_1033,ComputerHuman,2020.1.3,60.0275561136494,
Computer.xlsx,c,Sychronize.jpg,Number6.jpg,6,Computer,,,,,0,6,6,7,0,1,1,0,,,,,,,,,,,,,,,,,,,,,,,,,,,,,1256.610352698127,None,1256.610352698127,None,1257.043454257031,None,1257.043454257031,None,v,4.111100952601191,1257.043454257031,None,t,4.722185384255681,1257.043454257031,None,4.111100952601191,4.722185384255681,6.146546482930737,False,False,False,1261.858819377946,None,1261.858819377946,None,1261.858819377946,None,1261.858819377946,None,1261.858819377946,None,1261.858819377946,None,1261.858819377946,None,1261.858819377946,None,1262.858585197554,None,1262.858585197554,None,1263.8417476273198,None,1263.8417476273198,None,c,,,,,,,,,,,,,,,,,,,,,,,,,,,,,,,,,,,,,,,,,,,,,,,9_10Exp,001,2021_Apr_27_1033,ComputerHuman,2020.1.3,60.0275561136494,
Computer.xlsx,c,Sychronize.jpg,Number8.jpg,8,Computer,,,,,0,6,6,7,0,2,2,4,,,,,,,,,,,,,,,,,,,,,,,,,,,,,1264.891381680357,None,1264.891381680357,None,1265.3420178971564,None,1265.3420178971564,None,v,7.7962325828329995,1265.3420178971564,None,t,8.215085708419792,1265.3420178971564,None,7.7962325828329995,8.215085708419792,8.0403918333397,False,True,True,1273.6565744541276,None,1273.6565744541276,None,1273.6565744541276,None,1273.6565744541276,None,1273.6565744541276,None,1273.6565744541276,None,1273.6565744541276,None,1273.6565744541276,None,1274.6395351038018,None,1274.6395351038018,None,1275.6232252414384,None,1275.6232252414384,None,c,,,,,,,,,,,,,,,,,,,,,,,,,,,,,,,,,,,,,,,,,,,,,,,9_10Exp,001,2021_Apr_27_1033,ComputerHuman,2020.1.3,60.0275561136494,
Computer.xlsx,c,Sychronize.jpg,Number8.jpg,8,Computer,,,,,0,6,6,7,0,3,3,5,,,,,,,,,,,,,,,,,,,,,,,,,,,,,1276.7063409955235,None,1276.7063409955235,None,1277.1226563114024,None,1277.1226563114024,None,v,8.427241916365347,1277.1226563114024,None,t,9.359036395802832,1277.1226563114024,None,8.427241916365347,9.359036395802832,8.099942583819432,False,False,False,1286.555339874345,None,1286.555339874345,None,1286.555339874345,None,1286.555339874345,None,1286.555339874345,None,1286.555339874345,None,1286.555339874345,None,1286.555339874345,None,1287.553798774884,None,1287.553798774884,None,1288.5370240804814,None,1288.5370240804814,None,c,,,,,,,,,,,,,,,,,,,,,,,,,,,,,,,,,,,,,,,,,,,,,,,9_10Exp,001,2021_Apr_27_1033,ComputerHuman,2020.1.3,60.0275561136494,
Computer.xlsx,c,Sychronize.jpg,Number10.jpg,10,Computer,,,,,0,6,6,7,0,4,4,9,,,,,,,,,,,,,,,,,,,,,,,,,,,,,1289.603642948684,None,1289.603642948684,None,1290.0370159002068,None,1290.0370159002068,None,v,10.212643816435047,1290.0370159002068,None,t,10.327958412128282,1290.0370159002068,None,10.212643816435047,10.327958412128282,10.253864237570529,False,True,True,1300.4362889786044,None,1300.4362889786044,None,1300.4362889786044,None,1300.4362889786044,None,1300.4362889786044,None,1300.4362889786044,None,1300.4362889786044,None,1300.4362889786044,None,1301.4512126855197,None,1301.4512126855197,None,1302.4343956461698,None,1302.4343956461698,None,c,,,,,,,,,,,,,,,,,,,,,,,,,,,,,,,,,,,,,,,,,,,,,,,9_10Exp,001,2021_Apr_27_1033,ComputerHuman,2020.1.3,60.0275561136494,
Computer.xlsx,c,Sychronize.jpg,Number7.jpg,7,Computer,,,,,0,6,6,7,0,5,5,2,,,,,,,,,,,,,,,,,,,,,,,,,,,,,1303.4843623636825,None,1303.4843623636825,None,1303.917869728335,None,1303.917869728335,None,v,6.715557437552889,1303.917869728335,None,t,6.8750471167741125,1303.917869728335,None,6.715557437552889,6.8750471167741125,6.917726330782524,False,True,True,1310.8828154899102,None,1310.8828154899102,None,1310.8828154899102,None,1310.8828154899102,None,1310.8828154899102,None,1310.8828154899102,None,1310.8828154899102,None,1310.8828154899102,None,1311.8824501043391,None,1311.8824501043391,None,1312.8657921793374,None,1312.8657921793374,None,c,,,,,,,,,,,,,,,,,,,,,,,,,,,,,,,,,,,,,,,,,,,,,,,9_10Exp,001,2021_Apr_27_1033,ComputerHuman,2020.1.3,60.0275561136494,
Computer.xlsx,c,Sychronize.jpg,Number9.jpg,9,Computer,,,,,0,6,6,7,0,6,6,6,,,,,,,,,,,,,,,,,,,,,,,,,,,,,1313.9157996378226,None,1313.9157996378226,None,1314.3659562660096,None,1314.3659562660096,None,v,10.855236738733765,1314.3659562660096,None,t,7.782065952255834,1314.3659562660096,None,10.855236738733765,7.782065952255834,9.170148215151952,False,False,False,1325.3132451467718,None,1325.3132451467718,None,1325.3132451467718,None,1325.3132451467718,None,1325.3132451467718,None,1325.3132451467718,None,1325.3132451467718,None,1325.3132451467718,None,1326.2964662820332,None,1326.2964662820332,None,1327.2963742138518,None,1327.2963742138518,None,c,,,,,,,,,,,,,,,,,,,,,,,,,,,,,,,,,,,,,,,,,,,,,,,9_10Exp,001,2021_Apr_27_1033,ComputerHuman,2020.1.3,60.0275561136494,
Computer.xlsx,c,Sychronize.jpg,Number6.jpg,6,Computer,,,,,0,6,6,7,0,7,7,1,,,,,,,,,,,,,,,,,,,,,,,,,,,,,1328.346661726423,None,1328.346661726423,None,1328.7966111210026,None,1328.7966111210026,None,v,5.860342192088865,1328.7966111210026,None,t,6.259120604506279,1328.7966111210026,None,5.860342192088865,6.259120604506279,5.906368689041443,False,True,False,1335.1448309490243,None,1335.1448309490243,None,1335.1448309490243,None,1335.1448309490243,None,1335.1448309490243,None,1335.1448309490243,None,1335.1448309490243,None,1335.1448309490243,None,1336.1446573988978,None,1336.1446573988978,None,1337.1111615828668,None,1337.1111615828668,None,c,,,,,,,,,,,,,,,,,,,,,,,,,,,,,,,,,,,,,,,,,,,,,,,9_10Exp,001,2021_Apr_27_1033,ComputerHuman,2020.1.3,60.0275561136494,
Computer.xlsx,c,Sychronize.jpg,Number7.jpg,7,Computer,,,,,0,6,6,7,0,8,8,3,,,,,,,,,,,,,,,,,,,,,,,,,,,,,1338.161869978555,None,1338.161869978555,None,1338.611371543233,None,1338.611371543233,None,v,8.185294433724266,1338.611371543233,None,t,5.868134304058913,1338.611371543233,None,8.185294433724266,5.868134304058913,6.969868955627513,False,False,False,1346.8925737547943,None,1346.8925737547943,None,1346.8925737547943,None,1346.8925737547943,None,1346.8925737547943,None,1346.8925737547943,None,1346.8925737547943,None,1346.8925737547943,None,1347.8923700499317,None,1347.8923700499317,None,1348.875620698339,None,1348.875620698339,None,c,,,,,,,,,,,,,,,,,,,,,,,,,,,,,,,,,,,,,,,,,,,,,,,9_10Exp,001,2021_Apr_27_1033,ComputerHuman,2020.1.3,60.0275561136494,
Computer.xlsx,c,Sychronize.jpg,Number9.jpg,9,Computer,,,,,0,6,6,7,0,9,9,7,,,,,,,,,,,,,,,,,,,,,,,,,,,,,1349.9255178033236,None,1349.9255178033236,None,1350.3758120525908,None,1350.3758120525908,None,v,9.964571072947365,1350.3758120525908,None,t,8.883980617562884,1350.3758120525908,None,9.964571072947365,8.883980617562884,9.190104498930618,False,False,False,1360.4233580505925,None,1360.4233580505925,None,1360.4233580505925,None,1360.4233580505925,None,1360.4233580505925,None,1360.4233580505925,None,1360.4233580505925,None,1360.4233580505925,None,1361.423101093751,None,1361.423101093751,None,1362.4063103595954,None,1362.4063103595954,None,c,,,,,,,,,,,,,,,,,,,,,,,,,,,,,,,,,,,,,,,,,,,,,,,9_10Exp,001,2021_Apr_27_1033,ComputerHuman,2020.1.3,60.0275561136494,
Computer.xlsx,c,,,,,,,,,0,6,6,7,,,,,,,,,,,,,,,,,,,,,,,,,,,,,,,,,,,,,,,,,,,,,,,,,,,,,,,,,,,,,,,,,,,,,,,,,,,,,,,c,1363.407207302579,None,1363.407207302579,None,a,0,5.593015329191076,1363.407207302579,None,l,1,11.768045925020488,1363.407207302579,None,c,c,1375.2706576779892,None,1375.2706576779892,None,1377.2701267621678,None,None,None,None,None,None,None,None,,,,,,,,,,,,,,,,,,9_10Exp,001,2021_Apr_27_1033,ComputerHuman,2020.1.3,60.0275561136494,
Human.xlsx,h,Sychronize.jpg,Number9.jpg,9,Human,,,,,0,7,7,4,0,0,0,7,,,,,,,,,,,,,,,,,,,,,,,,,1382.2719780704501,None,1382.2719780704501,None,1385.3359914411876,None,1385.3359914411876,None,1385.7857146752513,None,1385.7857146752513,None,v,7.961935420746158,1385.7857146752513,None,t,6.789144616015619,1385.7857146752513,None,7.961935420746158,6.789144616015619,8.675344318378395,False,False,False,1393.8336754612628,None,1393.8336754612628,None,1393.8336754612628,None,1393.8336754612628,None,1393.8336754612628,None,1393.8336754612628,None,1393.8336754612628,None,1393.8336754612628,None,1394.836050948671,None,1394.836050948671,None,1395.8333257946497,None,1395.8333257946497,None,h,,,,,,,,,,,,,,,,,,,,,,,,,,,,,,,,,,,,,,,,,,,,,,,9_10Exp,001,2021_Apr_27_1033,ComputerHuman,2020.1.3,60.0275561136494,
Human.xlsx,h,Sychronize.jpg,Number10.jpg,10,Human,,,,,0,7,7,4,0,1,1,8,,,,,,,,,,,,,,,,,,,,,,,,,,,,,1396.8836181191464,None,1396.8836181191464,None,1397.3331094183823,None,1397.3331094183823,None,v,8.298301229767276,1397.3331094183823,None,t,8.489041801200074,1397.3331094183823,None,8.298301229767276,8.489041801200074,9.5261290428358,True,False,False,1405.914809664272,None,1405.914809664272,None,1405.914809664272,None,1405.914809664272,None,1405.914809664272,None,1405.914809664272,None,1405.914809664272,None,1405.914809664272,None,1406.883428850062,None,1406.883428850062,None,1407.8810382852862,None,1407.8810382852862,None,h,,,,,,,,,,,,,,,,,,,,,,,,,,,,,,,,,,,,,,,,,,,,,,,9_10Exp,001,2021_Apr_27_1033,ComputerHuman,2020.1.3,60.0275561136494,
Human.xlsx,h,Sychronize.jpg,Number7.jpg,7,Human,,,,,0,7,7,4,0,2,2,2,,,,,,,,,,,,,,,,,,,,,,,,,,,,,1408.947788679463,None,1408.947788679463,None,1409.3811683676822,None,1409.3811683676822,None,v,5.8620103263929195,1409.3811683676822,None,t,6.005125984239385,1409.3811683676822,None,5.8620103263929195,6.005125984239385,6.500303788127632,True,False,False,1415.479565835968,None,1415.479565835968,None,1415.479565835968,None,1415.479565835968,None,1415.479565835968,None,1415.479565835968,None,1415.479565835968,None,1415.479565835968,None,1416.4641875624548,None,1416.4641875624548,None,1417.4625245608713,None,1417.4625245608713,None,h,,,,,,,,,,,,,,,,,,,,,,,,,,,,,,,,,,,,,,,,,,,,,,,9_10Exp,001,2021_Apr_27_1033,ComputerHuman,2020.1.3,60.0275561136494,
Human.xlsx,h,Sychronize.jpg,Number10.jpg,10,Human,,,,,0,7,7,4,0,3,3,9,,,,,,,,,,,,,,,,,,,,,,,,,,,,,1418.512930126024,None,1418.512930126024,None,1418.9628400628117,None,1418.9628400628117,None,v,8.328113676936482,1418.9628400628117,None,t,8.179092502859021,1418.9628400628117,None,8.328113676936482,8.179092502859021,9.897262941830002,True,False,False,1427.3772822563442,None,1427.3772822563442,None,1427.3772822563442,None,1427.3772822563442,None,1427.3772822563442,None,1427.3772822563442,None,1427.3772822563442,None,1427.3772822563442,None,1428.363385414411,None,1428.363385414411,None,1429.3602887797115,None,1429.3602887797115,None,h,,,,,,,,,,,,,,,,,,,,,,,,,,,,,,,,,,,,,,,,,,,,,,,9_10Exp,001,2021_Apr_27_1033,ComputerHuman,2020.1.3,60.0275561136494,
Human.xlsx,h,Sychronize.jpg,Number8.jpg,8,Human,,,,,0,7,7,4,0,4,4,5,,,,,,,,,,,,,,,,,,,,,,,,,,,,,1430.4107132717727,None,1430.4107132717727,None,1430.8604759636282,None,1430.8604759636282,None,v,7.834226587173362,1430.8604759636282,None,t,7.557085320257102,1430.8604759636282,None,7.834226587173362,7.557085320257102,8.5547065293164,True,False,False,1438.7767394711054,None,1438.7767394711054,None,1438.7767394711054,None,1438.7767394711054,None,1438.7767394711054,None,1438.7767394711054,None,1438.7767394711054,None,1438.7767394711054,None,1439.7611116190365,None,1439.7611116190365,None,1440.7580935791266,None,1440.7580935791266,None,h,,,,,,,,,,,,,,,,,,,,,,,,,,,,,,,,,,,,,,,,,,,,,,,9_10Exp,001,2021_Apr_27_1033,ComputerHuman,2020.1.3,60.0275561136494,
Human.xlsx,h,Sychronize.jpg,Number9.jpg,9,Human,,,,,0,7,7,4,0,5,5,6,,,,,,,,,,,,,,,,,,,,,,,,,,,,,1441.8085110136963,None,1441.8085110136963,None,1442.2583638489632,None,1442.2583638489632,None,v,6.880128510500072,1442.2583638489632,None,t,7.775103416307502,1442.2583638489632,None,6.880128510500072,7.775103416307502,8.894605886047914,False,False,False,1450.1229998829103,None,1450.1229998829103,None,1450.1229998829103,None,1450.1229998829103,None,1450.1229998829103,None,1450.1229998829103,None,1450.1229998829103,None,1450.1229998829103,None,1451.1088419137996,None,1451.1088419137996,None,1452.1059448136266,None,1452.1059448136266,None,h,,,,,,,,,,,,,,,,,,,,,,,,,,,,,,,,,,,,,,,,,,,,,,,9_10Exp,001,2021_Apr_27_1033,ComputerHuman,2020.1.3,60.0275561136494,
Human.xlsx,h,Sychronize.jpg,Number6.jpg,6,Human,,,,,0,7,7,4,0,6,6,1,,,,,,,,,,,,,,,,,,,,,,,,,,,,,1453.1564001020133,None,1453.1564001020133,None,1453.5892520823609,None,1453.5892520823609,None,v,6.1569560398493195,1453.5892520823609,None,t,5.016137595415785,1453.5892520823609,None,6.1569560398493195,5.016137595415785,6.155506196064606,False,False,False,1459.8047339726782,None,1459.8047339726782,None,1459.8047339726782,None,1459.8047339726782,None,1459.8047339726782,None,1459.8047339726782,None,1459.8047339726782,None,1459.8047339726782,None,1460.8237885575609,None,1460.8237885575609,None,1461.8207711592413,None,1461.8207711592413,None,h,,,,,,,,,,,,,,,,,,,,,,,,,,,,,,,,,,,,,,,,,,,,,,,9_10Exp,001,2021_Apr_27_1033,ComputerHuman,2020.1.3,60.0275561136494,
Human.xlsx,h,Sychronize.jpg,Number7.jpg,7,Human,,,,,0,7,7,4,0,7,7,3,,,,,,,,,,,,,,,,,,,,,,,,,,,,,1462.870628485639,None,1462.870628485639,None,1463.3210420706682,None,1463.3210420706682,None,v,6.2129784056805875,1463.3210420706682,None,t,6.160150196245922,1463.3210420706682,None,6.2129784056805875,6.160150196245922,7.278822885315724,True,False,False,1469.6192890860711,None,1469.6192890860711,None,1469.6192890860711,None,1469.6192890860711,None,1469.6192890860711,None,1469.6192890860711,None,1469.6192890860711,None,1469.6192890860711,None,1470.6043993834319,None,1470.6043993834319,None,1471.5855895651785,None,1471.5855895651785,None,h,,,,,,,,,,,,,,,,,,,,,,,,,,,,,,,,,,,,,,,,,,,,,,,9_10Exp,001,2021_Apr_27_1033,ComputerHuman,2020.1.3,60.0275561136494,
Human.xlsx,h,Sychronize.jpg,Number6.jpg,6,Human,,,,,0,7,7,4,0,8,8,0,,,,,,,,,,,,,,,,,,,,,,,,,,,,,1472.6526578672583,None,1472.6526578672583,None,1473.0854318944075,None,1473.0854318944075,None,v,4.688420421171941,1473.0854318944075,None,t,5.452035845640239,1473.0854318944075,None,4.688420421171941,5.452035845640239,5.951344166065354,False,False,False,1478.6342339654602,None,1478.6342339654602,None,1478.6342339654602,None,1478.6342339654602,None,1478.6342339654602,None,1478.6342339654602,None,1478.6342339654602,None,1478.6342339654602,None,1479.6202168253803,None,1479.6202168253803,None,1480.6171692723246,None,1480.6171692723246,None,h,,,,,,,,,,,,,,,,,,,,,,,,,,,,,,,,,,,,,,,,,,,,,,,9_10Exp,001,2021_Apr_27_1033,ComputerHuman,2020.1.3,60.0275561136494,
Human.xlsx,h,Sychronize.jpg,Number8.jpg,8,Human,,,,,0,7,7,4,0,9,9,4,,,,,,,,,,,,,,,,,,,,,,,,,,,,,1481.6673939090642,None,1481.6673939090642,None,1482.1174696968965,None,1482.1174696968965,None,v,6.6281449544549105,1482.1174696968965,None,t,6.943104430019048,1482.1174696968965,None,6.6281449544549105,6.943104430019048,7.957565870487116,False,False,False,1489.1488665508596,None,1489.1488665508596,None,1489.1488665508596,None,1489.1488665508596,None,1489.1488665508596,None,1489.1488665508596,None,1489.1488665508596,None,1489.1488665508596,None,1490.1178466310903,None,1490.1178466310903,None,1491.1151959015224,None,1491.1151959015224,None,h,,,,,,,,,,,,,,,,,,,,,,,,,,,,,,,,,,,,,,,,,,,,,,,9_10Exp,001,2021_Apr_27_1033,ComputerHuman,2020.1.3,60.0275561136494,
Human.xlsx,h,,,,,,,,,0,7,7,4,,,,,,,,,,,,,,,,,,,,,,,,,,,,,,,,,,,,,,,,,,,,,,,,,,,,,,,,,,,,,,,,,,,,,,,,,,,,,,,h,1492.1163931086803,None,1492.1163931086803,None,q,1,5.381206863089574,1492.1163931086803,None,l,0,2.5601979947105065,1492.1163931086803,None,h,c,1497.580695836561,None,1497.580695836561,None,1499.5802403075786,None,None,None,None,None,None,None,None,,,,,,,,,,,,,,,,,,9_10Exp,001,2021_Apr_27_1033,ComputerHuman,2020.1.3,60.0275561136494,
Computer.xlsx,c,Sychronize.jpg,Number7.jpg,7,Computer,,,,,0,8,8,9,0,0,0,3,,,,,,,,,,,,,,,,,,,,,,,,,1504.581936992643,None,1504.581936992643,None,1507.6460433939474,None,1507.6460433939474,None,1508.0789123764334,None,1508.0789123764334,None,v,5.910146908096976,1508.0789123764334,None,t,6.444965522550774,1508.0789123764334,None,5.910146908096976,6.444965522550774,6.6900060359332,False,False,True,1514.576896981479,None,1514.576896981479,None,1514.576896981479,None,1514.576896981479,None,1514.576896981479,None,1514.576896981479,None,1514.576896981479,None,1514.576896981479,None,1515.6104928855675,None,1515.6104928855675,None,1516.5930162915774,None,1516.5930162915774,None,c,,,,,,,,,,,,,,,,,,,,,,,,,,,,,,,,,,,,,,,,,,,,,,,9_10Exp,001,2021_Apr_27_1033,ComputerHuman,2020.1.3,60.0275561136494,
Computer.xlsx,c,Sychronize.jpg,Number9.jpg,9,Computer,,,,,0,8,8,9,0,1,1,7,,,,,,,,,,,,,,,,,,,,,,,,,,,,,1517.6438818768438,None,1517.6438818768438,None,1518.09381266531,None,1518.09381266531,None,v,6.755468513162668,1518.09381266531,None,t,9.354510619118628,1518.09381266531,None,6.755468513162668,9.354510619118628,8.721794732639031,False,False,False,1527.5415495363713,None,1527.5415495363713,None,1527.5415495363713,None,1527.5415495363713,None,1527.5415495363713,None,1527.5415495363713,None,1527.5415495363713,None,1527.5415495363713,None,1528.5413984418983,None,1528.5413984418983,None,1529.5244864472106,None,1529.5244864472106,None,c,,,,,,,,,,,,,,,,,,,,,,,,,,,,,,,,,,,,,,,,,,,,,,,9_10Exp,001,2021_Apr_27_1033,ComputerHuman,2020.1.3,60.0275561136494,
Computer.xlsx,c,Sychronize.jpg,Number7.jpg,7,Computer,,,,,0,8,8,9,0,2,2,2,,,,,,,,,,,,,,,,,,,,,,,,,,,,,1530.5746363387016,None,1530.5746363387016,None,1531.0245507666205,None,1531.0245507666205,None,v,6.33203860447793,1531.0245507666205,None,t,7.319098694203603,1531.0245507666205,None,6.33203860447793,7.319098694203603,7.392001268171513,False,False,True,1538.4394760775103,None,1538.4394760775103,None,1538.4394760775103,None,1538.4394760775103,None,1538.4394760775103,None,1538.4394760775103,None,1538.4394760775103,None,1538.4394760775103,None,1539.4225522134057,None,1539.4225522134057,None,1540.4058557929975,None,1540.4058557929975,None,c,,,,,,,,,,,,,,,,,,,,,,,,,,,,,,,,,,,,,,,,,,,,,,,9_10Exp,001,2021_Apr_27_1033,ComputerHuman,2020.1.3,60.0275561136494,
Computer.xlsx,c,Sychronize.jpg,Number8.jpg,8,Computer,,,,,0,8,8,9,0,3,3,5,,,,,,,,,,,,,,,,,,,,,,,,,,,,,1541.456161590887,None,1541.456161590887,None,1541.9059900457296,None,1541.9059900457296,None,v,6.8862717358706504,1541.9059900457296,None,t,7.793116058839587,1541.9059900457296,None,6.8862717358706504,7.793116058839587,7.945179861979597,False,False,True,1549.787265077769,None,1549.787265077769,None,1549.787265077769,None,1549.787265077769,None,1549.787265077769,None,1549.787265077769,None,1549.787265077769,None,1549.787265077769,None,1550.7870732423235,None,1550.7870732423235,None,1551.7702507494578,None,1551.7702507494578,None,c,,,,,,,,,,,,,,,,,,,,,,,,,,,,,,,,,,,,,,,,,,,,,,,9_10Exp,001,2021_Apr_27_1033,ComputerHuman,2020.1.3,60.0275561136494,
Computer.xlsx,c,Sychronize.jpg,Number6.jpg,6,Computer,,,,,0,8,8,9,0,4,4,0,,,,,,,,,,,,,,,,,,,,,,,,,,,,,1552.837089362276,None,1552.837089362276,None,1553.253937197952,None,1553.253937197952,None,v,4.6901995505659215,1553.253937197952,None,t,5.3531148398187725,1553.253937197952,None,4.6901995505659215,5.3531148398187725,6.445410021280949,False,False,False,1558.702330736497,None,1558.702330736497,None,1558.702330736497,None,1558.702330736497,None,1558.702330736497,None,1558.702330736497,None,1558.702330736497,None,1558.702330736497,None,1559.6854642947083,None,1559.6854642947083,None,1560.6852785543697,None,1560.6852785543697,None,c,,,,,,,,,,,,,,,,,,,,,,,,,,,,,,,,,,,,,,,,,,,,,,,9_10Exp,001,2021_Apr_27_1033,ComputerHuman,2020.1.3,60.0275561136494,
Computer.xlsx,c,Sychronize.jpg,Number10.jpg,10,Computer,,,,,0,8,8,9,0,5,5,9,,,,,,,,,,,,,,,,,,,,,,,,,,,,,1561.7358159662908,None,1561.7358159662908,None,1562.185530538888,None,1562.185530538888,None,v,8.522321722156448,1562.185530538888,None,t,8.257074252827806,1562.185530538888,None,8.522321722156448,8.257074252827806,10.04047104512421,False,False,False,1570.7999846018374,None,1570.7999846018374,None,1570.7999846018374,None,1570.7999846018374,None,1570.7999846018374,None,1570.7999846018374,None,1570.7999846018374,None,1570.7999846018374,None,1571.7831775071336,None,1571.7831775071336,None,1572.7663238971472,None,1572.7663238971472,None,c,,,,,,,,,,,,,,,,,,,,,,,,,,,,,,,,,,,,,,,,,,,,,,,9_10Exp,001,2021_Apr_27_1033,ComputerHuman,2020.1.3,60.0275561136494,
Computer.xlsx,c,Sychronize.jpg,Number8.jpg,8,Computer,,,,,0,8,8,9,0,6,6,4,,,,,,,,,,,,,,,,,,,,,,,,,,,,,1573.832490123522,None,1573.832490123522,None,1574.2665633706583,None,1574.2665633706583,None,v,8.213010805981867,1574.2665633706583,None,t,6.768055869667478,1574.2665633706583,None,8.213010805981867,6.768055869667478,8.490900123869153,False,True,False,1582.549207876802,None,1582.549207876802,None,1582.549207876802,None,1582.549207876802,None,1582.549207876802,None,1582.549207876802,None,1582.549207876802,None,1582.549207876802,None,1583.564277866264,None,1583.564277866264,None,1584.5474297097926,None,1584.5474297097926,None,c,,,,,,,,,,,,,,,,,,,,,,,,,,,,,,,,,,,,,,,,,,,,,,,9_10Exp,001,2021_Apr_27_1033,ComputerHuman,2020.1.3,60.0275561136494,
Computer.xlsx,c,Sychronize.jpg,Number10.jpg,10,Computer,,,,,0,8,8,9,0,7,7,8,,,,,,,,,,,,,,,,,,,,,,,,,,,,,1585.5978259718886,None,1585.5978259718886,None,1586.0473268949763,None,1586.0473268949763,None,v,8.159977929300112,1586.0473268949763,None,t,8.359050831581044,1586.0473268949763,None,8.159977929300112,8.359050831581044,9.685124978642722,False,False,False,1594.4953415745586,None,1594.4953415745586,None,1594.4953415745586,None,1594.4953415745586,None,1594.4953415745586,None,1594.4953415745586,None,1594.4953415745586,None,1594.4953415745586,None,1595.4953040415367,None,1595.4953040415367,None,1596.4784469028036,None,1596.4784469028036,None,c,,,,,,,,,,,,,,,,,,,,,,,,,,,,,,,,,,,,,,,,,,,,,,,9_10Exp,001,2021_Apr_27_1033,ComputerHuman,2020.1.3,60.0275561136494,
Computer.xlsx,c,Sychronize.jpg,Number9.jpg,9,Computer,,,,,0,8,8,9,0,8,8,6,,,,,,,,,,,,,,,,,,,,,,,,,,,,,1597.5287851009944,None,1597.5287851009944,None,1597.978365581257,None,1597.978365581257,None,v,5.824754792277417,1597.978365581257,None,t,8.74408702528308,1597.978365581257,None,5.824754792277417,8.74408702528308,8.97219658917442,False,False,True,1606.8098224238956,None,1606.8098224238956,None,1606.8098224238956,None,1606.8098224238956,None,1606.8098224238956,None,1606.8098224238956,None,1606.8098224238956,None,1606.8098224238956,None,1607.7930121212412,None,1607.7930121212412,None,1608.7761148831269,None,1608.7761148831269,None,c,,,,,,,,,,,,,,,,,,,,,,,,,,,,,,,,,,,,,,,,,,,,,,,9_10Exp,001,2021_Apr_27_1033,ComputerHuman,2020.1.3,60.0275561136494,
Computer.xlsx,c,Sychronize.jpg,Number6.jpg,6,Computer,,,,,0,8,8,9,0,9,9,1,,,,,,,,,,,,,,,,,,,,,,,,,,,,,1609.859665314516,None,1609.859665314516,None,1610.2760053316142,None,1610.2760053316142,None,v,4.918854569164068,1610.2760053316142,None,t,5.306127666809516,1610.2760053316142,None,4.918854569164068,5.306127666809516,5.726725871640872,False,False,False,1615.6747122067336,None,1615.6747122067336,None,1615.6747122067336,None,1615.6747122067336,None,1615.6747122067336,None,1615.6747122067336,None,1615.6747122067336,None,1615.6747122067336,None,1616.6745623954412,None,1616.6745623954412,None,1617.6577392609843,None,1617.6577392609843,None,c,,,,,,,,,,,,,,,,,,,,,,,,,,,,,,,,,,,,,,,,,,,,,,,9_10Exp,001,2021_Apr_27_1033,ComputerHuman,2020.1.3,60.0275561136494,
Computer.xlsx,c,,,,,,,,,0,8,8,9,,,,,,,,,,,,,,,,,,,,,,,,,,,,,,,,,,,,,,,,,,,,,,,,,,,,,,,,,,,,,,,,,,,,,,,,,,,,,,,c,1618.658646148615,None,1618.658646148615,None,q,0,1.6041783556365772,1618.658646148615,None,o,0,2.1072164452380093,1618.658646148615,None,h,h,1620.857566352448,None,1620.857566352448,None,1622.8402020367275,None,None,None,None,None,None,None,None,,,,,,,,,,,,,,,,,,9_10Exp,001,2021_Apr_27_1033,ComputerHuman,2020.1.3,60.0275561136494,
Human.xlsx,h,Sychronize.jpg,Number10.jpg,10,Human,,,,,0,9,9,8,0,0,0,9,,,,,,,,,,,,,,,,,,,,,,,,,1627.8587295553298,None,1627.8587295553298,None,1630.9223127398946,None,1630.9223127398946,None,1631.3723006298815,None,1631.3723006298815,None,v,8.838513692335255,1631.3723006298815,None,t,9.069082574252207,1631.3723006298815,None,8.838513692335255,9.069082574252207,9.396400621069004,True,False,False,1640.5218427751342,None,1640.5218427751342,None,1640.5218427751342,None,1640.5218427751342,None,1640.5218427751342,None,1640.5218427751342,None,1640.5218427751342,None,1640.5218427751342,None,1641.522463513572,None,1641.522463513572,None,1642.5197104503804,None,1642.5197104503804,None,h,,,,,,,,,,,,,,,,,,,,,,,,,,,,,,,,,,,,,,,,,,,,,,,9_10Exp,001,2021_Apr_27_1033,ComputerHuman,2020.1.3,60.0275561136494,
Human.xlsx,h,Sychronize.jpg,Number9.jpg,9,Human,,,,,0,9,9,8,0,1,1,7,,,,,,,,,,,,,,,,,,,,,,,,,,,,,1643.5866664741898,None,1643.5866664741898,None,1644.0363005272266,None,1644.0363005272266,None,v,7.817723285390457,1644.0363005272266,None,t,8.577060266164153,1644.0363005272266,None,7.817723285390457,8.577060266164153,9.540552872994164,False,False,False,1652.7008996697414,None,1652.7008996697414,None,1652.7008996697414,None,1652.7008996697414,None,1652.7008996697414,None,1652.7008996697414,None,1652.7008996697414,None,1652.7008996697414,None,1653.6864260382936,None,1653.6864260382936,None,1654.667393267474,None,1654.667393267474,None,h,,,,,,,,,,,,,,,,,,,,,,,,,,,,,,,,,,,,,,,,,,,,,,,9_10Exp,001,2021_Apr_27_1033,ComputerHuman,2020.1.3,60.0275561136494,
Human.xlsx,h,Sychronize.jpg,Number8.jpg,8,Human,,,,,0,9,9,8,0,2,2,4,,,,,,,,,,,,,,,,,,,,,,,,,,,,,1655.7338289616991,None,1655.7338289616991,None,1656.1675111596578,None,1656.1675111596578,None,v,7.878289071635663,1656.1675111596578,None,t,6.281184888628559,1656.1675111596578,None,7.878289071635663,6.281184888628559,7.791376435205693,False,False,False,1664.1321698096563,None,1664.1321698096563,None,1664.1321698096563,None,1664.1321698096563,None,1664.1321698096563,None,1664.1321698096563,None,1664.1321698096563,None,1664.1321698096563,None,1665.1182370386769,None,1665.1182370386769,None,1666.1152186779718,None,1666.1152186779718,None,h,,,,,,,,,,,,,,,,,,,,,,,,,,,,,,,,,,,,,,,,,,,,,,,9_10Exp,001,2021_Apr_27_1033,ComputerHuman,2020.1.3,60.0275561136494,
Human.xlsx,h,Sychronize.jpg,Number7.jpg,7,Human,,,,,0,9,9,8,0,3,3,2,,,,,,,,,,,,,,,,,,,,,,,,,,,,,1667.1651456168966,None,1667.1651456168966,None,1667.6154934389388,None,1667.6154934389388,None,v,5.946128885831058,1667.6154934389388,None,t,5.601117008393885,1667.6154934389388,None,5.946128885831058,5.601117008393885,7.05796136582366,False,False,False,1673.6471254356802,None,1673.6471254356802,None,1673.6471254356802,None,1673.6471254356802,None,1673.6471254356802,None,1673.6471254356802,None,1673.6471254356802,None,1673.6471254356802,None,1674.6160012575165,None,1674.6160012575165,None,1675.6133030502797,None,1675.6133030502797,None,h,,,,,,,,,,,,,,,,,,,,,,,,,,,,,,,,,,,,,,,,,,,,,,,9_10Exp,001,2021_Apr_27_1033,ComputerHuman,2020.1.3,60.0275561136494,
Human.xlsx,h,Sychronize.jpg,Number10.jpg,10,Human,,,,,0,9,9,8,0,4,4,8,,,,,,,,,,,,,,,,,,,,,,,,,,,,,1676.6804945376625,None,1676.6804945376625,None,1677.1133757103607,None,1677.1133757103607,None,v,7.356477413622088,1677.1133757103607,None,t,7.8430519800267575,1677.1133757103607,None,7.356477413622088,7.8430519800267575,10.63834923717032,False,False,False,1685.029909327277,None,1685.029909327277,None,1685.029909327277,None,1685.029909327277,None,1685.029909327277,None,1685.029909327277,None,1685.029909327277,None,1685.029909327277,None,1686.0305124219867,None,1686.0305124219867,None,1687.0112146744495,None,1687.0112146744495,None,h,,,,,,,,,,,,,,,,,,,,,,,,,,,,,,,,,,,,,,,,,,,,,,,9_10Exp,001,2021_Apr_27_1033,ComputerHuman,2020.1.3,60.0275561136494,
Human.xlsx,h,Sychronize.jpg,Number6.jpg,6,Human,,,,,0,9,9,8,0,5,5,0,,,,,,,,,,,,,,,,,,,,,,,,,,,,,1688.09494025994,None,1688.09494025994,None,1688.5113502103613,None,1688.5113502103613,None,v,5.173807404270519,1688.5113502103613,None,t,4.937179024494071,1688.5113502103613,None,5.173807404270519,4.937179024494071,5.740965607498097,True,False,False,1693.7766470821289,None,1693.7766470821289,None,1693.7766470821289,None,1693.7766470821289,None,1693.7766470821289,None,1693.7766470821289,None,1693.7766470821289,None,1693.7766470821289,None,1694.7619456861885,None,1694.7619456861885,None,1695.7595477431269,None,1695.7595477431269,None,h,,,,,,,,,,,,,,,,,,,,,,,,,,,,,,,,,,,,,,,,,,,,,,,9_10Exp,001,2021_Apr_27_1033,ComputerHuman,2020.1.3,60.0275561136494,
Human.xlsx,h,Sychronize.jpg,Number9.jpg,9,Human,,,,,0,9,9,8,0,6,6,6,,,,,,,,,,,,,,,,,,,,,,,,,,,,,1696.8265679259475,None,1696.8265679259475,None,1697.2598160881935,None,1697.2598160881935,None,v,6.037119837806131,1697.2598160881935,None,t,6.380183847648368,1697.2598160881935,None,6.037119837806131,6.380183847648368,9.49360431790564,False,False,False,1703.7095595323453,None,1703.7095595323453,None,1703.7095595323453,None,1703.7095595323453,None,1703.7095595323453,None,1703.7095595323453,None,1703.7095595323453,None,1703.7095595323453,None,1704.6932884861844,None,1704.6932884861844,None,1705.6909896687948,None,1705.6909896687948,None,h,,,,,,,,,,,,,,,,,,,,,,,,,,,,,,,,,,,,,,,,,,,,,,,9_10Exp,001,2021_Apr_27_1033,ComputerHuman,2020.1.3,60.0275561136494,
Human.xlsx,h,Sychronize.jpg,Number7.jpg,7,Human,,,,,0,9,9,8,0,7,7,3,,,,,,,,,,,,,,,,,,,,,,,,,,,,,1706.7576399749141,None,1706.7576399749141,None,1707.1911867973586,None,1707.1911867973586,None,v,5.337614022593698,1707.1911867973586,None,t,4.765185395483968,1707.1911867973586,None,5.337614022593698,4.765185395483968,7.495775845984836,False,False,False,1712.6229859283249,None,1712.6229859283249,None,1712.6229859283249,None,1712.6229859283249,None,1712.6229859283249,None,1712.6229859283249,None,1712.6229859283249,None,1712.6229859283249,None,1713.6090374383875,None,1713.6090374383875,None,1714.606005925085,None,1714.606005925085,None,h,,,,,,,,,,,,,,,,,,,,,,,,,,,,,,,,,,,,,,,,,,,,,,,9_10Exp,001,2021_Apr_27_1033,ComputerHuman,2020.1.3,60.0275561136494,
Human.xlsx,h,Sychronize.jpg,Number6.jpg,6,Human,,,,,0,9,9,8,0,8,8,1,,,,,,,,,,,,,,,,,,,,,,,,,,,,,1715.6564634590368,None,1715.6564634590368,None,1716.1061113062615,None,1716.1061113062615,None,v,5.4104489366445705,1716.1061113062615,None,t,4.022629204219811,1716.1061113062615,None,5.4104489366445705,4.022629204219811,6.282347097414822,False,False,False,1721.6045915396717,None,1721.6045915396717,None,1721.6045915396717,None,1721.6045915396717,None,1721.6045915396717,None,1721.6045915396717,None,1721.6045915396717,None,1721.6045915396717,None,1722.5739078131237,None,1722.5739078131237,None,1723.570961631307,None,1723.570961631307,None,h,,,,,,,,,,,,,,,,,,,,,,,,,,,,,,,,,,,,,,,,,,,,,,,9_10Exp,001,2021_Apr_27_1033,ComputerHuman,2020.1.3,60.0275561136494,
Human.xlsx,h,Sychronize.jpg,Number8.jpg,8,Human,,,,,0,9,9,8,0,9,9,5,,,,,,,,,,,,,,,,,,,,,,,,,,,,,1724.6214198068492,None,1724.6214198068492,None,1725.0713759381251,None,1725.0713759381251,None,v,5.2449918277452525,1725.0713759381251,None,t,7.120115614538918,1725.0713759381251,None,5.2449918277452525,7.120115614538918,7.936706698364815,False,False,False,1732.2859743588515,None,1732.2859743588515,None,1732.2859743588515,None,1732.2859743588515,None,1732.2859743588515,None,1732.2859743588515,None,1732.2859743588515,None,1732.2859743588515,None,1733.2716668992434,None,1733.2716668992434,None,1734.268921855928,None,1734.268921855928,None,h,,,,,,,,,,,,,,,,,,,,,,,,,,,,,,,,,,,,,,,,,,,,,,,9_10Exp,001,2021_Apr_27_1033,ComputerHuman,2020.1.3,60.0275561136494,
Human.xlsx,h,,,,,,,,,0,9,9,8,,,,,,,,,,,,,,,,,,,,,,,,,,,,,,,,,,,,,,,,,,,,,,,,,,,,,,,,,,,,,,,,,,,,,,,,,,,,,,,h,1735.2701238750124,None,1735.2701238750124,None,q,0,2.0019212416045775,1735.2701238750124,None,o,1,2.6132453071695636,1735.2701238750124,None,h,h,1737.9683837222174,None,1737.9683837222174,None,None,None,1739.9511852575424,None,1739.9511852575424,None,"['space', 'space']",1740.934277753986,None,"[344.9063920019371, 353.6462246431556]",,,,,,,,,,,,,,,,,9_10Exp,001,2021_Apr_27_1033,ComputerHuman,2020.1.3,60.0275561136494,
Computer.xlsx,c,Sychronize.jpg,Number10.jpg,10,Computer,,,,,1,0,10,3,0,0,0,9,,,,,,,,,,,,,,,,,,,,,,,,,2094.6375686300926,None,2094.6375686300926,None,2097.7005108661306,None,2097.7005108661306,None,2098.150165770847,None,2098.150165770847,None,v,9.233903867345362,2098.150165770847,None,t,8.16909300009138,2098.150165770847,None,9.233903867345362,8.16909300009138,10.382390347884147,False,False,False,2107.48127695681,None,2107.48127695681,None,2107.48127695681,None,2107.48127695681,None,2107.48127695681,None,2107.48127695681,None,2107.48127695681,None,2107.48127695681,None,2108.4643518095245,None,2108.4643518095245,None,2109.44753573256,None,2109.44753573256,None,c,,,,,,,,,,,,,,,,,,,,,,,,,,,,,,,,,,,,,,,,,,,,,,,9_10Exp,001,2021_Apr_27_1033,ComputerHuman,2020.1.3,60.0275561136494,
Computer.xlsx,c,Sychronize.jpg,Number6.jpg,6,Computer,,,,,1,0,10,3,0,1,1,1,,,,,,,,,,,,,,,,,,,,,,,,,,,,,2110.530785899774,None,2110.530785899774,None,2110.9808642539674,None,2110.9808642539674,None,v,6.074998676720497,2110.9808642539674,None,t,6.0740205725878695,2110.9808642539674,None,6.074998676720497,6.0740205725878695,6.4016693992095846,False,False,False,2117.129567840937,None,2117.129567840937,None,2117.129567840937,None,2117.129567840937,None,2117.129567840937,None,2117.129567840937,None,2117.129567840937,None,2117.129567840937,None,2118.16247596042,None,2118.16247596042,None,2119.129031471599,None,2119.129031471599,None,c,,,,,,,,,,,,,,,,,,,,,,,,,,,,,,,,,,,,,,,,,,,,,,,9_10Exp,001,2021_Apr_27_1033,ComputerHuman,2020.1.3,60.0275561136494,
Computer.xlsx,c,Sychronize.jpg,Number10.jpg,10,Computer,,,,,1,0,10,3,0,2,2,8,,,,,,,,,,,,,,,,,,,,,,,,,,,,,2120.195820361183,None,2120.195820361183,None,2120.6288744424182,None,2120.6288744424182,None,v,11.982756624016474,2120.6288744424182,None,t,8.16602780330777,2120.6288744424182,None,11.982756624016474,8.16602780330777,10.701822743003172,False,False,False,2132.7097539341503,None,2132.7097539341503,None,2132.7097539341503,None,2132.7097539341503,None,2132.7097539341503,None,2132.7097539341503,None,2132.7097539341503,None,2132.7097539341503,None,2133.7094562363363,None,2133.7094562363363,None,2134.6926789755735,None,2134.6926789755735,None,c,,,,,,,,,,,,,,,,,,,,,,,,,,,,,,,,,,,,,,,,,,,,,,,9_10Exp,001,2021_Apr_27_1033,ComputerHuman,2020.1.3,60.0275561136494,
Computer.xlsx,c,Sychronize.jpg,Number9.jpg,9,Computer,,,,,1,0,10,3,0,3,3,7,,,,,,,,,,,,,,,,,,,,,,,,,,,,,2135.7429222184264,None,2135.7429222184264,None,2136.1925527427175,None,2136.1925527427175,None,v,10.782752132886344,2136.1925527427175,None,t,7.830037003709549,2136.1925527427175,None,10.782752132886344,7.830037003709549,8.394897295732791,False,False,False,2147.0736404304425,None,2147.0736404304425,None,2147.0736404304425,None,2147.0736404304425,None,2147.0736404304425,None,2147.0736404304425,None,2147.0736404304425,None,2147.0736404304425,None,2148.073307765967,None,2148.073307765967,None,2149.0563482936113,None,2149.0563482936113,None,c,,,,,,,,,,,,,,,,,,,,,,,,,,,,,,,,,,,,,,,,,,,,,,,9_10Exp,001,2021_Apr_27_1033,ComputerHuman,2020.1.3,60.0275561136494,
Computer.xlsx,c,Sychronize.jpg,Number7.jpg,7,Computer,,,,,1,0,10,3,0,4,4,2,,,,,,,,,,,,,,,,,,,,,,,,,,,,,2150.107013702761,None,2150.107013702761,None,2150.5566711738375,None,2150.5566711738375,None,v,7.742441667428466,2150.5566711738375,None,t,6.598125273678306,2150.5566711738375,None,7.742441667428466,6.598125273678306,6.692243053494102,False,False,True,2158.356581992811,None,2158.356581992811,None,2158.356581992811,None,2158.356581992811,None,2158.356581992811,None,2158.356581992811,None,2158.356581992811,None,2158.356581992811,None,2159.37130680679,None,2159.37130680679,None,2160.3544949001607,None,2160.3544949001607,None,c,,,,,,,,,,,,,,,,,,,,,,,,,,,,,,,,,,,,,,,,,,,,,,,9_10Exp,001,2021_Apr_27_1033,ComputerHuman,2020.1.3,60.0275561136494,
Computer.xlsx,c,Sychronize.jpg,Number9.jpg,9,Computer,,,,,1,0,10,3,0,5,5,6,,,,,,,,,,,,,,,,,,,,,,,,,,,,,2161.4213168316355,None,2161.4213168316355,None,2161.871450683374,None,2161.871450683374,None,v,9.755354951712434,2161.871450683374,None,t,7.21495835278165,2161.871450683374,None,9.755354951712434,7.21495835278165,9.39388890447288,False,False,False,2171.719003097276,None,2171.719003097276,None,2171.719003097276,None,2171.719003097276,None,2171.719003097276,None,2171.719003097276,None,2171.719003097276,None,2171.719003097276,None,2172.702125748455,None,2172.702125748455,None,2173.6852743840336,None,2173.6852743840336,None,c,,,,,,,,,,,,,,,,,,,,,,,,,,,,,,,,,,,,,,,,,,,,,,,9_10Exp,001,2021_Apr_27_1033,ComputerHuman,2020.1.3,60.0275561136494,
Computer.xlsx,c,Sychronize.jpg,Number8.jpg,8,Computer,,,,,1,0,10,3,0,6,6,4,,,,,,,,,,,,,,,,,,,,,,,,,,,,,2174.7514707651444,None,2174.7514707651444,None,2175.1852966792903,None,2175.1852966792903,None,v,7.669370969009833,2175.1852966792903,None,t,7.704100883629508,2175.1852966792903,None,7.669370969009833,7.704100883629508,7.566439840767924,False,True,True,2182.983395326978,None,2182.983395326978,None,2182.983395326978,None,2182.983395326978,None,2182.983395326978,None,2182.983395326978,None,2182.983395326978,None,2182.983395326978,None,2183.983258026694,None,2183.983258026694,None,2184.966581495579,None,2184.966581495579,None,c,,,,,,,,,,,,,,,,,,,,,,,,,,,,,,,,,,,,,,,,,,,,,,,9_10Exp,001,2021_Apr_27_1033,ComputerHuman,2020.1.3,60.0275561136494,
Computer.xlsx,c,Sychronize.jpg,Number8.jpg,8,Computer,,,,,1,0,10,3,0,7,7,5,,,,,,,,,,,,,,,,,,,,,,,,,,,,,2185.9994549691955,None,2185.9994549691955,None,2186.450151174671,None,2186.450151174671,None,v,6.320209928286204,2186.450151174671,None,t,7.379106938637051,2186.450151174671,None,6.320209928286204,7.379106938637051,7.861975542038431,False,False,False,2193.9147663569393,None,2193.9147663569393,None,2193.9147663569393,None,2193.9147663569393,None,2193.9147663569393,None,2193.9147663569393,None,2193.9147663569393,None,2193.9147663569393,None,2194.9145764462646,None,2194.9145764462646,None,2195.897718345147,None,2195.897718345147,None,c,,,,,,,,,,,,,,,,,,,,,,,,,,,,,,,,,,,,,,,,,,,,,,,9_10Exp,001,2021_Apr_27_1033,ComputerHuman,2020.1.3,60.0275561136494,
Computer.xlsx,c,Sychronize.jpg,Number7.jpg,7,Computer,,,,,1,0,10,3,0,8,8,3,,,,,,,,,,,,,,,,,,,,,,,,,,,,,2196.9480337668883,None,2196.9480337668883,None,2197.3979847654427,None,2197.3979847654427,None,v,7.020103905519136,2197.3979847654427,None,t,6.143110525125849,2197.3979847654427,None,7.020103905519136,6.143110525125849,7.312839286138486,False,True,False,2204.4975778369108,None,2204.4975778369108,None,2204.4975778369108,None,2204.4975778369108,None,2204.4975778369108,None,2204.4975778369108,None,2204.4975778369108,None,2204.4975778369108,None,2205.4958224463508,None,2205.4958224463508,None,2206.478991612813,None,2206.478991612813,None,c,,,,,,,,,,,,,,,,,,,,,,,,,,,,,,,,,,,,,,,,,,,,,,,9_10Exp,001,2021_Apr_27_1033,ComputerHuman,2020.1.3,60.0275561136494,
Computer.xlsx,c,Sychronize.jpg,Number6.jpg,6,Computer,,,,,1,0,10,3,0,9,9,0,,,,,,,,,,,,,,,,,,,,,,,,,,,,,2207.5293035058085,None,2207.5293035058085,None,2207.979092502859,None,2207.979092502859,None,v,7.122760249001658,2207.979092502859,None,t,4.934118639636836,2207.979092502859,None,7.122760249001658,4.934118639636836,5.722450367877987,False,False,False,2215.194061121083,None,2215.194061121083,None,2215.194061121083,None,2215.194061121083,None,2215.194061121083,None,2215.194061121083,None,2215.194061121083,None,2215.194061121083,None,2216.193858699401,None,2216.193858699401,None,2217.177024978707,None,2217.177024978707,None,c,,,,,,,,,,,,,,,,,,,,,,,,,,,,,,,,,,,,,,,,,,,,,,,9_10Exp,001,2021_Apr_27_1033,ComputerHuman,2020.1.3,60.0275561136494,
Computer.xlsx,c,,,,,,,,,1,0,10,3,,,,,,,,,,,,,,,,,,,,,,,,,,,,,,,,,,,,,,,,,,,,,,,,,,,,,,,,,,,,,,,,,,,,,,,,,,,,,,,c,2218.177182168286,None,2218.177182168286,None,q,0,3.3085515942711936,2218.177182168286,None,o,0,2.7521563041846093,2218.177182168286,None,h,h,2221.5601338356983,None,2221.5601338356983,None,2223.5591156321825,None,None,None,None,None,None,None,None,,,,,,,,,,,,,,,,,,9_10Exp,001,2021_Apr_27_1033,ComputerHuman,2020.1.3,60.0275561136494,
Computer.xlsx,c,Sychronize.jpg,Number8.jpg,8,Computer,,,,,1,1,11,7,0,0,0,4,,,,,,,,,,,,,,,,,,,,,,,,,2228.577554290554,None,2228.577554290554,None,2231.6413033261633,None,2231.6413033261633,None,2232.091280309118,None,2232.091280309118,None,v,7.454392726934202,2232.091280309118,None,t,7.420978072053913,2232.091280309118,None,7.454392726934202,7.420978072053913,7.408572835225156,False,True,True,2239.6059157816735,None,2239.6059157816735,None,2239.6059157816735,None,2239.6059157816735,None,2239.6059157816735,None,2239.6059157816735,None,2239.6059157816735,None,2239.6059157816735,None,2240.6219744615055,None,2240.6219744615055,None,2241.6051574221556,None,2241.6051574221556,None,c,,,,,,,,,,,,,,,,,,,,,,,,,,,,,,,,,,,,,,,,,,,,,,,9_10Exp,001,2021_Apr_27_1033,ComputerHuman,2020.1.3,60.0275561136494,
Computer.xlsx,c,Sychronize.jpg,Number8.jpg,8,Computer,,,,,1,1,11,7,0,1,1,5,,,,,,,,,,,,,,,,,,,,,,,,,,,,,2242.621738997933,None,2242.621738997933,None,2243.1051822837726,None,2243.1051822837726,None,v,8.051905923641243,2243.1051822837726,None,t,6.327271589908378,2243.1051822837726,None,8.051905923641243,6.327271589908378,7.8232018689662866,False,True,False,2251.2538294108117,None,2251.2538294108117,None,2251.2538294108117,None,2251.2538294108117,None,2251.2538294108117,None,2251.2538294108117,None,2251.2538294108117,None,2251.2538294108117,None,2252.253707187894,None,2252.253707187894,None,2253.220135985025,None,2253.220135985025,None,c,,,,,,,,,,,,,,,,,,,,,,,,,,,,,,,,,,,,,,,,,,,,,,,9_10Exp,001,2021_Apr_27_1033,ComputerHuman,2020.1.3,60.0275561136494,
Computer.xlsx,c,Sychronize.jpg,Number7.jpg,7,Computer,,,,,1,1,11,7,0,2,2,2,,,,,,,,,,,,,,,,,,,,,,,,,,,,,2254.2869826177202,None,2254.2869826177202,None,2254.720029641463,None,2254.720029641463,None,v,7.264963244906539,2254.720029641463,None,t,6.260191097616371,2254.720029641463,None,7.264963244906539,6.260191097616371,6.637598675079642,False,False,False,2262.0685134838186,None,2262.0685134838186,None,2262.0685134838186,None,2262.0685134838186,None,2262.0685134838186,None,2262.0685134838186,None,2262.0685134838186,None,2262.0685134838186,None,2263.0682626220823,None,2263.0682626220823,None,2264.0513762909995,None,2264.0513762909995,None,c,,,,,,,,,,,,,,,,,,,,,,,,,,,,,,,,,,,,,,,,,,,,,,,9_10Exp,001,2021_Apr_27_1033,ComputerHuman,2020.1.3,60.0275561136494,
Computer.xlsx,c,Sychronize.jpg,Number6.jpg,6,Computer,,,,,1,1,11,7,0,3,3,1,,,,,,,,,,,,,,,,,,,,,,,,,,,,,2265.1018777738745,None,2265.1018777738745,None,2265.551521129969,None,2265.551521129969,None,v,7.665063332964564,2265.551521129969,None,t,4.896191039873884,2265.551521129969,None,7.665063332964564,4.896191039873884,6.0761160695745495,False,False,False,2273.2996979714526,None,2273.2996979714526,None,2273.2996979714526,None,2273.2996979714526,None,2273.2996979714526,None,2273.2996979714526,None,2273.2996979714526,None,2273.2996979714526,None,2274.2828308880735,None,2274.2828308880735,None,2275.2659381410886,None,2275.2659381410886,None,c,,,,,,,,,,,,,,,,,,,,,,,,,,,,,,,,,,,,,,,,,,,,,,,9_10Exp,001,2021_Apr_27_1033,ComputerHuman,2020.1.3,60.0275561136494,
Computer.xlsx,c,Sychronize.jpg,Number7.jpg,7,Computer,,,,,1,1,11,7,0,4,4,3,,,,,,,,,,,,,,,,,,,,,,,,,,,,,2276.3328935233085,None,2276.3328935233085,None,2276.766025557742,None,2276.766025557742,None,v,6.87835355144216,2276.766025557742,None,t,6.334030100199925,2276.766025557742,None,6.87835355144216,6.334030100199925,7.217033543658744,False,False,False,2283.7160954108667,None,2283.7160954108667,None,2283.7160954108667,None,2283.7160954108667,None,2283.7160954108667,None,2283.7160954108667,None,2283.7160954108667,None,2283.7160954108667,None,2284.730814129739,None,2284.730814129739,None,2285.7139727099648,None,2285.7139727099648,None,c,,,,,,,,,,,,,,,,,,,,,,,,,,,,,,,,,,,,,,,,,,,,,,,9_10Exp,001,2021_Apr_27_1033,ComputerHuman,2020.1.3,60.0275561136494,
Computer.xlsx,c,Sychronize.jpg,Number6.jpg,6,Computer,,,,,1,1,11,7,0,5,5,0,,,,,,,,,,,,,,,,,,,,,,,,,,,,,2286.7640744821965,None,2286.7640744821965,None,2287.197260410201,None,2287.197260410201,None,v,6.539313274018241,2287.197260410201,None,t,5.690156884823409,2287.197260410201,None,6.539313274018241,5.690156884823409,5.794642926988977,False,False,True,2293.829076543305,None,2293.829076543305,None,2293.829076543305,None,2293.829076543305,None,2293.829076543305,None,2293.829076543305,None,2293.829076543305,None,2293.829076543305,None,2294.828877971164,None,2294.828877971164,None,2295.812027569127,None,2295.812027569127,None,c,,,,,,,,,,,,,,,,,,,,,,,,,,,,,,,,,,,,,,,,,,,,,,,9_10Exp,001,2021_Apr_27_1033,ComputerHuman,2020.1.3,60.0275561136494,
Computer.xlsx,c,Sychronize.jpg,Number10.jpg,10,Computer,,,,,1,1,11,7,0,6,6,9,,,,,,,,,,,,,,,,,,,,,,,,,,,,,2296.862935499342,None,2296.862935499342,None,2297.312149631647,None,2297.312149631647,None,v,9.75172419324008,2297.312149631647,None,t,8.039085028334739,2297.312149631647,None,9.75172419324008,8.039085028334739,10.5552479187536,False,False,False,2307.159870462955,None,2307.159870462955,None,2307.159870462955,None,2307.159870462955,None,2307.159870462955,None,2307.159870462955,None,2307.159870462955,None,2307.159870462955,None,2308.142959751448,None,2308.142959751448,None,2309.1261359754017,None,2309.1261359754017,None,c,,,,,,,,,,,,,,,,,,,,,,,,,,,,,,,,,,,,,,,,,,,,,,,9_10Exp,001,2021_Apr_27_1033,ComputerHuman,2020.1.3,60.0275561136494,
Computer.xlsx,c,Sychronize.jpg,Number9.jpg,9,Computer,,,,,1,1,11,7,0,7,7,7,,,,,,,,,,,,,,,,,,,,,,,,,,,,,2310.192671436889,None,2310.192671436889,None,2310.6427315057635,None,2310.6427315057635,None,v,10.352817142004824,2310.6427315057635,None,t,8.096196493388561,2310.6427315057635,None,10.352817142004824,8.096196493388561,9.122911009151073,False,False,False,2321.090438542885,None,2321.090438542885,None,2321.090438542885,None,2321.090438542885,None,2321.090438542885,None,2321.090438542885,None,2321.090438542885,None,2321.090438542885,None,2322.0736227867146,None,2322.0736227867146,None,2323.0568811342027,None,2323.0568811342027,None,c,,,,,,,,,,,,,,,,,,,,,,,,,,,,,,,,,,,,,,,,,,,,,,,9_10Exp,001,2021_Apr_27_1033,ComputerHuman,2020.1.3,60.0275561136494,
Computer.xlsx,c,Sychronize.jpg,Number10.jpg,10,Computer,,,,,1,1,11,7,0,8,8,8,,,,,,,,,,,,,,,,,,,,,,,,,,,,,2324.1073351394098,None,2324.1073351394098,None,2324.5566795145087,None,2324.5566795145087,None,v,9.442573674595224,2324.5566795145087,None,t,10.306159104725339,2324.5566795145087,None,9.442573674595224,10.306159104725339,9.780083326991964,False,False,False,2334.954611669562,None,2334.954611669562,None,2334.954611669562,None,2334.954611669562,None,2334.954611669562,None,2334.954611669562,None,2334.954611669562,None,2334.954611669562,None,2335.9543925665366,None,2335.9543925665366,None,2336.920922093316,None,2336.920922093316,None,c,,,,,,,,,,,,,,,,,,,,,,,,,,,,,,,,,,,,,,,,,,,,,,,9_10Exp,001,2021_Apr_27_1033,ComputerHuman,2020.1.3,60.0275561136494,
Computer.xlsx,c,Sychronize.jpg,Number9.jpg,9,Computer,,,,,1,1,11,7,0,9,9,6,,,,,,,,,,,,,,,,,,,,,,,,,,,,,2337.954316217313,None,2337.954316217313,None,2338.4210643659244,None,2338.4210643659244,None,v,9.157918104229793,2338.4210643659244,None,t,8.9490221364631,2338.4210643659244,None,9.157918104229793,8.9490221364631,8.385316031744567,False,False,False,2347.6688323541066,None,2347.6688323541066,None,2347.6688323541066,None,2347.6688323541066,None,2347.6688323541066,None,2347.6688323541066,None,2347.6688323541066,None,2347.6688323541066,None,2348.66868414679,None,2348.66868414679,None,2349.651722108073,None,2349.651722108073,None,c,,,,,,,,,,,,,,,,,,,,,,,,,,,,,,,,,,,,,,,,,,,,,,,9_10Exp,001,2021_Apr_27_1033,ComputerHuman,2020.1.3,60.0275561136494,
Computer.xlsx,c,,,,,,,,,1,1,11,7,,,,,,,,,,,,,,,,,,,,,,,,,,,,,,,,,,,,,,,,,,,,,,,,,,,,,,,,,,,,,,,,,,,,,,,,,,,,,,,c,2350.6524817507716,None,2350.6524817507716,None,a,0,2.222528795366088,2350.6524817507716,None,l,1,2.3011652880495603,2350.6524817507716,None,c,c,2353.034897048846,None,2353.034897048846,None,2355.034160824187,None,None,None,None,None,None,None,None,,,,,,,,,,,,,,,,,,9_10Exp,001,2021_Apr_27_1033,ComputerHuman,2020.1.3,60.0275561136494,
