Condition,CorrectTuringReply,Sychronize,NumberImage,Number,Partner,trials.thisRepN,trials.thisTrialN,trials.thisN,trials.thisIndex,Block.thisRepN,Block.thisTrialN,Block.thisN,Block.thisIndex,trials_loop.thisRepN,trials_loop.thisTrialN,trials_loop.thisN,trials_loop.thisIndex,textLeft.started,textLeft.stopped,textRight.started,textRight.stopped,key_resp_Istr.keys,key_resp_Istr.rt,key_resp_Istr.started,key_resp_Istr.stopped,SychroLeftPr.started,SychroLeftPr.stopped,SychroRightPr.started,SychroRightPr.stopped,NumberLeftPr.started,NumberLeftPr.stopped,NumberRightPr.started,NumberRightPr.stopped,CrossLeftPr.started,CrossLeftPr.stopped,CrossRightPr.started,CrossRightPr.stopped,key_respPrLeft.keys,key_respPrLeft.rt,key_respPrLeft.started,key_respPrLeft.stopped,key_respPrRight.keys,key_respPrRight.rt,key_respPrRight.started,key_respPrRight.stopped,RTPrLeft,RTPrRight,CompPr,SychronizedRTsPr,SychronizedRTsLeftCPr,SychronizedRTsRightCPr,FeedbackLeftLeftPr.started,FeedbackLeftLeftPr.stopped,FeedbackRightRightPr.started,FeedbackRightRightPr.stopped,LineLeftPr.started,LineLeftPr.stopped,LineRightPr.started,LineRightPr.stopped,CreditLeftPr.started,CreditLeftPr.stopped,CreditRightPr.started,CreditRightPr.stopped,text_StartExp.started,text_StartExp.stopped,key_startExp.keys,key_startExp.rt,key_startExp.started,key_startExp.stopped,SychroLeft.started,SychroLeft.stopped,SychroRight.started,SychroRight.stopped,NumberLeft.started,NumberLeft.stopped,NumberRight.started,NumberRight.stopped,CrossLeft.started,CrossLeft.stopped,CrossRight.started,CrossRight.stopped,key_respLeft.keys,key_respLeft.rt,key_respLeft.started,key_respLeft.stopped,key_respRight.keys,key_respRight.rt,key_respRight.started,key_respRight.stopped,RTLeft,RTRight,Comp,SychronizedRTs,SychronizedRTsLeftC,SychronizedRTsRightC,FeedbackLeftLeft.started,FeedbackLeftLeft.stopped,FeedbackLeftRight.started,FeedbackLeftRight.stopped,FeedbackRightLeft.started,FeedbackRightLeft.stopped,FeedbackRightRight.started,FeedbackRightRight.stopped,LineLeft.started,LineLeft.stopped,LineRight.started,LineRight.stopped,CreditLeft.started,CreditLeft.stopped,CreditRight.started,CreditRight.stopped,CorrectTuringReply,TuringtextLeft.started,TuringtextLeft.stopped,TuringtextRight.started,TuringtextRight.stopped,keyTuringLeft.keys,keyTuringLeft.corr,keyTuringLeft.rt,keyTuringLeft.started,keyTuringLeft.stopped,keyTuringRight.keys,keyTuringRight.corr,keyTuringRight.rt,keyTuringRight.started,keyTuringRight.stopped,RespTuringLeft,RespTuringRight,BlockText.started,BlockText.stopped,text_Pause.started,text_Pause.stopped,key_respPause.keys,key_respPause.started,key_respPause.stopped,key_respPause.rt,EndText.started,EndText.stopped,participant,session,date,expName,psychopyVersion,frameRate,
,,,,,,,,,,,,,,,,,,13.697881636628154,None,13.697881636628154,None,"['t', 't', 'v']","[725.2748839126616, 727.8908122986031, 997.1642757353002]",14.548411508167192,None,,,,,,,,,,,,,,,,,,,,,,,,,,,,,,,,,,,,,,,,,,,,,,,,,,,,,,,,,,,,,,,,,,,,,,,,,,,,,,,,,,,,,,,,,,,,,,,,,,,,,,,,,,,,,,,,,,11_12,001,2021_Apr_08_1634,ComputerHuman,2020.1.3,60.094519853143,
,,,,,,,,,,,,,,,,,,,,,,,,,,1011.7720492162189,None,1011.7720492162189,None,1078.1589149462743,None,1078.1589149462743,None,1078.6091211366365,None,1078.6091211366365,None,v,5.437723773888138,1078.6091211366365,None,t,6.876826962095947,1078.6091211366365,None,5.437723773888138,6.876826962095947,6,False,False,False,1085.5411734324807,None,1085.5411734324807,None,1085.5411734324807,None,1085.5411734324807,None,1086.5576551881204,None,1086.5576551881204,None,1087.5574248580087,None,"['space', 'space']","[68.41631077242346, 142.93849127359863]",1088.5405985695797,None,,,,,,,,,,,,,,,,,,,,,,,,,,,,,,,,,,,,,,,,,,,,,,,,,,,,,,,,,,,,,,,,,,,,,,11_12,001,2021_Apr_08_1634,ComputerHuman,2020.1.3,60.094519853143,
Computer.xlsx,c,Sychronize.jpg,Number9.jpg,9,Computer,,,,,0,0,0,7,0,0,0,6,,,,,,,,,,,,,,,,,,,,,,,,,,,,,,,,,,,,,,,,,,,,,,,,,,,,,1231.5462439029106,None,1231.5462439029106,None,1234.5953539400725,None,1234.5953539400725,None,1235.0455456947057,None,1235.0455456947057,None,v,9.469239862508402,1235.0455456947057,None,t,9.476760878525965,1235.0455456947057,None,9.469239862508402,9.476760878525965,9,False,False,False,1244.577063868488,None,1244.577063868488,None,1244.577063868488,None,1244.577063868488,None,1244.577063868488,None,1244.577063868488,None,1245.5768162154964,None,1245.5768162154964,None,c,,,,,,,,,,,,,,,,,,,,,,,,,,,11_12,001,2021_Apr_08_1634,ComputerHuman,2020.1.3,60.094519853143,
Computer.xlsx,c,Sychronize.jpg,Number10.jpg,10,Computer,,,,,0,0,0,7,0,1,1,8,,,,,,,,,,,,,,,,,,,,,,,,,,,,,,,,,,,,,,,,,,,,,,,,,,,,,,,,,1246.6433197049337,None,1246.6433197049337,None,1247.076580592282,None,1247.076580592282,None,v,9.501818100161472,1247.076580592282,None,t,10.260757105988887,1247.076580592282,None,9.501818100161472,10.260757105988887,10,False,False,True,1257.3911887503964,None,1257.3911887503964,None,1257.3911887503964,None,1257.3911887503964,None,1257.3911887503964,None,1257.3911887503964,None,1258.3910674902509,None,1258.3910674902509,None,c,,,,,,,,,,,,,,,,,,,,,,,,,,,11_12,001,2021_Apr_08_1634,ComputerHuman,2020.1.3,60.094519853143,
Computer.xlsx,c,Sychronize.jpg,Number7.jpg,7,Computer,,,,,0,0,0,7,0,2,2,2,,,,,,,,,,,,,,,,,,,,,,,,,,,,,,,,,,,,,,,,,,,,,,,,,,,,,,,,,1259.4575706588948,None,1259.4575706588948,None,1259.8907106068946,None,1259.8907106068946,None,v,6.155853929645673,1259.8907106068946,None,t,7.726792556935834,1259.8907106068946,None,6.155853929645673,7.726792556935834,7,False,False,False,1267.6892577307372,None,1267.6892577307372,None,1267.6892577307372,None,1267.6892577307372,None,1267.6892577307372,None,1267.6892577307372,None,1268.689095729751,None,1268.689095729751,None,c,,,,,,,,,,,,,,,,,,,,,,,,,,,11_12,001,2021_Apr_08_1634,ComputerHuman,2020.1.3,60.094519853143,
Computer.xlsx,c,Sychronize.jpg,Number9.jpg,9,Computer,,,,,0,0,0,7,0,3,3,7,,,,,,,,,,,,,,,,,,,,,,,,,,,,,,,,,,,,,,,,,,,,,,,,,,,,,,,,,1269.7385766048137,None,1269.7385766048137,None,1270.188777983265,None,1270.188777983265,None,v,10.997017257115658,1270.188777983265,None,t,11.2247037066154,1270.188777983265,None,10.997017257115658,11.2247037066154,9,False,False,False,1281.4865964234668,None,1281.4865964234668,None,1281.4865964234668,None,1281.4865964234668,None,1281.4865964234668,None,1281.4865964234668,None,1282.4864004183146,None,1282.4864004183146,None,c,,,,,,,,,,,,,,,,,,,,,,,,,,,11_12,001,2021_Apr_08_1634,ComputerHuman,2020.1.3,60.094519853143,
Computer.xlsx,c,Sychronize.jpg,Number10.jpg,10,Computer,,,,,0,0,0,7,0,4,4,9,,,,,,,,,,,,,,,,,,,,,,,,,,,,,,,,,,,,,,,,,,,,,,,,,,,,,,,,,1283.535904069755,None,1283.535904069755,None,1283.9861256582299,None,1283.9861256582299,None,None,,1283.9861256582299,None,t,10.218764846747945,1283.9861256582299,None,13,10.218764846747945,10,False,False,True,1297.0335037284276,None,1297.0335037284276,None,1297.0335037284276,None,1297.0335037284276,None,1297.0335037284276,None,1297.0335037284276,None,1298.033388884167,None,1298.033388884167,None,c,,,,,,,,,,,,,,,,,,,,,,,,,,,11_12,001,2021_Apr_08_1634,ComputerHuman,2020.1.3,60.094519853143,
Computer.xlsx,c,Sychronize.jpg,Number8.jpg,8,Computer,,,,,0,0,0,7,0,5,5,5,,,,,,,,,,,,,,,,,,,,,,,,,,,,,,,,,,,,,,,,,,,,,,,,,,,,,,,,,1299.0829884530176,None,1299.0829884530176,None,1299.5497764867614,None,1299.5497764867614,None,v,6.343416103540221,1299.5497764867614,None,t,8.602816571579751,1299.5497764867614,None,6.343416103540221,8.602816571579751,8,False,False,False,1308.2146824219308,None,1308.2146824219308,None,1308.2146824219308,None,1308.2146824219308,None,1308.2146824219308,None,1308.2146824219308,None,1309.2144899455125,None,1309.2144899455125,None,c,,,,,,,,,,,,,,,,,,,,,,,,,,,11_12,001,2021_Apr_08_1634,ComputerHuman,2020.1.3,60.094519853143,
Computer.xlsx,c,Sychronize.jpg,Number8.jpg,8,Computer,,,,,0,0,0,7,0,6,6,4,,,,,,,,,,,,,,,,,,,,,,,,,,,,,,,,,,,,,,,,,,,,,,,,,,,,,,,,,1310.2640882311898,None,1310.2640882311898,None,1310.7142026744586,None,1310.7142026744586,None,None,,1310.7142026744586,None,None,,1310.7142026744586,None,13,13,8,False,False,False,1323.761754294228,None,1323.761754294228,None,1323.761754294228,None,1323.761754294228,None,1323.761754294228,None,1323.761754294228,None,1324.7614861104194,None,1324.7614861104194,None,c,,,,,,,,,,,,,,,,,,,,,,,,,,,11_12,001,2021_Apr_08_1634,ComputerHuman,2020.1.3,60.094519853143,
Computer.xlsx,c,Sychronize.jpg,Number6.jpg,6,Computer,,,,,0,0,0,7,0,7,7,0,,,,,,,,,,,,,,,,,,,,,,,,,,,,,,,,,,,,,,,,,,,,,,,,,,,,,,,,,1325.8111315528186,None,1325.8111315528186,None,1326.2612180870092,None,1326.2612180870092,None,v,4.731408141429711,1326.2612180870092,None,t,8.122813427798974,1326.2612180870092,None,4.731408141429711,8.122813427798974,6,False,False,False,1334.4429973069346,None,1334.4429973069346,None,1334.4429973069346,None,1334.4429973069346,None,1334.4429973069346,None,1334.4429973069346,None,1335.459413299799,None,1335.459413299799,None,c,,,,,,,,,,,,,,,,,,,,,,,,,,,11_12,001,2021_Apr_08_1634,ComputerHuman,2020.1.3,60.094519853143,
Computer.xlsx,c,Sychronize.jpg,Number6.jpg,6,Computer,,,,,0,0,0,7,0,8,8,1,,,,,,,,,,,,,,,,,,,,,,,,,,,,,,,,,,,,,,,,,,,,,,,,,,,,,,,,,1336.5092101569826,None,1336.5092101569826,None,1336.9591677319695,None,1336.9591677319695,None,v,4.157151541498024,1336.9591677319695,None,None,,1336.9591677319695,None,4.157151541498024,13,6,False,False,False,1350.0232963832095,None,1350.0232963832095,None,1350.0232963832095,None,1350.0232963832095,None,1350.0232963832095,None,1350.0232963832095,None,1351.023168065596,None,1351.023168065596,None,c,,,,,,,,,,,,,,,,,,,,,,,,,,,11_12,001,2021_Apr_08_1634,ComputerHuman,2020.1.3,60.094519853143,
Computer.xlsx,c,Sychronize.jpg,Number7.jpg,7,Computer,,,,,0,0,0,7,0,9,9,3,,,,,,,,,,,,,,,,,,,,,,,,,,,,,,,,,,,,,,,,,,,,,,,,,,,,,,,,,1352.0729219363784,None,1352.0729219363784,None,1352.5228317130568,None,1352.5228317130568,None,v,5.980953816888359,1352.5228317130568,None,t,8.924878058172908,1352.5228317130568,None,5.980953816888359,8.924878058172908,7,False,False,False,1361.5044069079777,None,1361.5044069079777,None,1361.5044069079777,None,1361.5044069079777,None,1361.5044069079777,None,1361.5044069079777,None,1362.5042169979133,None,1362.5042169979133,None,c,,,,,,,,,,,,,,,,,,,,,,,,,,,11_12,001,2021_Apr_08_1634,ComputerHuman,2020.1.3,60.094519853143,
Computer.xlsx,c,,,,,,,,,0,0,0,7,,,,,,,,,,,,,,,,,,,,,,,,,,,,,,,,,,,,,,,,,,,,,,,,,,,,,,,,,,,,,,,,,,,,,,,,,,,,,,,,,,,,,,,,,,,,,,,,,,,c,1363.504005273855,None,1363.504005273855,None,a,1,10.675513310543465,1363.504005273855,None,l,1,8.27478831604094,1363.504005273855,None,c,c,1374.2352575093864,None,None,None,None,None,None,,,,11_12,001,2021_Apr_08_1634,ComputerHuman,2020.1.3,60.094519853143,
Human.xlsx,h,Sychronize.jpg,Number9.jpg,9,Human,,,,,0,1,1,6,0,0,0,7,,,,,,,,,,,,,,,,,,,,,,,,,,,,,,,,,,,,,,,,,,,,,,,,,,,,,1379.2343599276937,None,1379.2343599276937,None,1382.3167972565716,None,1382.3167972565716,None,1382.766996068669,None,1382.766996068669,None,None,,1382.766996068669,None,t,10.735721537952486,1382.766996068669,None,13,10.735721537952486,9,False,False,False,1395.7972155078241,None,1395.7972155078241,None,1395.7972155078241,None,1395.7972155078241,None,1395.7972155078241,None,1395.7972155078241,None,1396.8142131002678,None,1396.8142131002678,None,h,,,,,,,,,,,,,,,,,,,,,,,,,,,11_12,001,2021_Apr_08_1634,ComputerHuman,2020.1.3,60.094519853143,
Human.xlsx,h,Sychronize.jpg,Number8.jpg,8,Human,,,,,0,1,1,6,0,1,1,4,,,,,,,,,,,,,,,,,,,,,,,,,,,,,,,,,,,,,,,,,,,,,,,,,,,,,,,,,1397.880653072487,None,1397.880653072487,None,1398.3306347070284,None,1398.3306347070284,None,v,9.024048003615462,1398.3306347070284,None,t,9.235778478891007,1398.3306347070284,None,9.024048003615462,9.235778478891007,8,True,False,False,1407.628725501363,None,1407.628725501363,None,1407.628725501363,None,1407.628725501363,None,1407.628725501363,None,1407.628725501363,None,1408.6453355746162,None,1408.6453355746162,None,h,,,,,,,,,,,,,,,,,,,,,,,,,,,11_12,001,2021_Apr_08_1634,ComputerHuman,2020.1.3,60.094519853143,
Human.xlsx,h,Sychronize.jpg,Number6.jpg,6,Human,,,,,0,1,1,6,0,2,2,0,,,,,,,,,,,,,,,,,,,,,,,,,,,,,,,,,,,,,,,,,,,,,,,,,,,,,,,,,1409.6950891246015,None,1409.6950891246015,None,1410.1282922690261,None,1410.1282922690261,None,v,8.134120775743213,1410.1282922690261,None,t,7.701745279915485,1410.1282922690261,None,8.134120775743213,7.701745279915485,6,False,False,False,1418.3267434754525,None,1418.3267434754525,None,1418.3267434754525,None,1418.3267434754525,None,1418.3267434754525,None,1418.3267434754525,None,1419.343234854914,None,1419.343234854914,None,h,,,,,,,,,,,,,,,,,,,,,,,,,,,11_12,001,2021_Apr_08_1634,ComputerHuman,2020.1.3,60.094519853143,
Human.xlsx,h,Sychronize.jpg,Number7.jpg,7,Human,,,,,0,1,1,6,0,3,3,3,,,,,,,,,,,,,,,,,,,,,,,,,,,,,,,,,,,,,,,,,,,,,,,,,,,,,,,,,1420.392813251361,None,1420.392813251361,None,1420.8428940112572,None,1420.8428940112572,None,v,9.83137461845763,1420.8428940112572,None,t,8.542761362925376,1420.8428940112572,None,9.83137461845763,8.542761362925376,7,False,False,False,1430.724386601716,None,1430.724386601716,None,1430.724386601716,None,1430.724386601716,None,1430.724386601716,None,1430.724386601716,None,1431.7408657910055,None,1431.7408657910055,None,h,,,,,,,,,,,,,,,,,,,,,,,,,,,11_12,001,2021_Apr_08_1634,ComputerHuman,2020.1.3,60.094519853143,
Human.xlsx,h,Sychronize.jpg,Number9.jpg,9,Human,,,,,0,1,1,6,0,4,4,6,,,,,,,,,,,,,,,,,,,,,,,,,,,,,,,,,,,,,,,,,,,,,,,,,,,,,,,,,1432.7906299271963,None,1432.7906299271963,None,1433.2406237519099,None,1433.2406237519099,None,v,11.141171828512597,1433.2406237519099,None,t,10.568761077418458,1433.2406237519099,None,11.141171828512597,10.568761077418458,9,False,False,False,1444.4383887799086,None,1444.4383887799086,None,1444.4383887799086,None,1444.4383887799086,None,1444.4383887799086,None,1444.4383887799086,None,1445.438095253372,None,1445.438095253372,None,h,,,,,,,,,,,,,,,,,,,,,,,,,,,11_12,001,2021_Apr_08_1634,ComputerHuman,2020.1.3,60.094519853143,
Human.xlsx,h,Sychronize.jpg,Number10.jpg,10,Human,,,,,0,1,1,6,0,5,5,9,,,,,,,,,,,,,,,,,,,,,,,,,,,,,,,,,,,,,,,,,,,,,,,,,,,,,,,,,1446.4877387710076,None,1446.4877387710076,None,1446.937908711643,None,1446.937908711643,None,None,,1446.937908711643,None,t,11.074681491627416,1446.937908711643,None,13,11.074681491627416,10,False,False,False,1459.985405154839,None,1459.985405154839,None,1459.985405154839,None,1459.985405154839,None,1459.985405154839,None,1459.985405154839,None,1460.9851494819995,None,1460.9851494819995,None,h,,,,,,,,,,,,,,,,,,,,,,,,,,,11_12,001,2021_Apr_08_1634,ComputerHuman,2020.1.3,60.094519853143,
Human.xlsx,h,Sychronize.jpg,Number7.jpg,7,Human,,,,,0,1,1,6,0,6,6,2,,,,,,,,,,,,,,,,,,,,,,,,,,,,,,,,,,,,,,,,,,,,,,,,,,,,,,,,,1462.0348202671266,None,1462.0348202671266,None,1462.4848987814657,None,1462.4848987814657,None,v,7.780263788929005,1462.4848987814657,None,None,,1462.4848987814657,None,7.780263788929005,13,7,False,False,False,1475.5323910543375,None,1475.5323910543375,None,1475.5323910543375,None,1475.5323910543375,None,1475.5323910543375,None,1475.5323910543375,None,1476.5321244744991,None,1476.5321244744991,None,h,,,,,,,,,,,,,,,,,,,,,,,,,,,11_12,001,2021_Apr_08_1634,ComputerHuman,2020.1.3,60.094519853143,
Human.xlsx,h,Sychronize.jpg,Number6.jpg,6,Human,,,,,0,1,1,6,0,7,7,1,,,,,,,,,,,,,,,,,,,,,,,,,,,,,,,,,,,,,,,,,,,,,,,,,,,,,,,,,1477.5983960298545,None,1477.5983960298545,None,1478.0318898136684,None,1478.0318898136684,None,None,,1478.0318898136684,None,t,7.411794634077523,1478.0318898136684,None,13,7.411794634077523,6,False,False,False,1491.0792941889777,None,1491.0792941889777,None,1491.0792941889777,None,1491.0792941889777,None,1491.0792941889777,None,1491.0792941889777,None,1492.0791568891327,None,1492.0791568891327,None,h,,,,,,,,,,,,,,,,,,,,,,,,,,,11_12,001,2021_Apr_08_1634,ComputerHuman,2020.1.3,60.094519853143,
Human.xlsx,h,Sychronize.jpg,Number10.jpg,10,Human,,,,,0,1,1,6,0,8,8,8,,,,,,,,,,,,,,,,,,,,,,,,,,,,,,,,,,,,,,,,,,,,,,,,,,,,,,,,,1493.1455939742045,None,1493.1455939742045,None,1493.578825990091,None,1493.578825990091,None,v,10.773467125829484,1493.578825990091,None,t,11.684709512985137,1493.578825990091,None,10.773467125829484,11.684709512985137,10,False,False,False,1505.3266215737203,None,1505.3266215737203,None,1505.3266215737203,None,1505.3266215737203,None,1505.3266215737203,None,1505.3266215737203,None,1506.343071570751,None,1506.343071570751,None,h,,,,,,,,,,,,,,,,,,,,,,,,,,,11_12,001,2021_Apr_08_1634,ComputerHuman,2020.1.3,60.094519853143,
Human.xlsx,h,Sychronize.jpg,Number8.jpg,8,Human,,,,,0,1,1,6,0,9,9,5,,,,,,,,,,,,,,,,,,,,,,,,,,,,,,,,,,,,,,,,,,,,,,,,,,,,,,,,,1507.3925890163337,None,1507.3925890163337,None,1507.826055211859,None,1507.826055211859,None,v,8.953941355641291,1507.826055211859,None,t,9.212815400678664,1507.826055211859,None,8.953941355641291,9.212815400678664,8,True,False,False,1517.1076607218201,None,1517.1076607218201,None,1517.1076607218201,None,1517.1076607218201,None,1517.1076607218201,None,1517.1076607218201,None,1518.1074640750776,None,1518.1074640750776,None,h,,,,,,,,,,,,,,,,,,,,,,,,,,,11_12,001,2021_Apr_08_1634,ComputerHuman,2020.1.3,60.094519853143,
Human.xlsx,h,,,,,,,,,0,1,1,6,,,,,,,,,,,,,,,,,,,,,,,,,,,,,,,,,,,,,,,,,,,,,,,,,,,,,,,,,,,,,,,,,,,,,,,,,,,,,,,,,,,,,,,,,,,,,,,,,,,h,1519.106693207028,None,1519.106693207028,None,q,1,23.97266161202424,1519.106693207028,None,o,1,2.516950596116658,1519.106693207028,None,h,h,1543.1359624542674,None,None,None,None,None,None,,,,11_12,001,2021_Apr_08_1634,ComputerHuman,2020.1.3,60.094519853143,
Human.xlsx,h,Sychronize.jpg,Number9.jpg,9,Human,,,,,0,2,2,0,0,0,0,6,,,,,,,,,,,,,,,,,,,,,,,,,,,,,,,,,,,,,,,,,,,,,,,,,,,,,1548.1516133533732,None,1548.1516133533732,None,1551.234350303872,None,1551.234350303872,None,1551.6675836029353,None,1551.6675836029353,None,v,8.76730082299764,1551.6675836029353,None,t,9.855128453946236,1551.6675836029353,None,8.76730082299764,9.855128453946236,9,False,False,False,1561.5823354767708,None,1561.5823354767708,None,1561.5823354767708,None,1561.5823354767708,None,1561.5823354767708,None,1561.5823354767708,None,1562.5821567944986,None,1562.5821567944986,None,h,,,,,,,,,,,,,,,,,,,,,,,,,,,11_12,001,2021_Apr_08_1634,ComputerHuman,2020.1.3,60.094519853143,
Human.xlsx,h,Sychronize.jpg,Number6.jpg,6,Human,,,,,0,2,2,0,0,1,1,1,,,,,,,,,,,,,,,,,,,,,,,,,,,,,,,,,,,,,,,,,,,,,,,,,,,,,,,,,1563.6486320540607,None,1563.6486320540607,None,1564.0818377648357,None,1564.0818377648357,None,v,9.436727066837193,1564.0818377648357,None,t,6.919792189626605,1564.0818377648357,None,9.436727066837193,6.919792189626605,6,False,False,False,1573.58008767301,None,1573.58008767301,None,1573.58008767301,None,1573.58008767301,None,1573.58008767301,None,1573.58008767301,None,1574.5798098653795,None,1574.5798098653795,None,h,,,,,,,,,,,,,,,,,,,,,,,,,,,11_12,001,2021_Apr_08_1634,ComputerHuman,2020.1.3,60.094519853143,
Human.xlsx,h,Sychronize.jpg,Number10.jpg,10,Human,,,,,0,2,2,0,0,2,2,8,,,,,,,,,,,,,,,,,,,,,,,,,,,,,,,,,,,,,,,,,,,,,,,,,,,,,,,,,1575.646360832332,None,1575.646360832332,None,1576.0795841867803,None,1576.0795841867803,None,v,10.106659844448586,1576.0795841867803,None,t,11.541681570222863,1576.0795841867803,None,10.106659844448586,11.541681570222863,10,False,False,False,1587.6774095240544,None,1587.6774095240544,None,1587.6774095240544,None,1587.6774095240544,None,1587.6774095240544,None,1587.6774095240544,None,1588.6938062692789,None,1588.6938062692789,None,h,,,,,,,,,,,,,,,,,,,,,,,,,,,11_12,001,2021_Apr_08_1634,ComputerHuman,2020.1.3,60.094519853143,
Human.xlsx,h,Sychronize.jpg,Number9.jpg,9,Human,,,,,0,2,2,0,0,3,3,7,,,,,,,,,,,,,,,,,,,,,,,,,,,,,,,,,,,,,,,,,,,,,,,,,,,,,,,,,1589.7436188453648,None,1589.7436188453648,None,1590.1768332175816,None,1590.1768332175816,None,v,9.621073601378157,1590.1768332175816,None,t,10.960690862018964,1590.1768332175816,None,9.621073601378157,10.960690862018964,9,False,False,False,1601.1913802644303,None,1601.1913802644303,None,1601.1913802644303,None,1601.1913802644303,None,1601.1913802644303,None,1601.1913802644303,None,1602.2078745310391,None,1602.2078745310391,None,h,,,,,,,,,,,,,,,,,,,,,,,,,,,11_12,001,2021_Apr_08_1634,ComputerHuman,2020.1.3,60.094519853143,
Human.xlsx,h,Sychronize.jpg,Number6.jpg,6,Human,,,,,0,2,2,0,0,4,4,0,,,,,,,,,,,,,,,,,,,,,,,,,,,,,,,,,,,,,,,,,,,,,,,,,,,,,,,,,1603.2407498239663,None,1603.2407498239663,None,1603.7075308002386,None,1603.7075308002386,None,v,8.778132112605817,1603.7075308002386,None,t,7.681686350053496,1603.7075308002386,None,8.778132112605817,7.681686350053496,6,False,False,False,1612.5391132932236,None,1612.5391132932236,None,1612.5391132932236,None,1612.5391132932236,None,1612.5391132932236,None,1612.5391132932236,None,1613.5388666026156,None,1613.5388666026156,None,h,,,,,,,,,,,,,,,,,,,,,,,,,,,11_12,001,2021_Apr_08_1634,ComputerHuman,2020.1.3,60.094519853143,
Human.xlsx,h,Sychronize.jpg,Number7.jpg,7,Human,,,,,0,2,2,0,0,5,5,3,,,,,,,,,,,,,,,,,,,,,,,,,,,,,,,,,,,,,,,,,,,,,,,,,,,,,,,,,1614.6052177148886,None,1614.6052177148886,None,1615.0553084193998,None,1615.0553084193998,None,v,6.546050784902036,1615.0553084193998,None,t,8.493819101040572,1615.0553084193998,None,6.546050784902036,8.493819101040572,7,False,False,False,1623.6037446287046,None,1623.6037446287046,None,1623.6037446287046,None,1623.6037446287046,None,1623.6037446287046,None,1623.6037446287046,None,1624.6034459694638,None,1624.6034459694638,None,h,,,,,,,,,,,,,,,,,,,,,,,,,,,11_12,001,2021_Apr_08_1634,ComputerHuman,2020.1.3,60.094519853143,
Human.xlsx,h,Sychronize.jpg,Number8.jpg,8,Human,,,,,0,2,2,0,0,6,6,5,,,,,,,,,,,,,,,,,,,,,,,,,,,,,,,,,,,,,,,,,,,,,,,,,,,,,,,,,1625.669743829927,None,1625.669743829927,None,1626.10317698367,None,1626.10317698367,None,v,7.973878704568051,1626.10317698367,None,t,9.77678766482859,1626.10317698367,None,7.973878704568051,9.77678766482859,8,False,False,False,1635.9346840900616,None,1635.9346840900616,None,1635.9346840900616,None,1635.9346840900616,None,1635.9346840900616,None,1635.9346840900616,None,1636.9511356910625,None,1636.9511356910625,None,h,,,,,,,,,,,,,,,,,,,,,,,,,,,11_12,001,2021_Apr_08_1634,ComputerHuman,2020.1.3,60.094519853143,
Human.xlsx,h,Sychronize.jpg,Number10.jpg,10,Human,,,,,0,2,2,0,0,7,7,9,,,,,,,,,,,,,,,,,,,,,,,,,,,,,,,,,,,,,,,,,,,,,,,,,,,,,,,,,1638.0007349391235,None,1638.0007349391235,None,1638.450853552713,None,1638.450853552713,None,v,8.70990403446558,1638.450853552713,None,t,12.500650089099508,1638.450853552713,None,8.70990403446558,12.500650089099508,10,False,False,False,1651.0150795649388,None,1651.0150795649388,None,1651.0150795649388,None,1651.0150795649388,None,1651.0150795649388,None,1651.0150795649388,None,1652.0315080687724,None,1652.0315080687724,None,h,,,,,,,,,,,,,,,,,,,,,,,,,,,11_12,001,2021_Apr_08_1634,ComputerHuman,2020.1.3,60.094519853143,
Human.xlsx,h,Sychronize.jpg,Number8.jpg,8,Human,,,,,0,2,2,0,0,8,8,4,,,,,,,,,,,,,,,,,,,,,,,,,,,,,,,,,,,,,,,,,,,,,,,,,,,,,,,,,1653.081417845453,None,1653.081417845453,None,1653.5312891268477,None,1653.5312891268477,None,v,7.777121932209411,1653.5312891268477,None,t,9.448739199266129,1653.5312891268477,None,7.777121932209411,9.448739199266129,8,False,False,False,1663.0294158501129,None,1663.0294158501129,None,1663.0294158501129,None,1663.0294158501129,None,1663.0294158501129,None,1663.0294158501129,None,1664.029163064417,None,1664.029163064417,None,h,,,,,,,,,,,,,,,,,,,,,,,,,,,11_12,001,2021_Apr_08_1634,ComputerHuman,2020.1.3,60.094519853143,
Human.xlsx,h,Sychronize.jpg,Number7.jpg,7,Human,,,,,0,2,2,0,0,9,9,2,,,,,,,,,,,,,,,,,,,,,,,,,,,,,,,,,,,,,,,,,,,,,,,,,,,,,,,,,1665.0953755936716,None,1665.0953755936716,None,1665.545644980455,None,1665.545644980455,None,v,8.170377558530163,1665.545644980455,None,t,8.465777532550419,1665.545644980455,None,8.170377558530163,8.465777532550419,7,True,False,False,1674.0772654875364,None,1674.0772654875364,None,1674.0772654875364,None,1674.0772654875364,None,1674.0772654875364,None,1674.0772654875364,None,1675.0937389025312,None,1675.0937389025312,None,h,,,,,,,,,,,,,,,,,,,,,,,,,,,11_12,001,2021_Apr_08_1634,ComputerHuman,2020.1.3,60.094519853143,
Human.xlsx,h,,,,,,,,,0,2,2,0,,,,,,,,,,,,,,,,,,,,,,,,,,,,,,,,,,,,,,,,,,,,,,,,,,,,,,,,,,,,,,,,,,,,,,,,,,,,,,,,,,,,,,,,,,,,,,,,,,,h,1676.0769206339537,None,1676.0769206339537,None,q,1,7.554896038673178,1676.0769206339537,None,l,0,12.057679087276483,1676.0769206339537,None,h,c,1688.1912185842411,None,None,None,None,None,None,,,,11_12,001,2021_Apr_08_1634,ComputerHuman,2020.1.3,60.094519853143,
Computer.xlsx,c,Sychronize.jpg,Number7.jpg,7,Computer,,,,,0,3,3,3,0,0,0,3,,,,,,,,,,,,,,,,,,,,,,,,,,,,,,,,,,,,,,,,,,,,,,,,,,,,,1693.1901978176393,None,1693.1901978176393,None,1696.2729662059537,None,1696.2729662059537,None,1696.7061526690886,None,1696.7061526690886,None,v,6.44119829401825,1696.7061526690886,None,t,8.480822772526153,1696.7061526690886,None,6.44119829401825,8.480822772526153,7,False,False,False,1705.238003506278,None,1705.238003506278,None,1705.238003506278,None,1705.238003506278,None,1705.238003506278,None,1705.238003506278,None,1706.2543251856987,None,1706.2543251856987,None,c,,,,,,,,,,,,,,,,,,,,,,,,,,,11_12,001,2021_Apr_08_1634,ComputerHuman,2020.1.3,60.094519853143,
Computer.xlsx,c,Sychronize.jpg,Number6.jpg,6,Computer,,,,,0,3,3,3,0,1,1,1,,,,,,,,,,,,,,,,,,,,,,,,,,,,,,,,,,,,,,,,,,,,,,,,,,,,,,,,,1707.3038984494415,None,1707.3038984494415,None,1707.737376193556,None,1707.737376193556,None,v,6.06566878337253,1707.737376193556,None,t,8.088790013040125,1707.737376193556,None,6.06566878337253,8.088790013040125,6,False,True,False,1715.9025280173482,None,1715.9025280173482,None,1715.9025280173482,None,1715.9025280173482,None,1715.9025280173482,None,1715.9025280173482,None,1716.9022643246572,None,1716.9022643246572,None,c,,,,,,,,,,,,,,,,,,,,,,,,,,,11_12,001,2021_Apr_08_1634,ComputerHuman,2020.1.3,60.094519853143,
Computer.xlsx,c,Sychronize.jpg,Number7.jpg,7,Computer,,,,,0,3,3,3,0,2,2,2,,,,,,,,,,,,,,,,,,,,,,,,,,,,,,,,,,,,,,,,,,,,,,,,,,,,,,,,,1717.9518513825424,None,1717.9518513825424,None,1718.4020700838737,None,1718.4020700838737,None,v,7.189031410547614,1718.4020700838737,None,t,8.604084991169657,1718.4020700838737,None,7.189031410547614,8.604084991169657,7,False,True,False,1727.067023175765,None,1727.067023175765,None,1727.067023175765,None,1727.067023175765,None,1727.067023175765,None,1727.067023175765,None,1728.0667578791035,None,1728.0667578791035,None,c,,,,,,,,,,,,,,,,,,,,,,,,,,,11_12,001,2021_Apr_08_1634,ComputerHuman,2020.1.3,60.094519853143,
Computer.xlsx,c,Sychronize.jpg,Number9.jpg,9,Computer,,,,,0,3,3,3,0,3,3,7,,,,,,,,,,,,,,,,,,,,,,,,,,,,,,,,,,,,,,,,,,,,,,,,,,,,,,,,,1729.133152298571,None,1729.133152298571,None,1729.566477023931,None,1729.566477023931,None,None,,1729.566477023931,None,t,11.451697241009242,1729.566477023931,None,13,11.451697241009242,9,False,False,False,1742.6140081128797,None,1742.6140081128797,None,1742.6140081128797,None,1742.6140081128797,None,1742.6140081128797,None,1742.6140081128797,None,1743.613792539294,None,1743.613792539294,None,c,,,,,,,,,,,,,,,,,,,,,,,,,,,11_12,001,2021_Apr_08_1634,ComputerHuman,2020.1.3,60.094519853143,
Computer.xlsx,c,Sychronize.jpg,Number6.jpg,6,Computer,,,,,0,3,3,3,0,4,4,0,,,,,,,,,,,,,,,,,,,,,,,,,,,,,,,,,,,,,,,,,,,,,,,,,,,,,,,,,1744.6799774802603,None,1744.6799774802603,None,1745.113462602636,None,1745.113462602636,None,v,5.256715101219015,1745.113462602636,None,t,9.19579503186469,1745.113462602636,None,5.256715101219015,9.19579503186469,6,False,False,False,1754.3617449912017,None,1754.3617449912017,None,1754.3617449912017,None,1754.3617449912017,None,1754.3617449912017,None,1754.3617449912017,None,1755.3782212933475,None,1755.3782212933475,None,c,,,,,,,,,,,,,,,,,,,,,,,,,,,11_12,001,2021_Apr_08_1634,ComputerHuman,2020.1.3,60.094519853143,
Computer.xlsx,c,Sychronize.jpg,Number10.jpg,10,Computer,,,,,0,3,3,3,0,5,5,9,,,,,,,,,,,,,,,,,,,,,,,,,,,,,,,,,,,,,,,,,,,,,,,,,,,,,,,,,1756.4277810837375,None,1756.4277810837375,None,1756.8779311351464,None,1756.8779311351464,None,v,5.807936765078921,1756.8779311351464,None,None,,1756.8779311351464,None,5.807936765078921,13,10,False,False,False,1769.9253922909993,None,1769.9253922909993,None,1769.9253922909993,None,1769.9253922909993,None,1769.9253922909993,None,1769.9253922909993,None,1770.9418631396438,None,1770.9418631396438,None,c,,,,,,,,,,,,,,,,,,,,,,,,,,,11_12,001,2021_Apr_08_1634,ComputerHuman,2020.1.3,60.094519853143,
Computer.xlsx,c,Sychronize.jpg,Number8.jpg,8,Computer,,,,,0,3,3,3,0,6,6,5,,,,,,,,,,,,,,,,,,,,,,,,,,,,,,,,,,,,,,,,,,,,,,,,,,,,,,,,,1771.991659355237,None,1771.991659355237,None,1772.4416034568785,None,1772.4416034568785,None,v,10.475759359564108,1772.4416034568785,None,t,9.890727929774584,1772.4416034568785,None,10.475759359564108,9.890727929774584,8,False,False,False,1782.9895472473472,None,1782.9895472473472,None,1782.9895472473472,None,1782.9895472473472,None,1782.9895472473472,None,1782.9895472473472,None,1783.9896874343394,None,1783.9896874343394,None,c,,,,,,,,,,,,,,,,,,,,,,,,,,,11_12,001,2021_Apr_08_1634,ComputerHuman,2020.1.3,60.094519853143,
Computer.xlsx,c,Sychronize.jpg,Number10.jpg,10,Computer,,,,,0,3,3,3,0,7,7,8,,,,,,,,,,,,,,,,,,,,,,,,,,,,,,,,,,,,,,,,,,,,,,,,,,,,,,,,,1785.0391246814106,None,1785.0391246814106,None,1785.4890751989333,None,1785.4890751989333,None,v,7.076004446204024,1785.4890751989333,None,None,,1785.4890751989333,None,7.076004446204024,13,10,False,False,False,1798.5531874896733,None,1798.5531874896733,None,1798.5531874896733,None,1798.5531874896733,None,1798.5531874896733,None,1798.5531874896733,None,1799.553027092661,None,1799.553027092661,None,c,,,,,,,,,,,,,,,,,,,,,,,,,,,11_12,001,2021_Apr_08_1634,ComputerHuman,2020.1.3,60.094519853143,
Computer.xlsx,c,Sychronize.jpg,Number9.jpg,9,Computer,,,,,0,3,3,3,0,8,8,6,,,,,,,,,,,,,,,,,,,,,,,,,,,,,,,,,,,,,,,,,,,,,,,,,,,,,,,,,1800.602530102511,None,1800.602530102511,None,1801.0527269898448,None,1801.0527269898448,None,v,5.812042607860349,1801.0527269898448,None,t,11.350659953517606,1801.0527269898448,None,5.812042607860349,11.350659953517606,9,False,False,False,1812.467125829855,None,1812.467125829855,None,1812.467125829855,None,1812.467125829855,None,1812.467125829855,None,1812.467125829855,None,1813.4669394485245,None,1813.4669394485245,None,c,,,,,,,,,,,,,,,,,,,,,,,,,,,11_12,001,2021_Apr_08_1634,ComputerHuman,2020.1.3,60.094519853143,
Computer.xlsx,c,Sychronize.jpg,Number8.jpg,8,Computer,,,,,0,3,3,3,0,9,9,4,,,,,,,,,,,,,,,,,,,,,,,,,,,,,,,,,,,,,,,,,,,,,,,,,,,,,,,,,1814.533413745703,None,1814.533413745703,None,1814.983361055285,None,1814.983361055285,None,v,6.692993698001374,1814.983361055285,None,t,11.943686532904394,1814.983361055285,None,6.692993698001374,11.943686532904394,8,False,False,False,1826.980971781355,None,1826.980971781355,None,1826.980971781355,None,1826.980971781355,None,1826.980971781355,None,1826.980971781355,None,1827.9808672024992,None,1827.9808672024992,None,c,,,,,,,,,,,,,,,,,,,,,,,,,,,11_12,001,2021_Apr_08_1634,ComputerHuman,2020.1.3,60.094519853143,
Computer.xlsx,c,,,,,,,,,0,3,3,3,,,,,,,,,,,,,,,,,,,,,,,,,,,,,,,,,,,,,,,,,,,,,,,,,,,,,,,,,,,,,,,,,,,,,,,,,,,,,,,,,,,,,,,,,,,,,,,,,,,c,1828.9806086425124,None,1828.9806086425124,None,a,1,5.267439245621063,1828.9806086425124,None,o,0,3.1748911305294314,1828.9806086425124,None,c,h,None,None,1834.3128909476727,None,"['space', 'space']",1835.2961044377043,None,"[4.843852223020804, 10.679763189848018]",,,11_12,001,2021_Apr_08_1634,ComputerHuman,2020.1.3,60.094519853143,
Computer.xlsx,c,Sychronize.jpg,Number8.jpg,8,Computer,,,,,0,4,4,1,0,0,0,5,,,,,,,,,,,,,,,,,,,,,,,,,,,,,,,,,,,,,,,,,,,,,,,,,,,,,1846.0106195655499,None,1846.0106195655499,None,1849.0934803425444,None,1849.0934803425444,None,1849.5433455288548,None,1849.5433455288548,None,v,8.028104444118071,1849.5433455288548,None,t,11.21571056679386,1849.5433455288548,None,8.028104444118071,11.21571056679386,8,False,True,False,1860.8245016063775,None,1860.8245016063775,None,1860.8245016063775,None,1860.8245016063775,None,1860.8245016063775,None,1860.8245016063775,None,1861.8243158666337,None,1861.8243158666337,None,c,,,,,,,,,,,,,,,,,,,,,,,,,,,11_12,001,2021_Apr_08_1634,ComputerHuman,2020.1.3,60.094519853143,
Computer.xlsx,c,Sychronize.jpg,Number7.jpg,7,Computer,,,,,0,4,4,1,0,1,1,2,,,,,,,,,,,,,,,,,,,,,,,,,,,,,,,,,,,,,,,,,,,,,,,,,,,,,,,,,1862.8738474271522,None,1862.8738474271522,None,1863.323943585161,None,1863.323943585161,None,v,7.367246608806454,1863.323943585161,None,t,8.726782612324314,1863.323943585161,None,7.367246608806454,8.726782612324314,7,False,False,False,1872.105622396557,None,1872.105622396557,None,1872.105622396557,None,1872.105622396557,None,1872.105622396557,None,1872.105622396557,None,1873.122119550313,None,1873.122119550313,None,c,,,,,,,,,,,,,,,,,,,,,,,,,,,11_12,001,2021_Apr_08_1634,ComputerHuman,2020.1.3,60.094519853143,
Computer.xlsx,c,Sychronize.jpg,Number9.jpg,9,Computer,,,,,0,4,4,1,0,2,2,7,,,,,,,,,,,,,,,,,,,,,,,,,,,,,,,,,,,,,,,,,,,,,,,,,,,,,,,,,1874.1718868944408,None,1874.1718868944408,None,1874.6050935675994,None,1874.6050935675994,None,v,11.245689731222228,1874.6050935675994,None,t,12.372669311080244,1874.6050935675994,None,11.245689731222228,12.372669311080244,9,False,False,False,1887.0361313523244,None,1887.0361313523244,None,1887.0361313523244,None,1887.0361313523244,None,1887.0361313523244,None,1887.0361313523244,None,1888.0525624225083,None,1888.0525624225083,None,c,,,,,,,,,,,,,,,,,,,,,,,,,,,11_12,001,2021_Apr_08_1634,ComputerHuman,2020.1.3,60.094519853143,
Computer.xlsx,c,Sychronize.jpg,Number8.jpg,8,Computer,,,,,0,4,4,1,0,3,3,4,,,,,,,,,,,,,,,,,,,,,,,,,,,,,,,,,,,,,,,,,,,,,,,,,,,,,,,,,1889.102120929725,None,1889.102120929725,None,1889.5522623196957,None,1889.5522623196957,None,v,7.898302197601879,1889.5522623196957,None,t,10.265728130267235,1889.5522623196957,None,7.898302197601879,10.265728130267235,8,False,True,False,1899.900267381825,None,1899.900267381825,None,1899.900267381825,None,1899.900267381825,None,1899.900267381825,None,1899.900267381825,None,1900.9000502042654,None,1900.9000502042654,None,c,,,,,,,,,,,,,,,,,,,,,,,,,,,11_12,001,2021_Apr_08_1634,ComputerHuman,2020.1.3,60.094519853143,
Computer.xlsx,c,Sychronize.jpg,Number6.jpg,6,Computer,,,,,0,4,4,1,0,4,4,1,,,,,,,,,,,,,,,,,,,,,,,,,,,,,,,,,,,,,,,,,,,,,,,,,,,,,,,,,1901.949850590183,None,1901.949850590183,None,1902.3997879551462,None,1902.3997879551462,None,v,8.51831140439026,1902.3997879551462,None,t,6.117826043024252,1902.3997879551462,None,8.51831140439026,6.117826043024252,6,False,False,True,1910.9814131939384,None,1910.9814131939384,None,1910.9814131939384,None,1910.9814131939384,None,1910.9814131939384,None,1910.9814131939384,None,1911.9811969787625,None,1911.9811969787625,None,c,,,,,,,,,,,,,,,,,,,,,,,,,,,11_12,001,2021_Apr_08_1634,ComputerHuman,2020.1.3,60.094519853143,
Computer.xlsx,c,Sychronize.jpg,Number9.jpg,9,Computer,,,,,0,4,4,1,0,5,5,6,,,,,,,,,,,,,,,,,,,,,,,,,,,,,,,,,,,,,,,,,,,,,,,,,,,,,,,,,1913.0307035173464,None,1913.0307035173464,None,1913.4809542980802,None,1913.4809542980802,None,v,8.936902059977001,1913.4809542980802,None,t,9.159792959533661,1913.4809542980802,None,8.936902059977001,9.159792959533661,9,False,True,True,1922.6958641629753,None,1922.6958641629753,None,1922.6958641629753,None,1922.6958641629753,None,1922.6958641629753,None,1922.6958641629753,None,1923.712340465121,None,1923.712340465121,None,c,,,,,,,,,,,,,,,,,,,,,,,,,,,11_12,001,2021_Apr_08_1634,ComputerHuman,2020.1.3,60.094519853143,
Computer.xlsx,c,Sychronize.jpg,Number10.jpg,10,Computer,,,,,0,4,4,1,0,6,6,9,,,,,,,,,,,,,,,,,,,,,,,,,,,,,,,,,,,,,,,,,,,,,,,,,,,,,,,,,1924.761907633776,None,1924.761907633776,None,1925.1952987635013,None,1925.1952987635013,None,v,7.254315882673836,1925.1952987635013,None,t,10.293720296478568,1925.1952987635013,None,7.254315882673836,10.293720296478568,10,False,False,True,1935.543354190293,None,1935.543354190293,None,1935.543354190293,None,1935.543354190293,None,1935.543354190293,None,1935.543354190293,None,1936.5598089992345,None,1936.5598089992345,None,c,,,,,,,,,,,,,,,,,,,,,,,,,,,11_12,001,2021_Apr_08_1634,ComputerHuman,2020.1.3,60.094519853143,
Computer.xlsx,c,Sychronize.jpg,Number10.jpg,10,Computer,,,,,0,4,4,1,0,7,7,8,,,,,,,,,,,,,,,,,,,,,,,,,,,,,,,,,,,,,,,,,,,,,,,,,,,,,,,,,1937.609298214942,None,1937.609298214942,None,1938.0595505996462,None,1938.0595505996462,None,v,5.713767036166246,1938.0595505996462,None,None,,1938.0595505996462,None,5.713767036166246,13,10,False,False,False,1951.1236693062674,None,1951.1236693062674,None,1951.1236693062674,None,1951.1236693062674,None,1951.1236693062674,None,1951.1236693062674,None,1952.1235515748594,None,1952.1235515748594,None,c,,,,,,,,,,,,,,,,,,,,,,,,,,,11_12,001,2021_Apr_08_1634,ComputerHuman,2020.1.3,60.094519853143,
Computer.xlsx,c,Sychronize.jpg,Number7.jpg,7,Computer,,,,,0,4,4,1,0,8,8,3,,,,,,,,,,,,,,,,,,,,,,,,,,,,,,,,,,,,,,,,,,,,,,,,,,,,,,,,,1953.1730696620289,None,1953.1730696620289,None,1953.6231978994401,None,1953.6231978994401,None,v,8.609685734129016,1953.6231978994401,None,None,,1953.6231978994401,None,8.609685734129016,13,7,False,False,False,1966.687341948793,None,1966.687341948793,None,1966.687341948793,None,1966.687341948793,None,1966.687341948793,None,1966.687341948793,None,1967.6871674368413,None,1967.6871674368413,None,c,,,,,,,,,,,,,,,,,,,,,,,,,,,11_12,001,2021_Apr_08_1634,ComputerHuman,2020.1.3,60.094519853143,
Computer.xlsx,c,Sychronize.jpg,Number6.jpg,6,Computer,,,,,0,4,4,1,0,9,9,0,,,,,,,,,,,,,,,,,,,,,,,,,,,,,,,,,,,,,,,,,,,,,,,,,,,,,,,,,1968.7366986765664,None,1968.7366986765664,None,1969.1868047791904,None,1969.1868047791904,None,v,10.337610693990428,1969.1868047791904,None,t,8.321086593536165,1969.1868047791904,None,10.337610693990428,8.321086593536165,6,False,False,False,1979.584871032781,None,1979.584871032781,None,1979.584871032781,None,1979.584871032781,None,1979.584871032781,None,1979.584871032781,None,1980.5845983578547,None,1980.5845983578547,None,c,,,,,,,,,,,,,,,,,,,,,,,,,,,11_12,001,2021_Apr_08_1634,ComputerHuman,2020.1.3,60.094519853143,
Computer.xlsx,c,,,,,,,,,0,4,4,1,,,,,,,,,,,,,,,,,,,,,,,,,,,,,,,,,,,,,,,,,,,,,,,,,,,,,,,,,,,,,,,,,,,,,,,,,,,,,,,,,,,,,,,,,,,,,,,,,,,c,1981.6011214959253,None,1981.6011214959253,None,q,0,6.111139412274497,1981.6011214959253,None,o,0,3.7909410974061757,1981.6011214959253,None,h,h,1987.7665257846238,None,None,None,None,None,None,,,,11_12,001,2021_Apr_08_1634,ComputerHuman,2020.1.3,60.094519853143,
Computer.xlsx,c,Sychronize.jpg,Number8.jpg,8,Computer,,,,,0,5,5,9,0,0,0,4,,,,,,,,,,,,,,,,,,,,,,,,,,,,,,,,,,,,,,,,,,,,,,,,,,,,,1992.7656015770226,None,1992.7656015770226,None,1995.8314766309559,None,1995.8314766309559,None,1996.2815583532356,None,1996.2815583532356,None,v,3.734419755779527,1996.2815583532356,None,t,8.722035502276412,1996.2815583532356,None,3.734419755779527,8.722035502276412,8,False,False,False,2005.0632175961946,None,2005.0632175961946,None,2005.0632175961946,None,2005.0632175961946,None,2005.0632175961946,None,2005.0632175961946,None,2006.0797246945658,None,2006.0797246945658,None,c,,,,,,,,,,,,,,,,,,,,,,,,,,,11_12,001,2021_Apr_08_1634,ComputerHuman,2020.1.3,60.094519853143,
Computer.xlsx,c,Sychronize.jpg,Number10.jpg,10,Computer,,,,,0,5,5,9,0,1,1,9,,,,,,,,,,,,,,,,,,,,,,,,,,,,,,,,,,,,,,,,,,,,,,,,,,,,,,,,,2007.1294981337815,None,2007.1294981337815,None,2007.56270480694,None,2007.56270480694,None,v,8.72085722580232,2007.56270480694,None,t,11.563862552589853,2007.56270480694,None,8.72085722580232,11.563862552589853,10,False,False,False,2019.177176146397,None,2019.177176146397,None,2019.177176146397,None,2019.177176146397,None,2019.177176146397,None,2019.177176146397,None,2020.1936704130057,None,2020.1936704130057,None,c,,,,,,,,,,,,,,,,,,,,,,,,,,,11_12,001,2021_Apr_08_1634,ComputerHuman,2020.1.3,60.094519853143,
Computer.xlsx,c,Sychronize.jpg,Number6.jpg,6,Computer,,,,,0,5,5,9,0,2,2,0,,,,,,,,,,,,,,,,,,,,,,,,,,,,,,,,,,,,,,,,,,,,,,,,,,,,,,,,,2021.226537365288,None,2021.226537365288,None,2021.6933764052774,None,2021.6933764052774,None,v,3.4339374419541855,2021.6933764052774,None,t,7.812863519786333,2021.6933764052774,None,3.4339374419541855,7.812863519786333,6,False,False,False,2029.558512991356,None,2029.558512991356,None,2029.558512991356,None,2029.558512991356,None,2029.558512991356,None,2029.558512991356,None,2030.558234542139,None,2030.558234542139,None,c,,,,,,,,,,,,,,,,,,,,,,,,,,,11_12,001,2021_Apr_08_1634,ComputerHuman,2020.1.3,60.094519853143,
Computer.xlsx,c,Sychronize.jpg,Number10.jpg,10,Computer,,,,,0,5,5,9,0,3,3,8,,,,,,,,,,,,,,,,,,,,,,,,,,,,,,,,,,,,,,,,,,,,,,,,,,,,,,,,,2031.6245182876664,None,2031.6245182876664,None,2032.0746853411583,None,2032.0746853411583,None,v,0.9724652860786591,2032.0746853411583,None,t,12.96369349413726,2032.0746853411583,None,0.9724652860786591,12.96369349413726,10,False,False,False,2045.0888253003832,None,2045.0888253003832,None,2045.0888253003832,None,2045.0888253003832,None,2045.0888253003832,None,2045.0888253003832,None,2046.0885763642182,None,2046.0885763642182,None,c,,,,,,,,,,,,,,,,,,,,,,,,,,,11_12,001,2021_Apr_08_1634,ComputerHuman,2020.1.3,60.094519853143,
Computer.xlsx,c,Sychronize.jpg,Number8.jpg,8,Computer,,,,,0,5,5,9,0,4,4,5,,,,,,,,,,,,,,,,,,,,,,,,,,,,,,,,,,,,,,,,,,,,,,,,,,,,,,,,,2047.1549034169366,None,2047.1549034169366,None,2047.5882778653722,None,2047.5882778653722,None,v,0.20674469446748844,2047.5882778653722,None,t,10.261745151598006,2047.5882778653722,None,0.20674469446748844,10.261745151598006,8,False,False,False,2057.903011453953,None,2057.903011453953,None,2057.903011453953,None,2057.903011453953,None,2057.903011453953,None,2057.903011453953,None,2058.902782086221,None,2058.902782086221,None,c,,,,,,,,,,,,,,,,,,,,,,,,,,,11_12,001,2021_Apr_08_1634,ComputerHuman,2020.1.3,60.094519853143,
Computer.xlsx,c,Sychronize.jpg,Number7.jpg,7,Computer,,,,,0,5,5,9,0,5,5,2,,,,,,,,,,,,,,,,,,,,,,,,,,,,,,,,,,,,,,,,,,,,,,,,,,,,,,,,,2059.9524323405312,None,2059.9524323405312,None,2060.402478454671,None,2060.402478454671,None,v,7.787816884352651,2060.402478454671,None,None,,2060.402478454671,None,7.787816884352651,13,7,False,False,False,2073.450008902033,None,2073.450008902033,None,2073.450008902033,None,2073.450008902033,None,2073.450008902033,None,2073.450008902033,None,2074.4497445677553,None,2074.4497445677553,None,c,,,,,,,,,,,,,,,,,,,,,,,,,,,11_12,001,2021_Apr_08_1634,ComputerHuman,2020.1.3,60.094519853143,
Computer.xlsx,c,Sychronize.jpg,Number9.jpg,9,Computer,,,,,0,5,5,9,0,6,6,6,,,,,,,,,,,,,,,,,,,,,,,,,,,,,,,,,,,,,,,,,,,,,,,,,,,,,,,,,2075.5159878932354,None,2075.5159878932354,None,2075.9495083029506,None,2075.9495083029506,None,v,7.228382251749281,2075.9495083029506,None,None,,2075.9495083029506,None,7.228382251749281,13,9,False,False,False,2088.9968812404477,None,2088.9968812404477,None,2088.9968812404477,None,2088.9968812404477,None,2088.9968812404477,None,2088.9968812404477,None,2090.0134871433766,None,2090.0134871433766,None,c,,,,,,,,,,,,,,,,,,,,,,,,,,,11_12,001,2021_Apr_08_1634,ComputerHuman,2020.1.3,60.094519853143,
Computer.xlsx,c,Sychronize.jpg,Number9.jpg,9,Computer,,,,,0,5,5,9,0,7,7,7,,,,,,,,,,,,,,,,,,,,,,,,,,,,,,,,,,,,,,,,,,,,,,,,,,,,,,,,,2091.046286087323,None,2091.046286087323,None,2091.49653558488,None,2091.49653558488,None,v,4.493032834870974,2091.49653558488,None,t,5.815835034878546,2091.49653558488,None,4.493032834870974,5.815835034878546,9,False,False,False,2097.395383453124,None,2097.395383453124,None,2097.395383453124,None,2097.395383453124,None,2097.395383453124,None,2097.395383453124,None,2098.395174295416,None,2098.395174295416,None,c,,,,,,,,,,,,,,,,,,,,,,,,,,,11_12,001,2021_Apr_08_1634,ComputerHuman,2020.1.3,60.094519853143,
Computer.xlsx,c,Sychronize.jpg,Number7.jpg,7,Computer,,,,,0,5,5,9,0,8,8,3,,,,,,,,,,,,,,,,,,,,,,,,,,,,,,,,,,,,,,,,,,,,,,,,,,,,,,,,,2099.4449733981564,None,2099.4449733981564,None,2099.894899214538,None,2099.894899214538,None,v,4.594439997879817,2099.894899214538,None,t,7.989746460440074,2099.894899214538,None,4.594439997879817,7.989746460440074,7,False,False,False,2107.9433487367933,None,2107.9433487367933,None,2107.9433487367933,None,2107.9433487367933,None,2107.9433487367933,None,2107.9433487367933,None,2108.9431706961077,None,2108.9431706961077,None,c,,,,,,,,,,,,,,,,,,,,,,,,,,,11_12,001,2021_Apr_08_1634,ComputerHuman,2020.1.3,60.094519853143,
Computer.xlsx,c,Sychronize.jpg,Number6.jpg,6,Computer,,,,,0,5,5,9,0,9,9,1,,,,,,,,,,,,,,,,,,,,,,,,,,,,,,,,,,,,,,,,,,,,,,,,,,,,,,,,,2110.009288911915,None,2110.009288911915,None,2110.4427570322077,None,2110.4427570322077,None,v,0.8384237464561011,2110.4427570322077,None,t,7.18182156473631,2110.4427570322077,None,0.8384237464561011,7.18182156473631,6,False,False,False,2117.6914493955446,None,2117.6914493955446,None,2117.6914493955446,None,2117.6914493955446,None,2117.6914493955446,None,2117.6914493955446,None,2118.691231255605,None,2118.691231255605,None,c,,,,,,,,,,,,,,,,,,,,,,,,,,,11_12,001,2021_Apr_08_1634,ComputerHuman,2020.1.3,60.094519853143,
Computer.xlsx,c,,,,,,,,,0,5,5,9,,,,,,,,,,,,,,,,,,,,,,,,,,,,,,,,,,,,,,,,,,,,,,,,,,,,,,,,,,,,,,,,,,,,,,,,,,,,,,,,,,,,,,,,,,,,,,,,,,,c,2119.6910673298553,None,2119.6910673298553,None,a,1,7.393717890521657,2119.6910673298553,None,l,1,7.308813013973122,2119.6910673298553,None,c,c,2127.1396256012886,None,None,None,None,None,None,,,,11_12,001,2021_Apr_08_1634,ComputerHuman,2020.1.3,60.094519853143,
Human.xlsx,h,Sychronize.jpg,Number10.jpg,10,Human,,,,,0,6,6,2,0,0,0,8,,,,,,,,,,,,,,,,,,,,,,,,,,,,,,,,,,,,,,,,,,,,,,,,,,,,,2132.155237042727,None,2132.155237042727,None,2135.22116534847,None,2135.22116534847,None,2135.671281395713,None,2135.671281395713,None,v,7.073145850608853,2135.671281395713,None,t,11.736709904354939,2135.671281395713,None,7.073145850608853,11.736709904354939,10,False,False,False,2147.468980340138,None,2147.468980340138,None,2147.468980340138,None,2147.468980340138,None,2147.468980340138,None,2147.468980340138,None,2148.4855082901195,None,2148.4855082901195,None,h,,,,,,,,,,,,,,,,,,,,,,,,,,,11_12,001,2021_Apr_08_1634,ComputerHuman,2020.1.3,60.094519853143,
Human.xlsx,h,Sychronize.jpg,Number6.jpg,6,Human,,,,,0,6,6,2,0,1,1,1,,,,,,,,,,,,,,,,,,,,,,,,,,,,,,,,,,,,,,,,,,,,,,,,,,,,,,,,,2149.5352846164824,None,2149.5352846164824,None,2149.985209149687,None,2149.985209149687,None,v,9.77878107892684,2149.985209149687,None,t,8.285806307772873,2149.985209149687,None,9.77878107892684,8.285806307772873,6,False,False,False,2159.8166370199506,None,2159.8166370199506,None,2159.8166370199506,None,2159.8166370199506,None,2159.8166370199506,None,2159.8166370199506,None,2160.816432032567,None,2160.816432032567,None,h,,,,,,,,,,,,,,,,,,,,,,,,,,,11_12,001,2021_Apr_08_1634,ComputerHuman,2020.1.3,60.094519853143,
Human.xlsx,h,Sychronize.jpg,Number6.jpg,6,Human,,,,,0,6,6,2,0,2,2,0,,,,,,,,,,,,,,,,,,,,,,,,,,,,,,,,,,,,,,,,,,,,,,,,,,,,,,,,,2161.865953327677,None,2161.865953327677,None,2162.3159644752704,None,2162.3159644752704,None,None,,2162.3159644752704,None,t,7.550668614956521,2162.3159644752704,None,13,7.550668614956521,6,False,False,False,2175.363555873497,None,2175.363555873497,None,2175.363555873497,None,2175.363555873497,None,2175.363555873497,None,2175.363555873497,None,2176.3634532194083,None,2176.3634532194083,None,h,,,,,,,,,,,,,,,,,,,,,,,,,,,11_12,001,2021_Apr_08_1634,ComputerHuman,2020.1.3,60.094519853143,
Human.xlsx,h,Sychronize.jpg,Number9.jpg,9,Human,,,,,0,6,6,2,0,3,3,7,,,,,,,,,,,,,,,,,,,,,,,,,,,,,,,,,,,,,,,,,,,,,,,,,,,,,,,,,2177.4298874173364,None,2177.4298874173364,None,2177.8631518334187,None,2177.8631518334187,None,v,8.280250475978391,2177.8631518334187,None,t,9.551710233168706,2177.8631518334187,None,8.280250475978391,9.551710233168706,9,False,False,False,2187.477846445523,None,2187.477846445523,None,2187.477846445523,None,2187.477846445523,None,2187.477846445523,None,2187.477846445523,None,2188.4772343705154,None,2188.4772343705154,None,h,,,,,,,,,,,,,,,,,,,,,,,,,,,11_12,001,2021_Apr_08_1634,ComputerHuman,2020.1.3,60.094519853143,
Human.xlsx,h,Sychronize.jpg,Number8.jpg,8,Human,,,,,0,6,6,2,0,4,4,5,,,,,,,,,,,,,,,,,,,,,,,,,,,,,,,,,,,,,,,,,,,,,,,,,,,,,,,,,2189.5439636989468,None,2189.5439636989468,None,2189.994141980231,None,2189.994141980231,None,v,3.489359422441339,2189.994141980231,None,t,8.888029410394665,2189.994141980231,None,3.489359422441339,8.888029410394665,8,False,False,False,2198.9590442262706,None,2198.9590442262706,None,2198.9590442262706,None,2198.9590442262706,None,2198.9590442262706,None,2198.9590442262706,None,2199.958845975558,None,2199.958845975558,None,h,,,,,,,,,,,,,,,,,,,,,,,,,,,11_12,001,2021_Apr_08_1634,ComputerHuman,2020.1.3,60.094519853143,
Human.xlsx,h,Sychronize.jpg,Number8.jpg,8,Human,,,,,0,6,6,2,0,5,5,4,,,,,,,,,,,,,,,,,,,,,,,,,,,,,,,,,,,,,,,,,,,,,,,,,,,,,,,,,2201.0086761953207,None,2201.0086761953207,None,2201.458527587485,None,2201.458527587485,None,v,10.03622085385723,2201.458527587485,None,t,10.095744506805204,2201.458527587485,None,10.03622085385723,10.095744506805204,8,True,False,False,2211.6065958460385,None,2211.6065958460385,None,2211.6065958460385,None,2211.6065958460385,None,2211.6065958460385,None,2211.6065958460385,None,2212.6063343989044,None,2212.6063343989044,None,h,,,,,,,,,,,,,,,,,,,,,,,,,,,11_12,001,2021_Apr_08_1634,ComputerHuman,2020.1.3,60.094519853143,
Human.xlsx,h,Sychronize.jpg,Number10.jpg,10,Human,,,,,0,6,6,2,0,6,6,9,,,,,,,,,,,,,,,,,,,,,,,,,,,,,,,,,,,,,,,,,,,,,,,,,,,,,,,,,2213.6559868987715,None,2213.6559868987715,None,2214.1061215520676,None,2214.1061215520676,None,v,7.896328993523639,2214.1061215520676,None,t,12.383671263109136,2214.1061215520676,None,7.896328993523639,12.383671263109136,10,False,False,False,2226.553708459178,None,2226.553708459178,None,2226.553708459178,None,2226.553708459178,None,2226.553708459178,None,2226.553708459178,None,2227.553327997459,None,2227.553327997459,None,h,,,,,,,,,,,,,,,,,,,,,,,,,,,11_12,001,2021_Apr_08_1634,ComputerHuman,2020.1.3,60.094519853143,
Human.xlsx,h,Sychronize.jpg,Number9.jpg,9,Human,,,,,0,6,6,2,0,7,7,6,,,,,,,,,,,,,,,,,,,,,,,,,,,,,,,,,,,,,,,,,,,,,,,,,,,,,,,,,2228.6198670950325,None,2228.6198670950325,None,2229.0531751391063,None,2229.0531751391063,None,v,8.260885102805332,2229.0531751391063,None,t,12.487697388576635,2229.0531751391063,None,8.260885102805332,12.487697388576635,9,False,False,False,2241.600732051975,None,2241.600732051975,None,2241.600732051975,None,2241.600732051975,None,2241.600732051975,None,2241.600732051975,None,2242.600597318484,None,2242.600597318484,None,h,,,,,,,,,,,,,,,,,,,,,,,,,,,11_12,001,2021_Apr_08_1634,ComputerHuman,2020.1.3,60.094519853143,
Human.xlsx,h,Sychronize.jpg,Number7.jpg,7,Human,,,,,0,6,6,2,0,8,8,2,,,,,,,,,,,,,,,,,,,,,,,,,,,,,,,,,,,,,,,,,,,,,,,,,,,,,,,,,2243.6669962290653,None,2243.6669962290653,None,2244.100294649317,None,2244.100294649317,None,v,4.045496292423195,2244.100294649317,None,t,9.068762841787247,2244.100294649317,None,4.045496292423195,9.068762841787247,7,False,False,False,2253.231871528409,None,2253.231871528409,None,2253.231871528409,None,2253.231871528409,None,2253.231871528409,None,2253.231871528409,None,2254.248330828468,None,2254.248330828468,None,h,,,,,,,,,,,,,,,,,,,,,,,,,,,11_12,001,2021_Apr_08_1634,ComputerHuman,2020.1.3,60.094519853143,
Human.xlsx,h,Sychronize.jpg,Number7.jpg,7,Human,,,,,0,6,6,2,0,9,9,3,,,,,,,,,,,,,,,,,,,,,,,,,,,,,,,,,,,,,,,,,,,,,,,,,,,,,,,,,2255.2979342468498,None,2255.2979342468498,None,2255.747943469676,None,2255.747943469676,None,v,6.005836847365572,2255.747943469676,None,t,9.3846894633607,2255.747943469676,None,6.005836847365572,9.3846894633607,7,False,False,False,2265.2128834090145,None,2265.2128834090145,None,2265.2128834090145,None,2265.2128834090145,None,2265.2128834090145,None,2265.2128834090145,None,2266.212710501033,None,2266.212710501033,None,h,,,,,,,,,,,,,,,,,,,,,,,,,,,11_12,001,2021_Apr_08_1634,ComputerHuman,2020.1.3,60.094519853143,
Human.xlsx,h,,,,,,,,,0,6,6,2,,,,,,,,,,,,,,,,,,,,,,,,,,,,,,,,,,,,,,,,,,,,,,,,,,,,,,,,,,,,,,,,,,,,,,,,,,,,,,,,,,,,,,,,,,,,,,,,,,,h,2267.2125042304724,None,2267.2125042304724,None,a,0,7.496581779218104,2267.2125042304724,None,o,1,2.895901054289425,2267.2125042304724,None,c,h,2274.7610645870664,None,None,None,None,None,None,,,,11_12,001,2021_Apr_08_1634,ComputerHuman,2020.1.3,60.094519853143,
Human.xlsx,h,Sychronize.jpg,Number9.jpg,9,Human,,,,,0,7,7,8,0,0,0,7,,,,,,,,,,,,,,,,,,,,,,,,,,,,,,,,,,,,,,,,,,,,,,,,,,,,,2279.7600386877602,None,2279.7600386877602,None,2282.8594761754284,None,2282.8594761754284,None,2283.292669375238,None,2283.292669375238,None,v,6.180093126506108,2283.292669375238,None,t,11.719744712110696,2283.292669375238,None,6.180093126506108,11.719744712110696,9,False,False,False,2295.073800270431,None,2295.073800270431,None,2295.073800270431,None,2295.073800270431,None,2295.073800270431,None,2295.073800270431,None,2296.0735330490024,None,2296.0735330490024,None,h,,,,,,,,,,,,,,,,,,,,,,,,,,,11_12,001,2021_Apr_08_1634,ComputerHuman,2020.1.3,60.094519853143,
Human.xlsx,h,Sychronize.jpg,Number7.jpg,7,Human,,,,,0,7,7,8,0,1,1,3,,,,,,,,,,,,,,,,,,,,,,,,,,,,,,,,,,,,,,,,,,,,,,,,,,,,,,,,,2297.1398536858433,None,2297.1398536858433,None,2297.5732400036577,None,2297.5732400036577,None,v,0.9872307936602738,2297.5732400036577,None,t,9.358784703897982,2297.5732400036577,None,0.9872307936602738,9.358784703897982,7,False,False,False,2306.9881473022033,None,2306.9881473022033,None,2306.9881473022033,None,2306.9881473022033,None,2306.9881473022033,None,2306.9881473022033,None,2307.9879676575474,None,2307.9879676575474,None,h,,,,,,,,,,,,,,,,,,,,,,,,,,,11_12,001,2021_Apr_08_1634,ComputerHuman,2020.1.3,60.094519853143,
Human.xlsx,h,Sychronize.jpg,Number10.jpg,10,Human,,,,,0,7,7,8,0,2,2,9,,,,,,,,,,,,,,,,,,,,,,,,,,,,,,,,,,,,,,,,,,,,,,,,,,,,,,,,,2309.0542385713125,None,2309.0542385713125,None,2309.487596980045,None,2309.487596980045,None,v,10.492423647010582,2309.487596980045,None,None,,2309.487596980045,None,10.492423647010582,13,10,False,False,False,2322.535154053312,None,2322.535154053312,None,2322.535154053312,None,2322.535154053312,None,2322.535154053312,None,2322.535154053312,None,2323.534897418089,None,2323.534897418089,None,h,,,,,,,,,,,,,,,,,,,,,,,,,,,11_12,001,2021_Apr_08_1634,ComputerHuman,2020.1.3,60.094519853143,
Human.xlsx,h,Sychronize.jpg,Number8.jpg,8,Human,,,,,0,7,7,8,0,3,3,5,,,,,,,,,,,,,,,,,,,,,,,,,,,,,,,,,,,,,,,,,,,,,,,,,,,,,,,,,2324.6011927122017,None,2324.6011927122017,None,2325.034601485597,None,2325.034601485597,None,v,10.605389660489891,2325.034601485597,None,t,11.05670964771707,2325.034601485597,None,10.605389660489891,11.05670964771707,8,False,False,False,2336.1491024985044,None,2336.1491024985044,None,2336.1491024985044,None,2336.1491024985044,None,2336.1491024985044,None,2336.1491024985044,None,2337.1656596407447,None,2337.1656596407447,None,h,,,,,,,,,,,,,,,,,,,,,,,,,,,11_12,001,2021_Apr_08_1634,ComputerHuman,2020.1.3,60.094519853143,
Human.xlsx,h,Sychronize.jpg,Number8.jpg,8,Human,,,,,0,7,7,8,0,4,4,4,,,,,,,,,,,,,,,,,,,,,,,,,,,,,,,,,,,,,,,,,,,,,,,,,,,,,,,,,2338.1985836943604,None,2338.1985836943604,None,2338.6653572923715,None,2338.6653572923715,None,v,4.937998533969221,2338.6653572923715,None,t,10.780746263149922,2338.6653572923715,None,4.937998533969221,10.780746263149922,8,False,False,False,2349.513347116783,None,2349.513347116783,None,2349.513347116783,None,2349.513347116783,None,2349.513347116783,None,2349.513347116783,None,2350.513037550547,None,2350.513037550547,None,h,,,,,,,,,,,,,,,,,,,,,,,,,,,11_12,001,2021_Apr_08_1634,ComputerHuman,2020.1.3,60.094519853143,
Human.xlsx,h,Sychronize.jpg,Number10.jpg,10,Human,,,,,0,7,7,8,0,5,5,8,,,,,,,,,,,,,,,,,,,,,,,,,,,,,,,,,,,,,,,,,,,,,,,,,,,,,,,,,2351.5458858967722,None,2351.5458858967722,None,2352.012762469665,None,2352.012762469665,None,v,4.626318904553045,2352.012762469665,None,None,,2352.012762469665,None,4.626318904553045,13,10,False,False,False,2365.0769171052198,None,2365.0769171052198,None,2365.0769171052198,None,2365.0769171052198,None,2365.0769171052198,None,2365.0769171052198,None,2366.0767211000675,None,2366.0767211000675,None,h,,,,,,,,,,,,,,,,,,,,,,,,,,,11_12,001,2021_Apr_08_1634,ComputerHuman,2020.1.3,60.094519853143,
Human.xlsx,h,Sychronize.jpg,Number6.jpg,6,Human,,,,,0,7,7,8,0,6,6,0,,,,,,,,,,,,,,,,,,,,,,,,,,,,,,,,,,,,,,,,,,,,,,,,,,,,,,,,,2367.1264903689625,None,2367.1264903689625,None,2367.5764357537773,None,2367.5764357537773,None,v,4.262260026014701,2367.5764357537773,None,t,7.605790653025906,2367.5764357537773,None,4.262260026014701,7.605790653025906,6,False,False,False,2375.2416477264524,None,2375.2416477264524,None,2375.2416477264524,None,2375.2416477264524,None,2375.2416477264524,None,2375.2416477264524,None,2376.2413391225964,None,2376.2413391225964,None,h,,,,,,,,,,,,,,,,,,,,,,,,,,,11_12,001,2021_Apr_08_1634,ComputerHuman,2020.1.3,60.094519853143,
Human.xlsx,h,Sychronize.jpg,Number6.jpg,6,Human,,,,,0,7,7,8,0,7,7,1,,,,,,,,,,,,,,,,,,,,,,,,,,,,,,,,,,,,,,,,,,,,,,,,,,,,,,,,,2377.290992264054,None,2377.290992264054,None,2377.7410720615662,None,2377.7410720615662,None,v,2.2054191735405766,2377.7410720615662,None,t,7.88472715665921,2377.7410720615662,None,2.2054191735405766,7.88472715665921,6,False,False,False,2385.689549011713,None,2385.689549011713,None,2385.689549011713,None,2385.689549011713,None,2385.689549011713,None,2385.689549011713,None,2386.706059318025,None,2386.706059318025,None,h,,,,,,,,,,,,,,,,,,,,,,,,,,,11_12,001,2021_Apr_08_1634,ComputerHuman,2020.1.3,60.094519853143,
Human.xlsx,h,Sychronize.jpg,Number7.jpg,7,Human,,,,,0,7,7,8,0,8,8,2,,,,,,,,,,,,,,,,,,,,,,,,,,,,,,,,,,,,,,,,,,,,,,,,,,,,,,,,,2387.7558404562988,None,2387.7558404562988,None,2388.2057771796754,None,2388.2057771796754,None,None,,2388.2057771796754,None,t,9.467666046999511,2388.2057771796754,None,13,9.467666046999511,7,False,False,False,2401.2531642321082,None,2401.2531642321082,None,2401.2531642321082,None,2401.2531642321082,None,2401.2531642321082,None,2401.2531642321082,None,2402.2697229783153,None,2402.2697229783153,None,h,,,,,,,,,,,,,,,,,,,,,,,,,,,11_12,001,2021_Apr_08_1634,ComputerHuman,2020.1.3,60.094519853143,
Human.xlsx,h,Sychronize.jpg,Number9.jpg,9,Human,,,,,0,7,7,8,0,9,9,6,,,,,,,,,,,,,,,,,,,,,,,,,,,,,,,,,,,,,,,,,,,,,,,,,,,,,,,,,2403.3192170059338,None,2403.3192170059338,None,2403.769453671728,None,2403.769453671728,None,v,0.6364261620328762,2403.769453671728,None,t,12.359683247974317,2403.769453671728,None,0.6364261620328762,12.359683247974317,9,False,False,False,2416.2003291346737,None,2416.2003291346737,None,2416.2003291346737,None,2416.2003291346737,None,2416.2003291346737,None,2416.2003291346737,None,2417.200143715727,None,2417.200143715727,None,h,,,,,,,,,,,,,,,,,,,,,,,,,,,11_12,001,2021_Apr_08_1634,ComputerHuman,2020.1.3,60.094519853143,
Human.xlsx,h,,,,,,,,,0,7,7,8,,,,,,,,,,,,,,,,,,,,,,,,,,,,,,,,,,,,,,,,,,,,,,,,,,,,,,,,,,,,,,,,,,,,,,,,,,,,,,,,,,,,,,,,,,,,,,,,,,,h,2418.199932312462,None,2418.199932312462,None,q,1,8.85336023725904,2418.199932312462,None,o,1,6.120833166252851,2418.199932312462,None,h,h,None,None,2427.1149004014733,None,"['space', 'space']",2428.0980346553806,None,"[3.1311996253134566, 9.547013166993565]",,,11_12,001,2021_Apr_08_1634,ComputerHuman,2020.1.3,60.094519853143,
Computer.xlsx,c,Sychronize.jpg,Number6.jpg,6,Computer,,,,,0,8,8,5,0,0,0,0,,,,,,,,,,,,,,,,,,,,,,,,,,,,,,,,,,,,,,,,,,,,,,,,,,,,,2437.6962170364095,None,2437.6962170364095,None,2440.7622473546544,None,2440.7622473546544,None,2441.195451461459,None,2441.195451461459,None,v,8.013341823683731,2441.195451461459,None,t,7.436784809760866,2441.195451461459,None,8.013341823683731,7.436784809760866,6,False,False,False,2449.277293075822,None,2449.277293075822,None,2449.277293075822,None,2449.277293075822,None,2449.277293075822,None,2449.277293075822,None,2450.2771079776685,None,2450.2771079776685,None,c,,,,,,,,,,,,,,,,,,,,,,,,,,,11_12,001,2021_Apr_08_1634,ComputerHuman,2020.1.3,60.094519853143,
Computer.xlsx,c,Sychronize.jpg,Number7.jpg,7,Computer,,,,,0,8,8,5,0,1,1,3,,,,,,,,,,,,,,,,,,,,,,,,,,,,,,,,,,,,,,,,,,,,,,,,,,,,,,,,,2451.309979741858,None,2451.309979741858,None,2451.7767860608583,None,2451.7767860608583,None,v,9.091696086150478,2451.7767860608583,None,t,9.362753567631444,2451.7767860608583,None,9.091696086150478,9.362753567631444,7,False,False,False,2461.191541303033,None,2461.191541303033,None,2461.191541303033,None,2461.191541303033,None,2461.191541303033,None,2461.191541303033,None,2462.1913972665134,None,2462.1913972665134,None,c,,,,,,,,,,,,,,,,,,,,,,,,,,,11_12,001,2021_Apr_08_1634,ComputerHuman,2020.1.3,60.094519853143,
Computer.xlsx,c,Sychronize.jpg,Number10.jpg,10,Computer,,,,,0,8,8,5,0,2,2,9,,,,,,,,,,,,,,,,,,,,,,,,,,,,,,,,,,,,,,,,,,,,,,,,,,,,,,,,,2463.257467363219,None,2463.257467363219,None,2463.6910737457365,None,2463.6910737457365,None,v,4.857227409283951,2463.6910737457365,None,t,12.452645508161368,2463.6910737457365,None,4.857227409283951,12.452645508161368,10,False,False,False,2476.2054005674836,None,2476.2054005674836,None,2476.2054005674836,None,2476.2054005674836,None,2476.2054005674836,None,2476.2054005674836,None,2477.2051317420883,None,2477.2051317420883,None,c,,,,,,,,,,,,,,,,,,,,,,,,,,,11_12,001,2021_Apr_08_1634,ComputerHuman,2020.1.3,60.094519853143,
Computer.xlsx,c,Sychronize.jpg,Number7.jpg,7,Computer,,,,,0,8,8,5,0,3,3,2,,,,,,,,,,,,,,,,,,,,,,,,,,,,,,,,,,,,,,,,,,,,,,,,,,,,,,,,,2478.271669877282,None,2478.271669877282,None,2478.7048739840866,None,2478.7048739840866,None,v,6.174988331116765,2478.7048739840866,None,t,8.889802118203079,2478.7048739840866,None,6.174988331116765,8.889802118203079,7,False,False,False,2487.653191178808,None,2487.653191178808,None,2487.653191178808,None,2487.653191178808,None,2487.653191178808,None,2487.653191178808,None,2488.6696681225367,None,2488.6696681225367,None,c,,,,,,,,,,,,,,,,,,,,,,,,,,,11_12,001,2021_Apr_08_1634,ComputerHuman,2020.1.3,60.094519853143,
Computer.xlsx,c,Sychronize.jpg,Number9.jpg,9,Computer,,,,,0,8,8,5,0,4,4,7,,,,,,,,,,,,,,,,,,,,,,,,,,,,,,,,,,,,,,,,,,,,,,,,,,,,,,,,,2489.7191878136764,None,2489.7191878136764,None,2490.1693664157538,None,2490.1693664157538,None,v,2.5783412703131035,2490.1693664157538,None,None,,2490.1693664157538,None,2.5783412703131035,13,9,False,False,False,2503.216867991654,None,2503.216867991654,None,2503.216867991654,None,2503.216867991654,None,2503.216867991654,None,2503.216867991654,None,2504.233305477719,None,2504.233305477719,None,c,,,,,,,,,,,,,,,,,,,,,,,,,,,11_12,001,2021_Apr_08_1634,ComputerHuman,2020.1.3,60.094519853143,
Computer.xlsx,c,Sychronize.jpg,Number9.jpg,9,Computer,,,,,0,8,8,5,0,5,5,6,,,,,,,,,,,,,,,,,,,,,,,,,,,,,,,,,,,,,,,,,,,,,,,,,,,,,,,,,2505.2828867613134,None,2505.2828867613134,None,2505.7330255849265,None,2505.7330255849265,None,v,1.2543142787035322,2505.7330255849265,None,t,11.645726943330374,2505.7330255849265,None,1.2543142787035322,11.645726943330374,9,False,False,False,2517.447432284389,None,2517.447432284389,None,2517.447432284389,None,2517.447432284389,None,2517.447432284389,None,2517.447432284389,None,2518.447206766188,None,2518.447206766188,None,c,,,,,,,,,,,,,,,,,,,,,,,,,,,11_12,001,2021_Apr_08_1634,ComputerHuman,2020.1.3,60.094519853143,
Computer.xlsx,c,Sychronize.jpg,Number6.jpg,6,Computer,,,,,0,8,8,5,0,6,6,1,,,,,,,,,,,,,,,,,,,,,,,,,,,,,,,,,,,,,,,,,,,,,,,,,,,,,,,,,2519.4968332817407,None,2519.4968332817407,None,2519.9469900698205,None,2519.9469900698205,None,v,5.8958879017372965,2519.9469900698205,None,t,7.671206329909182,2519.9469900698205,None,5.8958879017372965,7.671206329909182,6,False,True,False,2527.6788001661735,None,2527.6788001661735,None,2527.6788001661735,None,2527.6788001661735,None,2527.6788001661735,None,2527.6788001661735,None,2528.678591650052,None,2528.678591650052,None,c,,,,,,,,,,,,,,,,,,,,,,,,,,,11_12,001,2021_Apr_08_1634,ComputerHuman,2020.1.3,60.094519853143,
Computer.xlsx,c,Sychronize.jpg,Number10.jpg,10,Computer,,,,,0,8,8,5,0,7,7,8,,,,,,,,,,,,,,,,,,,,,,,,,,,,,,,,,,,,,,,,,,,,,,,,,,,,,,,,,2529.728145666155,None,2529.728145666155,None,2530.1782633173643,None,2530.1782633173643,None,v,12.44420220930624,2530.1782633173643,None,None,,2530.1782633173643,None,12.44420220930624,13,10,False,False,False,2543.2257061879573,None,2543.2257061879573,None,2543.2257061879573,None,2543.2257061879573,None,2543.2257061879573,None,2543.2257061879573,None,2544.225515957096,None,2544.225515957096,None,c,,,,,,,,,,,,,,,,,,,,,,,,,,,11_12,001,2021_Apr_08_1634,ComputerHuman,2020.1.3,60.094519853143,
Computer.xlsx,c,Sychronize.jpg,Number8.jpg,8,Computer,,,,,0,8,8,5,0,8,8,5,,,,,,,,,,,,,,,,,,,,,,,,,,,,,,,,,,,,,,,,,,,,,,,,,,,,,,,,,2545.2919591372556,None,2545.2919591372556,None,2545.725293165644,None,2545.725293165644,None,v,8.240878141576104,2545.725293165644,None,t,9.723776130678743,2545.725293165644,None,8.240878141576104,9.723776130678743,8,False,True,False,2555.5067535163034,None,2555.5067535163034,None,2555.5067535163034,None,2555.5067535163034,None,2555.5067535163034,None,2555.5067535163034,None,2556.523190360782,None,2556.523190360782,None,c,,,,,,,,,,,,,,,,,,,,,,,,,,,11_12,001,2021_Apr_08_1634,ComputerHuman,2020.1.3,60.094519853143,
Computer.xlsx,c,Sychronize.jpg,Number8.jpg,8,Computer,,,,,0,8,8,5,0,9,9,4,,,,,,,,,,,,,,,,,,,,,,,,,,,,,,,,,,,,,,,,,,,,,,,,,,,,,,,,,2557.572783513755,None,2557.572783513755,None,2558.0062195546416,None,2558.0062195546416,None,v,10.851546788613632,2558.0062195546416,None,t,10.014754279793124,2558.0062195546416,None,10.851546788613632,10.014754279793124,8,False,False,False,2568.9206262541047,None,2568.9206262541047,None,2568.9206262541047,None,2568.9206262541047,None,2568.9206262541047,None,2568.9206262541047,None,2569.9372603869087,None,2569.9372603869087,None,c,,,,,,,,,,,,,,,,,,,,,,,,,,,11_12,001,2021_Apr_08_1634,ComputerHuman,2020.1.3,60.094519853143,
Computer.xlsx,c,,,,,,,,,0,8,8,5,,,,,,,,,,,,,,,,,,,,,,,,,,,,,,,,,,,,,,,,,,,,,,,,,,,,,,,,,,,,,,,,,,,,,,,,,,,,,,,,,,,,,,,,,,,,,,,,,,,c,2570.9370717600214,None,2570.9370717600214,None,q,0,9.452395609612722,2570.9370717600214,None,l,1,1.819984826441214,2570.9370717600214,None,h,c,2580.4351718573816,None,None,None,None,None,None,,,,11_12,001,2021_Apr_08_1634,ComputerHuman,2020.1.3,60.094519853143,
Human.xlsx,h,Sychronize.jpg,Number6.jpg,6,Human,,,,,0,9,9,4,0,0,0,0,,,,,,,,,,,,,,,,,,,,,,,,,,,,,,,,,,,,,,,,,,,,,,,,,,,,,2585.4675483155916,None,2585.4675483155916,None,2588.533419840791,None,2588.533419840791,None,2588.9835580228173,None,2588.9835580228173,None,v,4.953645583551406,2588.9835580228173,None,t,7.3487974233830755,2588.9835580228173,None,4.953645583551406,7.3487974233830755,6,False,False,False,2596.3821670599064,None,2596.3821670599064,None,2596.3821670599064,None,2596.3821670599064,None,2596.3821670599064,None,2596.3821670599064,None,2597.3818802700443,None,2597.3818802700443,None,h,,,,,,,,,,,,,,,,,,,,,,,,,,,11_12,001,2021_Apr_08_1634,ComputerHuman,2020.1.3,60.094519853143,
Human.xlsx,h,Sychronize.jpg,Number7.jpg,7,Human,,,,,0,9,9,4,0,1,1,3,,,,,,,,,,,,,,,,,,,,,,,,,,,,,,,,,,,,,,,,,,,,,,,,,,,,,,,,,2598.448528437588,None,2598.448528437588,None,2598.8983038015685,None,2598.8983038015685,None,v,6.558631043557398,2598.8983038015685,None,t,10.485737016260828,2598.8983038015685,None,6.558631043557398,10.485737016260828,7,False,False,False,2609.446253687125,None,2609.446253687125,None,2609.446253687125,None,2609.446253687125,None,2609.446253687125,None,2609.446253687125,None,2610.4461064426687,None,2610.4461064426687,None,h,,,,,,,,,,,,,,,,,,,,,,,,,,,11_12,001,2021_Apr_08_1634,ComputerHuman,2020.1.3,60.094519853143,
Human.xlsx,h,Sychronize.jpg,Number8.jpg,8,Human,,,,,0,9,9,4,0,2,2,5,,,,,,,,,,,,,,,,,,,,,,,,,,,,,,,,,,,,,,,,,,,,,,,,,,,,,,,,,2611.5122650785233,None,2611.5122650785233,None,2611.9457963952373,None,2611.9457963952373,None,v,8.322765629487549,2611.9457963952373,None,t,10.665714336126257,2611.9457963952373,None,8.322765629487549,10.665714336126257,8,False,False,False,2622.6770454228317,None,2622.6770454228317,None,2622.6770454228317,None,2622.6770454228317,None,2622.6770454228317,None,2622.6770454228317,None,2623.693545142938,None,2623.693545142938,None,h,,,,,,,,,,,,,,,,,,,,,,,,,,,11_12,001,2021_Apr_08_1634,ComputerHuman,2020.1.3,60.094519853143,
Human.xlsx,h,Sychronize.jpg,Number10.jpg,10,Human,,,,,0,9,9,4,0,3,3,9,,,,,,,,,,,,,,,,,,,,,,,,,,,,,,,,,,,,,,,,,,,,,,,,,,,,,,,,,2624.743026338794,None,2624.743026338794,None,2625.176528463253,None,2625.176528463253,None,v,2.41587770048136,2625.176528463253,None,t,11.46275404881817,2625.176528463253,None,2.41587770048136,11.46275404881817,10,False,False,False,2636.69103909998,None,2636.69103909998,None,2636.69103909998,None,2636.69103909998,None,2636.69103909998,None,2636.69103909998,None,2637.7075885431623,None,2637.7075885431623,None,h,,,,,,,,,,,,,,,,,,,,,,,,,,,11_12,001,2021_Apr_08_1634,ComputerHuman,2020.1.3,60.094519853143,
Human.xlsx,h,Sychronize.jpg,Number8.jpg,8,Human,,,,,0,9,9,4,0,4,4,4,,,,,,,,,,,,,,,,,,,,,,,,,,,,,,,,,,,,,,,,,,,,,,,,,,,,,,,,,2638.739888010805,None,2638.739888010805,None,2639.2072688719127,None,2639.2072688719127,None,v,9.06852513341073,2639.2072688719127,None,t,10.53171129178736,2639.2072688719127,None,9.06852513341073,10.53171129178736,8,False,False,False,2649.8218242594085,None,2649.8218242594085,None,2649.8218242594085,None,2649.8218242594085,None,2649.8218242594085,None,2649.8218242594085,None,2650.821603553115,None,2650.821603553115,None,h,,,,,,,,,,,,,,,,,,,,,,,,,,,11_12,001,2021_Apr_08_1634,ComputerHuman,2020.1.3,60.094519853143,
Human.xlsx,h,Sychronize.jpg,Number9.jpg,9,Human,,,,,0,9,9,4,0,5,5,7,,,,,,,,,,,,,,,,,,,,,,,,,,,,,,,,,,,,,,,,,,,,,,,,,,,,,,,,,2651.8714061845894,None,2651.8714061845894,None,2652.3213275098533,None,2652.3213275098533,None,v,8.718155819282401,2652.3213275098533,None,t,12.405707888163306,2652.3213275098533,None,8.718155819282401,12.405707888163306,9,False,False,False,2664.802211874834,None,2664.802211874834,None,2664.802211874834,None,2664.802211874834,None,2664.802211874834,None,2664.802211874834,None,2665.8015465480166,None,2665.8015465480166,None,h,,,,,,,,,,,,,,,,,,,,,,,,,,,11_12,001,2021_Apr_08_1634,ComputerHuman,2020.1.3,60.094519853143,
Human.xlsx,h,Sychronize.jpg,Number9.jpg,9,Human,,,,,0,9,9,4,0,6,6,6,,,,,,,,,,,,,,,,,,,,,,,,,,,,,,,,,,,,,,,,,,,,,,,,,,,,,,,,,2666.851830370535,None,2666.851830370535,None,2667.3018569162377,None,2667.3018569162377,None,v,10.485196799119876,2667.3018569162377,None,t,11.788730505744752,2667.3018569162377,None,10.485196799119876,11.788730505744752,9,False,False,False,2679.1494515224076,None,2679.1494515224076,None,2679.1494515224076,None,2679.1494515224076,None,2679.1494515224076,None,2679.1494515224076,None,2680.149089666742,None,2680.149089666742,None,h,,,,,,,,,,,,,,,,,,,,,,,,,,,11_12,001,2021_Apr_08_1634,ComputerHuman,2020.1.3,60.094519853143,
Human.xlsx,h,Sychronize.jpg,Number6.jpg,6,Human,,,,,0,9,9,4,0,7,7,1,,,,,,,,,,,,,,,,,,,,,,,,,,,,,,,,,,,,,,,,,,,,,,,,,,,,,,,,,2681.215732701585,None,2681.215732701585,None,2681.6656533852583,None,2681.6656533852583,None,None,,2681.6656533852583,None,t,8.208767942411214,2681.6656533852583,None,13,8.208767942411214,6,False,False,False,2694.7131151827016,None,2694.7131151827016,None,2694.7131151827016,None,2694.7131151827016,None,2694.7131151827016,None,2694.7131151827016,None,2695.7129044210233,None,2695.7129044210233,None,h,,,,,,,,,,,,,,,,,,,,,,,,,,,11_12,001,2021_Apr_08_1634,ComputerHuman,2020.1.3,60.094519853143,
Human.xlsx,h,Sychronize.jpg,Number7.jpg,7,Human,,,,,0,9,9,4,0,8,8,2,,,,,,,,,,,,,,,,,,,,,,,,,,,,,,,,,,,,,,,,,,,,,,,,,,,,,,,,,2696.779372943911,None,2696.779372943911,None,2697.2126479461986,None,2697.2126479461986,None,None,,2697.2126479461986,None,t,9.024752467306826,2697.2126479461986,None,13,9.024752467306826,7,False,False,False,2710.2601030069636,None,2710.2601030069636,None,2710.2601030069636,None,2710.2601030069636,None,2710.2601030069636,None,2710.2601030069636,None,2711.259915021663,None,2711.259915021663,None,h,,,,,,,,,,,,,,,,,,,,,,,,,,,11_12,001,2021_Apr_08_1634,ComputerHuman,2020.1.3,60.094519853143,
Human.xlsx,h,Sychronize.jpg,Number10.jpg,10,Human,,,,,0,9,9,4,0,9,9,8,,,,,,,,,,,,,,,,,,,,,,,,,,,,,,,,,,,,,,,,,,,,,,,,,,,,,,,,,2712.3094831527014,None,2712.3094831527014,None,2712.759565837361,None,2712.759565837361,None,v,7.4504782237017935,2712.759565837361,None,t,11.885721618149546,2712.759565837361,None,7.4504782237017935,11.885721618149546,10,False,False,False,2724.707287959158,None,2724.707287959158,None,2724.707287959158,None,2724.707287959158,None,2724.707287959158,None,2724.707287959158,None,2725.707057308249,None,2725.707057308249,None,h,,,,,,,,,,,,,,,,,,,,,,,,,,,11_12,001,2021_Apr_08_1634,ComputerHuman,2020.1.3,60.094519853143,
Human.xlsx,h,,,,,,,,,0,9,9,4,,,,,,,,,,,,,,,,,,,,,,,,,,,,,,,,,,,,,,,,,,,,,,,,,,,,,,,,,,,,,,,,,,,,,,,,,,,,,,,,,,,,,,,,,,,,,,,,,,,h,2726.70695144622,None,2726.70695144622,None,q,1,6.9707689272472635,2726.70695144622,None,o,1,2.5299241482534853,2726.70695144622,None,h,h,2733.738855054031,None,None,None,None,None,None,,,,11_12,001,2021_Apr_08_1634,ComputerHuman,2020.1.3,60.094519853143,
Human.xlsx,h,Sychronize.jpg,Number7.jpg,7,Human,,,,,1,0,10,2,0,0,0,3,,,,,,,,,,,,,,,,,,,,,,,,,,,,,,,,,,,,,,,,,,,,,,,,,,,,,2738.7546063616683,None,2738.7546063616683,None,2741.8204358628464,None,2741.8204358628464,None,2742.253895642494,None,2742.253895642494,None,v,6.891416674552602,2742.253895642494,None,t,8.178831122793781,2742.253895642494,None,6.891416674552602,8.178831122793781,7,False,False,False,2750.502327841874,None,2750.502327841874,None,2750.502327841874,None,2750.502327841874,None,2750.502327841874,None,2750.502327841874,None,2751.502134723869,None,2751.502134723869,None,h,,,,,,,,,,,,,,,,,,,,,,,,,,,11_12,001,2021_Apr_08_1634,ComputerHuman,2020.1.3,60.094519853143,
Human.xlsx,h,Sychronize.jpg,Number8.jpg,8,Human,,,,,1,0,10,2,0,1,1,5,,,,,,,,,,,,,,,,,,,,,,,,,,,,,,,,,,,,,,,,,,,,,,,,,,,,,,,,,2752.5519219572307,None,2752.5519219572307,None,2753.0018336586727,None,2753.0018336586727,None,v,8.111183361052099,2753.0018336586727,None,t,9.426802661946567,2753.0018336586727,None,8.111183361052099,9.426802661946567,8,False,False,False,2762.483300585609,None,2762.483300585609,None,2762.483300585609,None,2762.483300585609,None,2762.483300585609,None,2762.483300585609,None,2763.4830327225936,None,2763.4830327225936,None,h,,,,,,,,,,,,,,,,,,,,,,,,,,,11_12,001,2021_Apr_08_1634,ComputerHuman,2020.1.3,60.094519853143,
Human.xlsx,h,Sychronize.jpg,Number6.jpg,6,Human,,,,,1,0,10,2,0,2,2,1,,,,,,,,,,,,,,,,,,,,,,,,,,,,,,,,,,,,,,,,,,,,,,,,,,,,,,,,,2764.5496026163964,None,2764.5496026163964,None,2764.999531319925,None,2764.999531319925,None,v,7.981256646453403,2764.999531319925,None,t,7.105138318365789,2764.999531319925,None,7.981256646453403,7.105138318365789,6,False,False,False,2773.031316875531,None,2773.031316875531,None,2773.031316875531,None,2773.031316875531,None,2773.031316875531,None,2773.031316875531,None,2774.0310490125157,None,2774.0310490125157,None,h,,,,,,,,,,,,,,,,,,,,,,,,,,,11_12,001,2021_Apr_08_1634,ComputerHuman,2020.1.3,60.094519853143,
Human.xlsx,h,Sychronize.jpg,Number6.jpg,6,Human,,,,,1,0,10,2,0,3,3,0,,,,,,,,,,,,,,,,,,,,,,,,,,,,,,,,,,,,,,,,,,,,,,,,,,,,,,,,,2775.097233953482,None,2775.097233953482,None,2775.530722925385,None,2775.530722925385,None,None,,2775.530722925385,None,t,7.1167860287750955,2775.530722925385,None,13,7.1167860287750955,6,False,False,False,2788.578320739496,None,2788.578320739496,None,2788.578320739496,None,2788.578320739496,None,2788.578320739496,None,2788.578320739496,None,2789.5781131857584,None,2789.5781131857584,None,h,,,,,,,,,,,,,,,,,,,,,,,,,,,11_12,001,2021_Apr_08_1634,ComputerHuman,2020.1.3,60.094519853143,
Human.xlsx,h,Sychronize.jpg,Number8.jpg,8,Human,,,,,1,0,10,2,0,4,4,4,,,,,,,,,,,,,,,,,,,,,,,,,,,,,,,,,,,,,,,,,,,,,,,,,,,,,,,,,2790.6445531579775,None,2790.6445531579775,None,2791.0777652846336,None,2791.0777652846336,None,None,,2791.0777652846336,None,t,9.48572610926567,2791.0777652846336,None,13,9.48572610926567,8,False,False,False,2804.125327811398,None,2804.125327811398,None,2804.125327811398,None,2804.125327811398,None,2804.125327811398,None,2804.125327811398,None,2805.141759202379,None,2805.141759202379,None,h,,,,,,,,,,,,,,,,,,,,,,,,,,,11_12,001,2021_Apr_08_1634,ComputerHuman,2020.1.3,60.094519853143,
Human.xlsx,h,Sychronize.jpg,Number10.jpg,10,Human,,,,,1,0,10,2,0,5,5,8,,,,,,,,,,,,,,,,,,,,,,,,,,,,,,,,,,,,,,,,,,,,,,,,,,,,,,,,,2806.174653101356,None,2806.174653101356,None,2806.641465515444,None,2806.641465515444,None,v,9.878225624066545,2806.641465515444,None,t,10.445741699855716,2806.641465515444,None,9.878225624066545,10.445741699855716,10,False,False,False,2817.156095166756,None,2817.156095166756,None,2817.156095166756,None,2817.156095166756,None,2817.156095166756,None,2817.156095166756,None,2818.155900765574,None,2818.155900765574,None,h,,,,,,,,,,,,,,,,,,,,,,,,,,,11_12,001,2021_Apr_08_1634,ComputerHuman,2020.1.3,60.094519853143,
Human.xlsx,h,Sychronize.jpg,Number7.jpg,7,Human,,,,,1,0,10,2,0,6,6,2,,,,,,,,,,,,,,,,,,,,,,,,,,,,,,,,,,,,,,,,,,,,,,,,,,,,,,,,,2819.1886070000473,None,2819.1886070000473,None,2819.655626326283,None,2819.655626326283,None,v,7.391772274735558,2819.655626326283,None,t,7.650789393905143,2819.655626326283,None,7.391772274735558,7.650789393905143,7,True,False,False,2827.370802289828,None,2827.370802289828,None,2827.370802289828,None,2827.370802289828,None,2827.370802289828,None,2827.370802289828,None,2828.370546937782,None,2828.370546937782,None,h,,,,,,,,,,,,,,,,,,,,,,,,,,,11_12,001,2021_Apr_08_1634,ComputerHuman,2020.1.3,60.094519853143,
Human.xlsx,h,Sychronize.jpg,Number9.jpg,9,Human,,,,,1,0,10,2,0,7,7,7,,,,,,,,,,,,,,,,,,,,,,,,,,,,,,,,,,,,,,,,,,,,,,,,,,,,,,,,,2829.4370347083095,None,2829.4370347083095,None,2829.870320296799,None,2829.870320296799,None,v,8.389325899468531,2829.870320296799,None,t,9.75178337420948,2829.870320296799,None,8.389325899468531,9.75178337420948,9,False,False,False,2839.6850864459702,None,2839.6850864459702,None,2839.6850864459702,None,2839.6850864459702,None,2839.6850864459702,None,2839.6850864459702,None,2840.684824678043,None,2840.684824678043,None,h,,,,,,,,,,,,,,,,,,,,,,,,,,,11_12,001,2021_Apr_08_1634,ComputerHuman,2020.1.3,60.094519853143,
Human.xlsx,h,Sychronize.jpg,Number9.jpg,9,Human,,,,,1,0,10,2,0,8,8,6,,,,,,,,,,,,,,,,,,,,,,,,,,,,,,,,,,,,,,,,,,,,,,,,,,,,,,,,,2841.734668691948,None,2841.734668691948,None,2842.1846108688223,None,2842.1846108688223,None,v,0.07444314166423283,2842.1846108688223,None,t,10.377760953913821,2842.1846108688223,None,0.07444314166423283,10.377760953913821,9,False,False,False,2852.6159040055936,None,2852.6159040055936,None,2852.6159040055936,None,2852.6159040055936,None,2852.6159040055936,None,2852.6159040055936,None,2853.6323806285327,None,2853.6323806285327,None,h,,,,,,,,,,,,,,,,,,,,,,,,,,,11_12,001,2021_Apr_08_1634,ComputerHuman,2020.1.3,60.094519853143,
Human.xlsx,h,Sychronize.jpg,Number10.jpg,10,Human,,,,,1,0,10,2,0,9,9,9,,,,,,,,,,,,,,,,,,,,,,,,,,,,,,,,,,,,,,,,,,,,,,,,,,,,,,,,,2854.6819314366912,None,2854.6819314366912,None,2855.132132494349,None,2855.132132494349,None,v,7.998377103005623,2855.132132494349,None,t,10.993698322086857,2855.132132494349,None,7.998377103005623,10.993698322086857,10,False,False,False,2866.1965835435876,None,2866.1965835435876,None,2866.1965835435876,None,2866.1965835435876,None,2866.1965835435876,None,2866.1965835435876,None,2867.1964472061263,None,2867.1964472061263,None,h,,,,,,,,,,,,,,,,,,,,,,,,,,,11_12,001,2021_Apr_08_1634,ComputerHuman,2020.1.3,60.094519853143,
Human.xlsx,h,,,,,,,,,1,0,10,2,,,,,,,,,,,,,,,,,,,,,,,,,,,,,,,,,,,,,,,,,,,,,,,,,,,,,,,,,,,,,,,,,,,,,,,,,,,,,,,,,,,,,,,,,,,,,,,,,,,h,2868.1962390107983,None,2868.1962390107983,None,q,1,13.985782729414495,2868.1962390107983,None,o,1,6.840813341183093,2868.1962390107983,None,h,h,2882.2435291834336,None,None,None,None,None,None,,,,11_12,001,2021_Apr_08_1634,ComputerHuman,2020.1.3,60.094519853143,
Human.xlsx,h,Sychronize.jpg,Number8.jpg,8,Human,,,,,1,1,11,4,0,0,0,4,,,,,,,,,,,,,,,,,,,,,,,,,,,,,,,,,,,,,,,,,,,,,,,,,,,,,2887.2592214649703,None,2887.2592214649703,None,2890.324897947401,None,2890.324897947401,None,2890.7751965264433,None,2890.7751965264433,None,v,5.406476831452892,2890.7751965264433,None,t,9.277761435103457,2890.7751965264433,None,5.406476831452892,9.277761435103457,8,False,False,False,2900.123386686726,None,2900.123386686726,None,2900.123386686726,None,2900.123386686726,None,2900.123386686726,None,2900.123386686726,None,2901.1231015008343,None,2901.1231015008343,None,h,,,,,,,,,,,,,,,,,,,,,,,,,,,11_12,001,2021_Apr_08_1634,ComputerHuman,2020.1.3,60.094519853143,
Human.xlsx,h,Sychronize.jpg,Number9.jpg,9,Human,,,,,1,1,11,4,0,1,1,7,,,,,,,,,,,,,,,,,,,,,,,,,,,,,,,,,,,,,,,,,,,,,,,,,,,,,,,,,2902.1727552838784,None,2902.1727552838784,None,2902.6228812757327,None,2902.6228812757327,None,v,10.258342810124304,2902.6228812757327,None,t,11.165705835082917,2902.6228812757327,None,10.258342810124304,11.165705835082917,9,False,False,False,2913.8539889935564,None,2913.8539889935564,None,2913.8539889935564,None,2913.8539889935564,None,2913.8539889935564,None,2913.8539889935564,None,2914.8705320208574,None,2914.8705320208574,None,h,,,,,,,,,,,,,,,,,,,,,,,,,,,11_12,001,2021_Apr_08_1634,ComputerHuman,2020.1.3,60.094519853143,
Human.xlsx,h,Sychronize.jpg,Number10.jpg,10,Human,,,,,1,1,11,4,0,2,2,9,,,,,,,,,,,,,,,,,,,,,,,,,,,,,,,,,,,,,,,,,,,,,,,,,,,,,,,,,2915.9203827714373,None,2915.9203827714373,None,2916.37024346663,None,2916.37024346663,None,v,11.355160693747166,2916.37024346663,None,t,11.737686722175567,2916.37024346663,None,11.355160693747166,11.737686722175567,10,False,False,False,2928.167945939789,None,2928.167945939789,None,2928.167945939789,None,2928.167945939789,None,2928.167945939789,None,2928.167945939789,None,2929.1677749565715,None,2929.1677749565715,None,h,,,,,,,,,,,,,,,,,,,,,,,,,,,11_12,001,2021_Apr_08_1634,ComputerHuman,2020.1.3,60.094519853143,
Human.xlsx,h,Sychronize.jpg,Number9.jpg,9,Human,,,,,1,1,11,4,0,3,3,6,,,,,,,,,,,,,,,,,,,,,,,,,,,,,,,,,,,,,,,,,,,,,,,,,,,,,,,,,2930.2342511785173,None,2930.2342511785173,None,2930.6673757284043,None,2930.6673757284043,None,v,7.6132613043810125,2930.6673757284043,None,t,10.784679518746998,2930.6673757284043,None,7.6132613043810125,10.784679518746998,9,False,False,False,2941.515400198572,None,2941.515400198572,None,2941.515400198572,None,2941.515400198572,None,2941.515400198572,None,2941.515400198572,None,2942.5151560743143,None,2942.5151560743143,None,h,,,,,,,,,,,,,,,,,,,,,,,,,,,11_12,001,2021_Apr_08_1634,ComputerHuman,2020.1.3,60.094519853143,
Human.xlsx,h,Sychronize.jpg,Number7.jpg,7,Human,,,,,1,1,11,4,0,4,4,2,,,,,,,,,,,,,,,,,,,,,,,,,,,,,,,,,,,,,,,,,,,,,,,,,,,,,,,,,2943.5815610799873,None,2943.5815610799873,None,2944.014882276613,None,2944.014882276613,None,v,8.69338346274526,2944.014882276613,None,t,8.532806482606247,2944.014882276613,None,8.69338346274526,8.532806482606247,7,True,False,False,2952.7631936970392,None,2952.7631936970392,None,2952.7631936970392,None,2952.7631936970392,None,2952.7631936970392,None,2952.7631936970392,None,2953.779695662706,None,2953.779695662706,None,h,,,,,,,,,,,,,,,,,,,,,,,,,,,11_12,001,2021_Apr_08_1634,ComputerHuman,2020.1.3,60.094519853143,
Human.xlsx,h,Sychronize.jpg,Number6.jpg,6,Human,,,,,1,1,11,4,0,5,5,1,,,,,,,,,,,,,,,,,,,,,,,,,,,,,,,,,,,,,,,,,,,,,,,,,,,,,,,,,2954.8295197873776,None,2954.8295197873776,None,2955.2793718211324,None,2955.2793718211324,None,v,7.636639810858469,2955.2793718211324,None,t,7.007825128759578,2955.2793718211324,None,7.636639810858469,7.007825128759578,6,False,False,False,2962.9778863843785,None,2962.9778863843785,None,2962.9778863843785,None,2962.9778863843785,None,2962.9778863843785,None,2962.9778863843785,None,2963.9777474805633,None,2963.9777474805633,None,h,,,,,,,,,,,,,,,,,,,,,,,,,,,11_12,001,2021_Apr_08_1634,ComputerHuman,2020.1.3,60.094519853143,
Human.xlsx,h,Sychronize.jpg,Number6.jpg,6,Human,,,,,1,1,11,4,0,6,6,0,,,,,,,,,,,,,,,,,,,,,,,,,,,,,,,,,,,,,,,,,,,,,,,,,,,,,,,,,2965.0441297098587,None,2965.0441297098587,None,2965.4934370353512,None,2965.4934370353512,None,v,8.378272620389907,2965.4934370353512,None,t,6.377983584970934,2965.4934370353512,None,8.378272620389907,6.377983584970934,6,False,False,False,2973.9257531842813,None,2973.9257531842813,None,2973.9257531842813,None,2973.9257531842813,None,2973.9257531842813,None,2973.9257531842813,None,2974.9255651989806,None,2974.9255651989806,None,h,,,,,,,,,,,,,,,,,,,,,,,,,,,11_12,001,2021_Apr_08_1634,ComputerHuman,2020.1.3,60.094519853143,
Human.xlsx,h,Sychronize.jpg,Number8.jpg,8,Human,,,,,1,1,11,4,0,7,7,5,,,,,,,,,,,,,,,,,,,,,,,,,,,,,,,,,,,,,,,,,,,,,,,,,,,,,,,,,2975.975116327936,None,2975.975116327936,None,2976.425216656269,None,2976.425216656269,None,v,3.994366856844863,2976.425216656269,None,t,8.561806262860046,2976.425216656269,None,3.994366856844863,8.561806262860046,8,False,False,False,2985.056950243241,None,2985.056950243241,None,2985.056950243241,None,2985.056950243241,None,2985.056950243241,None,2985.056950243241,None,2986.0567240834534,None,2986.0567240834534,None,h,,,,,,,,,,,,,,,,,,,,,,,,,,,11_12,001,2021_Apr_08_1634,ComputerHuman,2020.1.3,60.094519853143,
Human.xlsx,h,Sychronize.jpg,Number7.jpg,7,Human,,,,,1,1,11,4,0,8,8,3,,,,,,,,,,,,,,,,,,,,,,,,,,,,,,,,,,,,,,,,,,,,,,,,,,,,,,,,,2987.106362468381,None,2987.106362468381,None,2987.556448040188,None,2987.556448040188,None,v,0.3909449469319952,2987.556448040188,None,t,7.721787207694433,2987.556448040188,None,0.3909449469319952,7.721787207694433,7,False,False,False,2995.3382872486,None,2995.3382872486,None,2995.3382872486,None,2995.3382872486,None,2995.3382872486,None,2995.3382872486,None,2996.3380139320834,None,2996.3380139320834,None,h,,,,,,,,,,,,,,,,,,,,,,,,,,,11_12,001,2021_Apr_08_1634,ComputerHuman,2020.1.3,60.094519853143,
Human.xlsx,h,Sychronize.jpg,Number10.jpg,10,Human,,,,,1,1,11,4,0,9,9,8,,,,,,,,,,,,,,,,,,,,,,,,,,,,,,,,,,,,,,,,,,,,,,,,,,,,,,,,,2997.4045382731347,None,2997.4045382731347,None,2997.8544891114507,None,2997.8544891114507,None,v,9.19242669455707,2997.8544891114507,None,t,11.739683344214427,2997.8544891114507,None,9.19242669455707,11.739683344214427,10,False,False,False,3009.652210190663,None,3009.652210190663,None,3009.652210190663,None,3009.652210190663,None,3009.652210190663,None,3009.652210190663,None,3010.651969595143,None,3010.651969595143,None,h,,,,,,,,,,,,,,,,,,,,,,,,,,,11_12,001,2021_Apr_08_1634,ComputerHuman,2020.1.3,60.094519853143,
Human.xlsx,h,,,,,,,,,1,1,11,4,,,,,,,,,,,,,,,,,,,,,,,,,,,,,,,,,,,,,,,,,,,,,,,,,,,,,,,,,,,,,,,,,,,,,,,,,,,,,,,,,,,,,,,,,,,,,,,,,,,h,3011.651802140659,None,3011.651802140659,None,q,1,3.3429317045556672,3011.651802140659,None,o,1,2.893915339245723,3011.651802140659,None,h,h,None,None,3015.051077787739,None,"['space', 'space']",3016.03428806983,None,"[4.160305588393385, 5.6922343785336125]",,,11_12,001,2021_Apr_08_1634,ComputerHuman,2020.1.3,60.094519853143,
Computer.xlsx,c,Sychronize.jpg,Number7.jpg,7,Computer,,,,,1,2,12,1,0,0,0,2,,,,,,,,,,,,,,,,,,,,,,,,,,,,,,,,,,,,,,,,,,,,,,,,,,,,,3021.783099287357,None,3021.783099287357,None,3024.8492178239576,None,3024.8492178239576,None,3025.282439253642,None,3025.282439253642,None,v,6.956202953551838,3025.282439253642,None,t,7.946765513999708,3025.282439253642,None,6.956202953551838,7.946765513999708,7,False,True,False,3033.297568541653,None,3033.297568541653,None,3033.297568541653,None,3033.297568541653,None,3033.297568541653,None,3033.297568541653,None,3034.2975037412616,None,3034.2975037412616,None,c,,,,,,,,,,,,,,,,,,,,,,,,,,,11_12,001,2021_Apr_08_1634,ComputerHuman,2020.1.3,60.094519853143,
Computer.xlsx,c,Sychronize.jpg,Number9.jpg,9,Computer,,,,,1,2,12,1,0,1,1,6,,,,,,,,,,,,,,,,,,,,,,,,,,,,,,,,,,,,,,,,,,,,,,,,,,,,,,,,,3035.3470574365674,None,3035.3470574365674,None,3035.7972078087696,None,3035.7972078087696,None,v,5.100832941698172,3035.7972078087696,None,t,10.775716854357597,3035.7972078087696,None,5.100832941698172,10.775716854357597,9,False,False,False,3046.6283405485265,None,3046.6283405485265,None,3046.6283405485265,None,3046.6283405485265,None,3046.6283405485265,None,3046.6283405485265,None,3047.6281362027294,None,3047.6281362027294,None,c,,,,,,,,,,,,,,,,,,,,,,,,,,,11_12,001,2021_Apr_08_1634,ComputerHuman,2020.1.3,60.094519853143,
Computer.xlsx,c,Sychronize.jpg,Number6.jpg,6,Computer,,,,,1,2,12,1,0,2,2,0,,,,,,,,,,,,,,,,,,,,,,,,,,,,,,,,,,,,,,,,,,,,,,,,,,,,,,,,,3048.6943294843404,None,3048.6943294843404,None,3049.144533749939,None,3049.144533749939,None,v,7.2811442081438145,3049.144533749939,None,t,7.452859477776656,3049.144533749939,None,7.2811442081438145,7.452859477776656,6,False,False,False,3056.659705222366,None,3056.659705222366,None,3056.659705222366,None,3056.659705222366,None,3056.659705222366,None,3056.659705222366,None,3057.659512104361,None,3057.659512104361,None,c,,,,,,,,,,,,,,,,,,,,,,,,,,,11_12,001,2021_Apr_08_1634,ComputerHuman,2020.1.3,60.094519853143,
Computer.xlsx,c,Sychronize.jpg,Number7.jpg,7,Computer,,,,,1,2,12,1,0,3,3,3,,,,,,,,,,,,,,,,,,,,,,,,,,,,,,,,,,,,,,,,,,,,,,,,,,,,,,,,,3058.725998270922,None,3058.725998270922,None,3059.159206227254,None,3059.159206227254,None,v,7.342235902302491,3059.159206227254,None,t,8.873772040555195,3059.159206227254,None,7.342235902302491,8.873772040555195,7,False,False,False,3068.1074727365194,None,3068.1074727365194,None,3068.1074727365194,None,3068.1074727365194,None,3068.1074727365194,None,3068.1074727365194,None,3069.1073803478357,None,3069.1073803478357,None,c,,,,,,,,,,,,,,,,,,,,,,,,,,,11_12,001,2021_Apr_08_1634,ComputerHuman,2020.1.3,60.094519853143,
Computer.xlsx,c,Sychronize.jpg,Number8.jpg,8,Computer,,,,,1,2,12,1,0,4,4,4,,,,,,,,,,,,,,,,,,,,,,,,,,,,,,,,,,,,,,,,,,,,,,,,,,,,,,,,,3070.157157315789,None,3070.157157315789,None,3070.607054260705,None,3070.607054260705,None,v,10.486047544884059,3070.607054260705,None,t,9.645757739555847,3070.607054260705,None,10.486047544884059,9.645757739555847,8,False,False,False,3081.1717383668074,None,3081.1717383668074,None,3081.1717383668074,None,3081.1717383668074,None,3081.1717383668074,None,3081.1717383668074,None,3082.1714567096496,None,3082.1714567096496,None,c,,,,,,,,,,,,,,,,,,,,,,,,,,,11_12,001,2021_Apr_08_1634,ComputerHuman,2020.1.3,60.094519853143,
Computer.xlsx,c,Sychronize.jpg,Number9.jpg,9,Computer,,,,,1,2,12,1,0,5,5,7,,,,,,,,,,,,,,,,,,,,,,,,,,,,,,,,,,,,,,,,,,,,,,,,,,,,,,,,,3083.221031577359,None,3083.221031577359,None,3083.67119381894,None,3083.67119381894,None,v,9.193602083876613,3083.67119381894,None,t,12.656669548465288,3083.67119381894,None,9.193602083876613,12.656669548465288,9,False,True,False,3096.385381095286,None,3096.385381095286,None,3096.385381095286,None,3096.385381095286,None,3096.385381095286,None,3096.385381095286,None,3097.385194072369,None,3097.385194072369,None,c,,,,,,,,,,,,,,,,,,,,,,,,,,,11_12,001,2021_Apr_08_1634,ComputerHuman,2020.1.3,60.094519853143,
Computer.xlsx,c,Sychronize.jpg,Number10.jpg,10,Computer,,,,,1,2,12,1,0,6,6,9,,,,,,,,,,,,,,,,,,,,,,,,,,,,,,,,,,,,,,,,,,,,,,,,,,,,,,,,,3098.4514351522885,None,3098.4514351522885,None,3098.9015768630525,None,3098.9015768630525,None,v,1.5430157525916002,3098.9015768630525,None,None,,3098.9015768630525,None,1.5430157525916002,13,10,False,False,False,3111.949030319847,None,3111.949030319847,None,3111.949030319847,None,3111.949030319847,None,3111.949030319847,None,3111.949030319847,None,3112.948812500701,None,3112.948812500701,None,c,,,,,,,,,,,,,,,,,,,,,,,,,,,11_12,001,2021_Apr_08_1634,ComputerHuman,2020.1.3,60.094519853143,
Computer.xlsx,c,Sychronize.jpg,Number8.jpg,8,Computer,,,,,1,2,12,1,0,7,7,5,,,,,,,,,,,,,,,,,,,,,,,,,,,,,,,,,,,,,,,,,,,,,,,,,,,,,,,,,3114.0153028375826,None,3114.0153028375826,None,3114.4484556173447,None,3114.4484556173447,None,v,8.663644893840683,3114.4484556173447,None,t,12.118722020746645,3114.4484556173447,None,8.663644893840683,12.118722020746645,8,False,False,False,3126.6296060809727,None,3126.6296060809727,None,3126.6296060809727,None,3126.6296060809727,None,3126.6296060809727,None,3126.6296060809727,None,3127.628807945428,None,3127.628807945428,None,c,,,,,,,,,,,,,,,,,,,,,,,,,,,11_12,001,2021_Apr_08_1634,ComputerHuman,2020.1.3,60.094519853143,
Computer.xlsx,c,Sychronize.jpg,Number6.jpg,6,Computer,,,,,1,2,12,1,0,8,8,1,,,,,,,,,,,,,,,,,,,,,,,,,,,,,,,,,,,,,,,,,,,,,,,,,,,,,,,,,3128.6788986499378,None,3128.6788986499378,None,3129.129060249932,None,3129.129060249932,None,v,5.386690897310473,3129.129060249932,None,t,7.893781888931699,3129.129060249932,None,5.386690897310473,7.893781888931699,6,False,False,False,3137.0774733620674,None,3137.0774733620674,None,3137.0774733620674,None,3137.0774733620674,None,3137.0774733620674,None,3137.0774733620674,None,3138.094026654777,None,3138.094026654777,None,c,,,,,,,,,,,,,,,,,,,,,,,,,,,11_12,001,2021_Apr_08_1634,ComputerHuman,2020.1.3,60.094519853143,
Computer.xlsx,c,Sychronize.jpg,Number10.jpg,10,Computer,,,,,1,2,12,1,0,9,9,8,,,,,,,,,,,,,,,,,,,,,,,,,,,,,,,,,,,,,,,,,,,,,,,,,,,,,,,,,3139.143586765964,None,3139.143586765964,None,3139.593732005462,None,3139.593732005462,None,v,3.0338017460817355,3139.593732005462,None,None,,3139.593732005462,None,3.0338017460817355,13,10,False,False,False,3152.641182254316,None,3152.641182254316,None,3152.641182254316,None,3152.641182254316,None,3152.641182254316,None,3152.641182254316,None,3153.657671709014,None,3153.657671709014,None,c,,,,,,,,,,,,,,,,,,,,,,,,,,,11_12,001,2021_Apr_08_1634,ComputerHuman,2020.1.3,60.094519853143,
Computer.xlsx,c,,,,,,,,,1,2,12,1,,,,,,,,,,,,,,,,,,,,,,,,,,,,,,,,,,,,,,,,,,,,,,,,,,,,,,,,,,,,,,,,,,,,,,,,,,,,,,,,,,,,,,,,,,,,,,,,,,,c,3154.6574827613294,None,3154.6574827613294,None,q,0,16.329324584210553,3154.6574827613294,None,l,1,3.5089461434909026,3154.6574827613294,None,h,c,3171.037638121881,None,None,None,None,None,None,,,,11_12,001,2021_Apr_08_1634,ComputerHuman,2020.1.3,60.094519853143,
Computer.xlsx,c,Sychronize.jpg,Number10.jpg,10,Computer,,,,,1,3,13,7,0,0,0,8,,,,,,,,,,,,,,,,,,,,,,,,,,,,,,,,,,,,,,,,,,,,,,,,,,,,,3176.0365807847593,None,3176.0365807847593,None,3179.1025636254853,None,3179.1025636254853,None,3179.5526482349123,None,3179.5526482349123,None,None,,3179.5526482349123,None,t,12.28469603963822,3179.5526482349123,None,13,12.28469603963822,10,False,False,False,3192.600122543321,None,3192.600122543321,None,3192.600122543321,None,3192.600122543321,None,3192.600122543321,None,3192.600122543321,None,3193.599914347993,None,3193.599914347993,None,c,,,,,,,,,,,,,,,,,,,,,,,,,,,11_12,001,2021_Apr_08_1634,ComputerHuman,2020.1.3,60.094519853143,
Computer.xlsx,c,Sychronize.jpg,Number8.jpg,8,Computer,,,,,1,3,13,7,0,1,1,5,,,,,,,,,,,,,,,,,,,,,,,,,,,,,,,,,,,,,,,,,,,,,,,,,,,,,,,,,3194.6660646432065,None,3194.6660646432065,None,3195.0995609933707,None,3195.0995609933707,None,v,7.958503046742408,3195.0995609933707,None,None,,3195.0995609933707,None,7.958503046742408,13,8,False,True,False,3208.147028565105,None,3208.147028565105,None,3208.147028565105,None,3208.147028565105,None,3208.147028565105,None,3208.147028565105,None,3209.1469085881363,None,3209.1469085881363,None,c,,,,,,,,,,,,,,,,,,,,,,,,,,,11_12,001,2021_Apr_08_1634,ComputerHuman,2020.1.3,60.094519853143,
Computer.xlsx,c,Sychronize.jpg,Number6.jpg,6,Computer,,,,,1,3,13,7,0,2,2,1,,,,,,,,,,,,,,,,,,,,,,,,,,,,,,,,,,,,,,,,,,,,,,,,,,,,,,,,,3210.2133440692414,None,3210.2133440692414,None,3210.646549459223,None,3210.646549459223,None,v,5.27518642142968,3210.646549459223,None,t,9.294762556281057,3210.646549459223,None,5.27518642142968,9.294762556281057,6,False,False,False,3219.9948162892797,None,3219.9948162892797,None,3219.9948162892797,None,3219.9948162892797,None,3219.9948162892797,None,3219.9948162892797,None,3221.0112829676036,None,3221.0112829676036,None,c,,,,,,,,,,,,,,,,,,,,,,,,,,,11_12,001,2021_Apr_08_1634,ComputerHuman,2020.1.3,60.094519853143,
Computer.xlsx,c,Sychronize.jpg,Number9.jpg,9,Computer,,,,,1,3,13,7,0,3,3,7,,,,,,,,,,,,,,,,,,,,,,,,,,,,,,,,,,,,,,,,,,,,,,,,,,,,,,,,,3222.060842116407,None,3222.060842116407,None,3222.510983827171,None,3222.510983827171,None,v,11.254537551347312,3222.510983827171,None,None,,3222.510983827171,None,11.254537551347312,13,9,False,False,False,3235.5584770624264,None,3235.5584770624264,None,3235.5584770624264,None,3235.5584770624264,None,3235.5584770624264,None,3235.5584770624264,None,3236.574628079423,None,3236.574628079423,None,c,,,,,,,,,,,,,,,,,,,,,,,,,,,11_12,001,2021_Apr_08_1634,ComputerHuman,2020.1.3,60.094519853143,
Computer.xlsx,c,Sychronize.jpg,Number10.jpg,10,Computer,,,,,1,3,13,7,0,4,4,9,,,,,,,,,,,,,,,,,,,,,,,,,,,,,,,,,,,,,,,,,,,,,,,,,,,,,,,,,3237.624531119429,None,3237.624531119429,None,3238.0746510161953,None,3238.0746510161953,None,v,5.438342585566716,3238.0746510161953,None,None,,3238.0746510161953,None,5.438342585566716,13,10,False,False,False,3251.1220926036112,None,3251.1220926036112,None,3251.1220926036112,None,3251.1220926036112,None,3251.1220926036112,None,3251.1220926036112,None,3252.138595531662,None,3252.138595531662,None,c,,,,,,,,,,,,,,,,,,,,,,,,,,,11_12,001,2021_Apr_08_1634,ComputerHuman,2020.1.3,60.094519853143,
Computer.xlsx,c,Sychronize.jpg,Number7.jpg,7,Computer,,,,,1,3,13,7,0,5,5,3,,,,,,,,,,,,,,,,,,,,,,,,,,,,,,,,,,,,,,,,,,,,,,,,,,,,,,,,,3253.188244502795,None,3253.188244502795,None,3253.63830216552,None,3253.63830216552,None,v,6.366309248649486,3253.63830216552,None,t,8.038082100818428,3253.63830216552,None,6.366309248649486,8.038082100818428,7,False,False,False,3261.7366672387507,None,3261.7366672387507,None,3261.7366672387507,None,3261.7366672387507,None,3261.7366672387507,None,3261.7366672387507,None,3262.736464496924,None,3262.736464496924,None,c,,,,,,,,,,,,,,,,,,,,,,,,,,,11_12,001,2021_Apr_08_1634,ComputerHuman,2020.1.3,60.094519853143,
Computer.xlsx,c,Sychronize.jpg,Number6.jpg,6,Computer,,,,,1,3,13,7,0,6,6,0,,,,,,,,,,,,,,,,,,,,,,,,,,,,,,,,,,,,,,,,,,,,,,,,,,,,,,,,,3263.80301642626,None,3263.80301642626,None,3264.2361740179294,None,3264.2361740179294,None,v,2.104332483766484,3264.2361740179294,None,None,,3264.2361740179294,None,2.104332483766484,13,6,False,False,False,3277.283728524846,None,3277.283728524846,None,3277.283728524846,None,3277.283728524846,None,3277.283728524846,None,3277.283728524846,None,3278.283468360889,None,3278.283468360889,None,c,,,,,,,,,,,,,,,,,,,,,,,,,,,11_12,001,2021_Apr_08_1634,ComputerHuman,2020.1.3,60.094519853143,
Computer.xlsx,c,Sychronize.jpg,Number8.jpg,8,Computer,,,,,1,3,13,7,0,7,7,4,,,,,,,,,,,,,,,,,,,,,,,,,,,,,,,,,,,,,,,,,,,,,,,,,,,,,,,,,3279.3330448325687,None,3279.3330448325687,None,3279.7832250386164,None,3279.7832250386164,None,v,10.564673199103709,3279.7832250386164,None,t,10.439721358306997,3279.7832250386164,None,10.564673199103709,10.439721358306997,8,False,False,False,3290.3978827594074,None,3290.3978827594074,None,3290.3978827594074,None,3290.3978827594074,None,3290.3978827594074,None,3290.3978827594074,None,3291.3976703937587,None,3291.3976703937587,None,c,,,,,,,,,,,,,,,,,,,,,,,,,,,11_12,001,2021_Apr_08_1634,ComputerHuman,2020.1.3,60.094519853143,
Computer.xlsx,c,Sychronize.jpg,Number9.jpg,9,Computer,,,,,1,3,13,7,0,8,8,6,,,,,,,,,,,,,,,,,,,,,,,,,,,,,,,,,,,,,,,,,,,,,,,,,,,,,,,,,3292.46384699408,None,3292.46384699408,None,3292.8973026034037,None,3292.8973026034037,None,None,,3292.8973026034037,None,t,11.929713065779652,3292.8973026034037,None,13,11.929713065779652,9,False,False,False,3305.9448513360257,None,3305.9448513360257,None,3305.9448513360257,None,3305.9448513360257,None,3305.9448513360257,None,3305.9448513360257,None,3306.944666879459,None,3306.944666879459,None,c,,,,,,,,,,,,,,,,,,,,,,,,,,,11_12,001,2021_Apr_08_1634,ComputerHuman,2020.1.3,60.094519853143,
Computer.xlsx,c,Sychronize.jpg,Number7.jpg,7,Computer,,,,,1,3,13,7,0,9,9,2,,,,,,,,,,,,,,,,,,,,,,,,,,,,,,,,,,,,,,,,,,,,,,,,,,,,,,,,,3308.0111260993217,None,3308.0111260993217,None,3308.4443866658767,None,3308.4443866658767,None,v,11.81464873855657,3308.4443866658767,None,t,10.325712443438533,3308.4443866658767,None,11.81464873855657,10.325712443438533,7,False,False,False,3320.3087401937264,None,3320.3087401937264,None,3320.3087401937264,None,3320.3087401937264,None,3320.3087401937264,None,3320.3087401937264,None,3321.325195644258,None,3321.325195644258,None,c,,,,,,,,,,,,,,,,,,,,,,,,,,,11_12,001,2021_Apr_08_1634,ComputerHuman,2020.1.3,60.094519853143,
