Condition,CorrectTuringReply,Sychronize,NumberImage,Number,Partner,trials.thisRepN,trials.thisTrialN,trials.thisN,trials.thisIndex,Block.thisRepN,Block.thisTrialN,Block.thisN,Block.thisIndex,trials_loop.thisRepN,trials_loop.thisTrialN,trials_loop.thisN,trials_loop.thisIndex,textLeft.started,textLeft.stopped,textRight.started,textRight.stopped,key_resp_Istr.keys,key_resp_Istr.rt,key_resp_Istr.started,key_resp_Istr.stopped,SychroLeftPr.started,SychroLeftPr.stopped,SychroRightPr.started,SychroRightPr.stopped,NumberLeftPr.started,NumberLeftPr.stopped,NumberRightPr.started,NumberRightPr.stopped,CrossLeftPr.started,CrossLeftPr.stopped,CrossRightPr.started,CrossRightPr.stopped,key_respPrLeft.keys,key_respPrLeft.rt,key_respPrLeft.started,key_respPrLeft.stopped,key_respPrRight.keys,key_respPrRight.rt,key_respPrRight.started,key_respPrRight.stopped,RTPrLeft,RTPrRight,CompPr,SychronizedRTsPr,SychronizedRTsLeftCPr,SychronizedRTsRightCPr,FeedbackLeftLeftPr.started,FeedbackLeftLeftPr.stopped,FeedbackRightRightPr.started,FeedbackRightRightPr.stopped,LineLeftPr.started,LineLeftPr.stopped,LineRightPr.started,LineRightPr.stopped,CreditLeftPr.started,CreditLeftPr.stopped,CreditRightPr.started,CreditRightPr.stopped,text_StartExp.started,text_StartExp.stopped,key_startExp.keys,key_startExp.rt,key_startExp.started,key_startExp.stopped,SychroLeft.started,SychroLeft.stopped,SychroRight.started,SychroRight.stopped,NumberLeft.started,NumberLeft.stopped,NumberRight.started,NumberRight.stopped,CrossLeft.started,CrossLeft.stopped,CrossRight.started,CrossRight.stopped,key_respLeft.keys,key_respLeft.started,key_respLeft.stopped,key_respRight.keys,key_respRight.rt,key_respRight.started,key_respRight.stopped,RTLeft,RTRight,Comp,SychronizedRTs,SychronizedRTsLeftC,SychronizedRTsRightC,FeedbackLeftLeft.started,FeedbackLeftLeft.stopped,FeedbackLeftRight.started,FeedbackLeftRight.stopped,FeedbackRightLeft.started,FeedbackRightLeft.stopped,FeedbackRightRight.started,FeedbackRightRight.stopped,LineLeft.started,LineLeft.stopped,LineRight.started,LineRight.stopped,CreditLeft.started,CreditLeft.stopped,CreditRight.started,CreditRight.stopped,key_respLeft.rt,CorrectTuringReply,TuringtextLeft.started,TuringtextLeft.stopped,TuringtextRight.started,TuringtextRight.stopped,keyTuringLeft.keys,keyTuringLeft.corr,keyTuringLeft.rt,keyTuringLeft.started,keyTuringLeft.stopped,keyTuringRight.keys,keyTuringRight.corr,keyTuringRight.rt,keyTuringRight.started,keyTuringRight.stopped,RespTuringLeft,RespTuringRight,BlockText.started,BlockText.stopped,text_Pause.started,text_Pause.stopped,key_respPause.keys,key_respPause.started,key_respPause.stopped,key_respPause.rt,EndText.started,EndText.stopped,participant,session,date,expName,psychopyVersion,frameRate,
,,,,,,,,,,,,,,,,,,17.671735246954313,None,17.671735246954313,None,"['t', 't', 'v']","[1544.3496175228336, 1548.3653284857676, 1550.109182499364]",18.53208480930357,None,,,,,,,,,,,,,,,,,,,,,,,,,,,,,,,,,,,,,,,,,,,,,,,,,,,,,,,,,,,,,,,,,,,,,,,,,,,,,,,,,,,,,,,,,,,,,,,,,,,,,,,,,,,,,,,,,,13_14,001,2021_Apr_12_1051,ComputerHuman,2020.1.3,59.9558616498,
,,,,,,,,,,,,,,,,,,,,,,,,,,1568.6946194009765,None,1568.6946194009765,None,1639.8433907810927,None,1639.8433907810927,None,1640.2766990618265,None,1640.2766990618265,None,None,12.176573991295754,1640.2766990618265,None,t,6.413572863127229,1640.2766990618265,None,13,6.413572863127229,7,False,False,False,1653.323339559594,None,1653.323339559594,None,1653.323339559594,None,1653.323339559594,None,1654.3398200639563,None,1654.3398200639563,None,1655.3395281578705,None,"['space', 'space']","[1.5673515553303332, 2.6392207583080562]",1656.322681327409,None,,,,,,,,,,,,,,,,,,,,,,,,,,,,,,,,,,,,,,,,,,,,,,,,,,,,,,,,,,,,,,,,,,,,,,13_14,001,2021_Apr_12_1051,ComputerHuman,2020.1.3,59.9558616498,
Human.xlsx,h,Sychronize.jpg,Number10.jpg,10,Human,,,,,0,0,0,0,0,0,0,8,,,,,,,,,,,,,,,,,,,,,,,,,,,,,,,,,,,,,,,,,,,,,,,,,,,,,1659.0386589513641,None,1659.0386589513641,None,1662.0876000540188,None,1662.0876000540188,None,1662.5211104235814,None,1662.5211104235814,None,None,1662.5211104235814,None,t,10.083183611173354,1662.5211104235814,None,13,10.083183611173354,10,False,False,False,1675.567805132479,None,1675.567805132479,None,1675.567805132479,None,1675.567805132479,None,1675.567805132479,None,1675.567805132479,None,1676.56754177545,None,1676.56754177545,None,,h,,,,,,,,,,,,,,,,,,,,,,,,,,,13_14,001,2021_Apr_12_1051,ComputerHuman,2020.1.3,59.9558616498,
Human.xlsx,h,Sychronize.jpg,Number7.jpg,7,Human,,,,,0,0,0,0,0,1,1,3,,,,,,,,,,,,,,,,,,,,,,,,,,,,,,,,,,,,,,,,,,,,,,,,,,,,,,,,,1677.6170448775133,None,1677.6170448775133,None,1678.0672442557857,None,1678.0672442557857,None,None,1678.0672442557857,None,t,7.875387858182421,1678.0672442557857,None,13,7.875387858182421,7,False,False,False,1691.1139646267566,None,1691.1139646267566,None,1691.1139646267566,None,1691.1139646267566,None,1691.1139646267566,None,1691.1139646267566,None,1692.1136643804966,None,1692.1136643804966,None,,h,,,,,,,,,,,,,,,,,,,,,,,,,,,13_14,001,2021_Apr_12_1051,ComputerHuman,2020.1.3,59.9558616498,
Human.xlsx,h,Sychronize.jpg,Number6.jpg,6,Human,,,,,0,0,0,0,0,2,2,0,,,,,,,,,,,,,,,,,,,,,,,,,,,,,,,,,,,,,,,,,,,,,,,,,,,,,,,,,1693.16315176454,None,1693.16315176454,None,1693.6133328585852,None,1693.6133328585852,None,v,1693.6133328585852,None,t,6.164602634019502,1693.6133328585852,None,6.82521529677706,6.164602634019502,6,False,False,False,1700.4948173838734,None,1700.4948173838734,None,1700.4948173838734,None,1700.4948173838734,None,1700.4948173838734,None,1700.4948173838734,None,1701.5113373436739,None,1701.5113373436739,None,6.82521529677706,h,,,,,,,,,,,,,,,,,,,,,,,,,,,13_14,001,2021_Apr_12_1051,ComputerHuman,2020.1.3,59.9558616498,
Human.xlsx,h,Sychronize.jpg,Number9.jpg,9,Human,,,,,0,0,0,0,0,3,3,7,,,,,,,,,,,,,,,,,,,,,,,,,,,,,,,,,,,,,,,,,,,,,,,,,,,,,,,,,1702.5610861600908,None,1702.5610861600908,None,1703.0109801596886,None,1703.0109801596886,None,v,1703.0109801596886,None,t,9.306310207635306,1703.0109801596886,None,11.502411112190657,9.306310207635306,9,False,False,False,1714.5913414239435,None,1714.5913414239435,None,1714.5913414239435,None,1714.5913414239435,None,1714.5913414239435,None,1714.5913414239435,None,1715.5911874515027,None,1715.5911874515027,None,11.502411112190657,h,,,,,,,,,,,,,,,,,,,,,,,,,,,13_14,001,2021_Apr_12_1051,ComputerHuman,2020.1.3,59.9558616498,
Human.xlsx,h,Sychronize.jpg,Number8.jpg,8,Human,,,,,0,0,0,0,0,4,4,5,,,,,,,,,,,,,,,,,,,,,,,,,,,,,,,,,,,,,,,,,,,,,,,,,,,,,,,,,1716.6406876665828,None,1716.6406876665828,None,1717.090789528976,None,1717.090789528976,None,v,1717.090789528976,None,t,7.993347749003078,1717.090789528976,None,10.31755596978428,7.993347749003078,8,False,False,False,1727.471536109264,None,1727.471536109264,None,1727.471536109264,None,1727.471536109264,None,1727.471536109264,None,1727.471536109264,None,1728.4712547887834,None,1728.4712547887834,None,10.31755596978428,h,,,,,,,,,,,,,,,,,,,,,,,,,,,13_14,001,2021_Apr_12_1051,ComputerHuman,2020.1.3,59.9558616498,
Human.xlsx,h,Sychronize.jpg,Number7.jpg,7,Human,,,,,0,0,0,0,0,5,5,2,,,,,,,,,,,,,,,,,,,,,,,,,,,,,,,,,,,,,,,,,,,,,,,,,,,,,,,,,1729.5542645394094,None,1729.5542645394094,None,1729.9709508536007,None,1729.9709508536007,None,v,1729.9709508536007,None,t,7.487825431178862,1729.9709508536007,None,11.992200654318822,7.487825431178862,7,False,False,False,1742.017901541681,None,1742.017901541681,None,1742.017901541681,None,1742.017901541681,None,1742.017901541681,None,1742.017901541681,None,1743.0176474871537,None,1743.0176474871537,None,11.992200654318822,h,,,,,,,,,,,,,,,,,,,,,,,,,,,13_14,001,2021_Apr_12_1051,ComputerHuman,2020.1.3,59.9558616498,
Human.xlsx,h,Sychronize.jpg,Number10.jpg,10,Human,,,,,0,0,0,0,0,6,6,9,,,,,,,,,,,,,,,,,,,,,,,,,,,,,,,,,,,,,,,,,,,,,,,,,,,,,,,,,1744.0837889153318,None,1744.0837889153318,None,1744.5172559801454,None,1744.5172559801454,None,v,1744.5172559801454,None,t,10.680244148967176,1744.5172559801454,None,12.528675923618266,10.680244148967176,10,False,False,False,1757.0974456292838,None,1757.0974456292838,None,1757.0974456292838,None,1757.0974456292838,None,1757.0974456292838,None,1757.0974456292838,None,1758.0971694412178,None,1758.0971694412178,None,12.528675923618266,h,,,,,,,,,,,,,,,,,,,,,,,,,,,13_14,001,2021_Apr_12_1051,ComputerHuman,2020.1.3,59.9558616498,
Human.xlsx,h,Sychronize.jpg,Number8.jpg,8,Human,,,,,0,0,0,0,0,7,7,4,,,,,,,,,,,,,,,,,,,,,,,,,,,,,,,,,,,,,,,,,,,,,,,,,,,,,,,,,1759.1466378994824,None,1759.1466378994824,None,1759.5968613359482,None,1759.5968613359482,None,v,1759.5968613359482,None,t,8.39537813225661,1759.5968613359482,None,10.243987937542443,8.39537813225661,8,False,False,False,1769.894287333746,None,1769.894287333746,None,1769.894287333746,None,1769.894287333746,None,1769.894287333746,None,1769.894287333746,None,1770.910693738871,None,1770.910693738871,None,10.243987937542443,h,,,,,,,,,,,,,,,,,,,,,,,,,,,13_14,001,2021_Apr_12_1051,ComputerHuman,2020.1.3,59.9558616498,
Human.xlsx,h,Sychronize.jpg,Number9.jpg,9,Human,,,,,0,0,0,0,0,8,8,6,,,,,,,,,,,,,,,,,,,,,,,,,,,,,,,,,,,,,,,,,,,,,,,,,,,,,,,,,1771.9601747073962,None,1771.9601747073962,None,1772.4103221199698,None,1772.4103221199698,None,None,1772.4103221199698,None,t,9.465251788245496,1772.4103221199698,None,13,9.465251788245496,9,False,False,False,1785.4570254898167,None,1785.4570254898167,None,1785.4570254898167,None,1785.4570254898167,None,1785.4570254898167,None,1785.4570254898167,None,1786.473474878915,None,1786.473474878915,None,,h,,,,,,,,,,,,,,,,,,,,,,,,,,,13_14,001,2021_Apr_12_1051,ComputerHuman,2020.1.3,59.9558616498,
Human.xlsx,h,Sychronize.jpg,Number6.jpg,6,Human,,,,,0,0,0,0,0,9,9,1,,,,,,,,,,,,,,,,,,,,,,,,,,,,,,,,,,,,,,,,,,,,,,,,,,,,,,,,,1787.523194183948,None,1787.523194183948,None,1787.9730904289768,None,1787.9730904289768,None,None,1787.9730904289768,None,t,7.257440638010394,1787.9730904289768,None,13,7.257440638010394,6,False,False,False,1801.0197614004564,None,1801.0197614004564,None,1801.0197614004564,None,1801.0197614004564,None,1801.0197614004564,None,1801.0197614004564,None,1802.0362316399892,None,1802.0362316399892,None,,h,,,,,,,,,,,,,,,,,,,,,,,,,,,13_14,001,2021_Apr_12_1051,ComputerHuman,2020.1.3,59.9558616498,
Human.xlsx,h,,,,,,,,,0,0,0,0,,,,,,,,,,,,,,,,,,,,,,,,,,,,,,,,,,,,,,,,,,,,,,,,,,,,,,,,,,,,,,,,,,,,,,,,,,,,,,,,,,,,,,,,,,,,,,,,,,,h,1803.03600998383,None,1803.03600998383,None,a,0,16.90075802557294,1803.03600998383,None,l,0,10.65617921878902,1803.03600998383,None,c,c,1819.9984070267892,None,None,None,None,None,None,,,,13_14,001,2021_Apr_12_1051,ComputerHuman,2020.1.3,59.9558616498,
Human.xlsx,h,Sychronize.jpg,Number8.jpg,8,Human,,,,,0,1,1,8,0,0,0,4,,,,,,,,,,,,,,,,,,,,,,,,,,,,,,,,,,,,,,,,,,,,,,,,,,,,,1825.0138450094164,None,1825.0138450094164,None,1828.0795492200173,None,1828.0795492200173,None,1828.512973621634,None,1828.512973621634,None,v,1828.512973621634,None,t,9.44128405317042,1828.512973621634,None,12.378144446037368,9.44128405317042,8,False,False,False,1840.9431200141398,None,1840.9431200141398,None,1840.9431200141398,None,1840.9431200141398,None,1840.9431200141398,None,1840.9431200141398,None,1841.9429166422074,None,1841.9429166422074,None,12.378144446037368,h,,,,,,,,,,,,,,,,,,,,,,,,,,,13_14,001,2021_Apr_12_1051,ComputerHuman,2020.1.3,59.9558616498,
Human.xlsx,h,Sychronize.jpg,Number6.jpg,6,Human,,,,,0,1,1,8,0,1,1,1,,,,,,,,,,,,,,,,,,,,,,,,,,,,,,,,,,,,,,,,,,,,,,,,,,,,,,,,,1842.9923889497827,None,1842.9923889497827,None,1843.4425225689915,None,1843.4425225689915,None,v,1843.4425225689915,None,t,8.283421562749936,1843.4425225689915,None,8.739674624154759,8.283421562749936,6,False,False,False,1852.2403496970755,None,1852.2403496970755,None,1852.2403496970755,None,1852.2403496970755,None,1852.2403496970755,None,1852.2403496970755,None,1853.2567621969429,None,1853.2567621969429,None,8.739674624154759,h,,,,,,,,,,,,,,,,,,,,,,,,,,,13_14,001,2021_Apr_12_1051,ComputerHuman,2020.1.3,59.9558616498,
Human.xlsx,h,Sychronize.jpg,Number6.jpg,6,Human,,,,,0,1,1,8,0,2,2,0,,,,,,,,,,,,,,,,,,,,,,,,,,,,,,,,,,,,,,,,,,,,,,,,,,,,,,,,,1854.3062489394347,None,1854.3062489394347,None,1854.7564265049446,None,1854.7564265049446,None,v,1854.7564265049446,None,t,7.81242564013246,1854.7564265049446,None,8.044880400302645,7.81242564013246,6,True,False,False,1862.85433565543,None,1862.85433565543,None,1862.85433565543,None,1862.85433565543,None,1862.85433565543,None,1862.85433565543,None,1863.8707577785754,None,1863.8707577785754,None,8.044880400302645,h,,,,,,,,,,,,,,,,,,,,,,,,,,,13_14,001,2021_Apr_12_1051,ComputerHuman,2020.1.3,59.9558616498,
Human.xlsx,h,Sychronize.jpg,Number9.jpg,9,Human,,,,,0,1,1,8,0,3,3,7,,,,,,,,,,,,,,,,,,,,,,,,,,,,,,,,,,,,,,,,,,,,,,,,,,,,,,,,,1864.9202676169334,None,1864.9202676169334,None,1865.3704429370114,None,1865.3704429370114,None,v,1865.3704429370114,None,t,10.873180278311793,1865.3704429370114,None,11.925668841848164,10.873180278311793,9,False,False,False,1877.350769429157,None,1877.350769429157,None,1877.350769429157,None,1877.350769429157,None,1877.350769429157,None,1877.350769429157,None,1878.3504845801413,None,1878.3504845801413,None,11.925668841848164,h,,,,,,,,,,,,,,,,,,,,,,,,,,,13_14,001,2021_Apr_12_1051,ComputerHuman,2020.1.3,59.9558616498,
Human.xlsx,h,Sychronize.jpg,Number9.jpg,9,Human,,,,,0,1,1,8,0,4,4,6,,,,,,,,,,,,,,,,,,,,,,,,,,,,,,,,,,,,,,,,,,,,,,,,,,,,,,,,,1879.4000374024722,None,1879.4000374024722,None,1879.8501456803833,None,1879.8501456803833,None,v,1879.8501456803833,None,t,10.424219736636132,1879.8501456803833,None,11.344848868029658,10.424219736636132,9,False,False,False,1891.2472787776896,None,1891.2472787776896,None,1891.2472787776896,None,1891.2472787776896,None,1891.2472787776896,None,1891.2472787776896,None,1892.2470013065204,None,1892.2470013065204,None,11.344848868029658,h,,,,,,,,,,,,,,,,,,,,,,,,,,,13_14,001,2021_Apr_12_1051,ComputerHuman,2020.1.3,59.9558616498,
Human.xlsx,h,Sychronize.jpg,Number8.jpg,8,Human,,,,,0,1,1,8,0,5,5,5,,,,,,,,,,,,,,,,,,,,,,,,,,,,,,,,,,,,,,,,,,,,,,,,,,,,,,,,,1893.29651178643,None,1893.29651178643,None,1893.7467073153912,None,1893.7467073153912,None,v,1893.7467073153912,None,t,10.950219426767035,1893.7467073153912,None,10.147240958209295,10.950219426767035,8,False,False,False,1904.7605555325667,None,1904.7605555325667,None,1904.7605555325667,None,1904.7605555325667,None,1904.7605555325667,None,1904.7605555325667,None,1905.7770665106414,None,1905.7770665106414,None,10.147240958209295,h,,,,,,,,,,,,,,,,,,,,,,,,,,,13_14,001,2021_Apr_12_1051,ComputerHuman,2020.1.3,59.9558616498,
Human.xlsx,h,Sychronize.jpg,Number7.jpg,7,Human,,,,,0,1,1,8,0,6,6,3,,,,,,,,,,,,,,,,,,,,,,,,,,,,,,,,,,,,,,,,,,,,,,,,,,,,,,,,,1906.8265189301096,None,1906.8265189301096,None,1907.2599157449972,None,1907.2599157449972,None,v,1907.2599157449972,None,t,7.54447189217035,1907.2599157449972,None,11.604867261321033,7.54447189217035,7,False,False,False,1918.9237185242641,None,1918.9237185242641,None,1918.9237185242641,None,1918.9237185242641,None,1918.9237185242641,None,1918.9237185242641,None,1919.9400745675703,None,1919.9400745675703,None,11.604867261321033,h,,,,,,,,,,,,,,,,,,,,,,,,,,,13_14,001,2021_Apr_12_1051,ComputerHuman,2020.1.3,59.9558616498,
Human.xlsx,h,Sychronize.jpg,Number10.jpg,10,Human,,,,,0,1,1,8,0,7,7,8,,,,,,,,,,,,,,,,,,,,,,,,,,,,,,,,,,,,,,,,,,,,,,,,,,,,,,,,,1920.98956066851,None,1920.98956066851,None,1921.4397501027283,None,1921.4397501027283,None,None,1921.4397501027283,None,t,11.151149612775498,1921.4397501027283,None,13,11.151149612775498,10,False,False,False,1934.48643037671,None,1934.48643037671,None,1934.48643037671,None,1934.48643037671,None,1934.48643037671,None,1934.48643037671,None,1935.5028553868383,None,1935.5028553868383,None,,h,,,,,,,,,,,,,,,,,,,,,,,,,,,13_14,001,2021_Apr_12_1051,ComputerHuman,2020.1.3,59.9558616498,
Human.xlsx,h,Sychronize.jpg,Number7.jpg,7,Human,,,,,0,1,1,8,0,8,8,2,,,,,,,,,,,,,,,,,,,,,,,,,,,,,,,,,,,,,,,,,,,,,,,,,,,,,,,,,1936.5523254489822,None,1936.5523254489822,None,1937.0024654837093,None,1937.0024654837093,None,v,1937.0024654837093,None,t,10.735230594580571,1937.0024654837093,None,9.056094405636031,10.735230594580571,7,False,False,False,1947.8163955628993,None,1947.8163955628993,None,1947.8163955628993,None,1947.8163955628993,None,1947.8163955628993,None,1947.8163955628993,None,1948.8162569877027,None,1948.8162569877027,None,9.056094405636031,h,,,,,,,,,,,,,,,,,,,,,,,,,,,13_14,001,2021_Apr_12_1051,ComputerHuman,2020.1.3,59.9558616498,
Human.xlsx,h,Sychronize.jpg,Number10.jpg,10,Human,,,,,0,1,1,8,0,9,9,9,,,,,,,,,,,,,,,,,,,,,,,,,,,,,,,,,,,,,,,,,,,,,,,,,,,,,,,,,1949.83205648479,None,1949.83205648479,None,1950.315853611985,None,1950.315853611985,None,v,1950.315853611985,None,t,10.185263810926699,1950.315853611985,None,9.209633799003768,10.185263810926699,10,False,False,False,1960.563289249099,None,1960.563289249099,None,1960.563289249099,None,1960.563289249099,None,1960.563289249099,None,1960.563289249099,None,1961.5630364776753,None,1961.5630364776753,None,9.209633799003768,h,,,,,,,,,,,,,,,,,,,,,,,,,,,13_14,001,2021_Apr_12_1051,ComputerHuman,2020.1.3,59.9558616498,
Human.xlsx,h,,,,,,,,,0,1,1,8,,,,,,,,,,,,,,,,,,,,,,,,,,,,,,,,,,,,,,,,,,,,,,,,,,,,,,,,,,,,,,,,,,,,,,,,,,,,,,,,,,,,,,,,,,,,,,,,,,,h,1962.5628029528066,None,1962.5628029528066,None,q,1,7.61374665951962,1962.5628029528066,None,o,1,6.641532911127797,1962.5628029528066,None,h,h,1970.2275542664643,None,None,None,None,None,None,,,,13_14,001,2021_Apr_12_1051,ComputerHuman,2020.1.3,59.9558616498,
Human.xlsx,h,Sychronize.jpg,Number6.jpg,6,Human,,,,,0,2,2,4,0,0,0,1,,,,,,,,,,,,,,,,,,,,,,,,,,,,,,,,,,,,,,,,,,,,,,,,,,,,,1975.2263455828033,None,1975.2263455828033,None,1978.3086307006292,None,1978.3086307006292,None,1978.7420637631958,None,1978.7420637631958,None,v,1978.7420637631958,None,t,7.144463038755475,1978.7420637631958,None,6.741287164696587,7.144463038755475,6,False,False,False,1985.9402679954487,None,1985.9402679954487,None,1985.9402679954487,None,1985.9402679954487,None,1985.9402679954487,None,1985.9402679954487,None,1986.9566683058315,None,1986.9566683058315,None,6.741287164696587,h,,,,,,,,,,,,,,,,,,,,,,,,,,,13_14,001,2021_Apr_12_1051,ComputerHuman,2020.1.3,59.9558616498,
Human.xlsx,h,Sychronize.jpg,Number10.jpg,10,Human,,,,,0,2,2,4,0,1,1,8,,,,,,,,,,,,,,,,,,,,,,,,,,,,,,,,,,,,,,,,,,,,,,,,,,,,,,,,,1988.0061207253002,None,1988.0061207253002,None,1988.4563088764153,None,1988.4563088764153,None,None,1988.4563088764153,None,t,11.633177340004295,1988.4563088764153,None,13,11.633177340004295,10,False,False,False,2001.5030446446299,None,2001.5030446446299,None,2001.5030446446299,None,2001.5030446446299,None,2001.5030446446299,None,2001.5030446446299,None,2002.5194472004441,None,2002.5194472004441,None,,h,,,,,,,,,,,,,,,,,,,,,,,,,,,13_14,001,2021_Apr_12_1051,ComputerHuman,2020.1.3,59.9558616498,
Human.xlsx,h,Sychronize.jpg,Number6.jpg,6,Human,,,,,0,2,2,4,0,2,2,0,,,,,,,,,,,,,,,,,,,,,,,,,,,,,,,,,,,,,,,,,,,,,,,,,,,,,,,,,2003.5688893550832,None,2003.5688893550832,None,2004.0191406990543,None,2004.0191406990543,None,v,2004.0191406990543,None,t,6.193569020231735,2004.0191406990543,None,7.426105899036884,6.193569020231735,6,False,False,False,2011.50052815755,None,2011.50052815755,None,2011.50052815755,None,2011.50052815755,None,2011.50052815755,None,2011.50052815755,None,2012.5003427490687,None,2012.5003427490687,None,7.426105899036884,h,,,,,,,,,,,,,,,,,,,,,,,,,,,13_14,001,2021_Apr_12_1051,ComputerHuman,2020.1.3,59.9558616498,
Human.xlsx,h,Sychronize.jpg,Number9.jpg,9,Human,,,,,0,2,2,4,0,3,3,7,,,,,,,,,,,,,,,,,,,,,,,,,,,,,,,,,,,,,,,,,,,,,,,,,,,,,,,,,2013.566409436458,None,2013.566409436458,None,2014.0166380053383,None,2014.0166380053383,None,v,2014.0166380053383,None,t,11.023193382007776,2014.0166380053383,None,9.199681084582153,11.023193382007776,9,False,False,False,2025.0970799447368,None,2025.0970799447368,None,2025.0970799447368,None,2025.0970799447368,None,2025.0970799447368,None,2025.0970799447368,None,2026.0969554836806,None,2026.0969554836806,None,9.199681084582153,h,,,,,,,,,,,,,,,,,,,,,,,,,,,13_14,001,2021_Apr_12_1051,ComputerHuman,2020.1.3,59.9558616498,
Human.xlsx,h,Sychronize.jpg,Number8.jpg,8,Human,,,,,0,2,2,4,0,4,4,4,,,,,,,,,,,,,,,,,,,,,,,,,,,,,,,,,,,,,,,,,,,,,,,,,,,,,,,,,2027.1464194510818,None,2027.1464194510818,None,2027.596532861408,None,2027.596532861408,None,v,2027.596532861408,None,None,,2027.596532861408,None,11.08641382467249,13,8,False,False,False,2040.6431169026137,None,2040.6431169026137,None,2040.6431169026137,None,2040.6431169026137,None,2040.6431169026137,None,2040.6431169026137,None,2041.6429619678447,None,2041.6429619678447,None,11.08641382467249,h,,,,,,,,,,,,,,,,,,,,,,,,,,,13_14,001,2021_Apr_12_1051,ComputerHuman,2020.1.3,59.9558616498,
Human.xlsx,h,Sychronize.jpg,Number10.jpg,10,Human,,,,,0,2,2,4,0,5,5,9,,,,,,,,,,,,,,,,,,,,,,,,,,,,,,,,,,,,,,,,,,,,,,,,,,,,,,,,,2042.7094270589246,None,2042.7094270589246,None,2043.1426278797258,None,2043.1426278797258,None,None,2043.1426278797258,None,t,10.318228636885124,2043.1426278797258,None,13,10.318228636885124,10,False,False,False,2056.189378724409,None,2056.189378724409,None,2056.189378724409,None,2056.189378724409,None,2056.189378724409,None,2056.189378724409,None,2057.1891400671257,None,2057.1891400671257,None,,h,,,,,,,,,,,,,,,,,,,,,,,,,,,13_14,001,2021_Apr_12_1051,ComputerHuman,2020.1.3,59.9558616498,
Human.xlsx,h,Sychronize.jpg,Number7.jpg,7,Human,,,,,0,2,2,4,0,6,6,3,,,,,,,,,,,,,,,,,,,,,,,,,,,,,,,,,,,,,,,,,,,,,,,,,,,,,,,,,2058.2552734759056,None,2058.2552734759056,None,2058.6887623534817,None,2058.6887623534817,None,v,2058.6887623534817,None,t,8.447442309252892,2058.6887623534817,None,5.936069680228229,8.447442309252892,7,False,False,False,2067.186549801584,None,2067.186549801584,None,2067.186549801584,None,2067.186549801584,None,2067.186549801584,None,2067.186549801584,None,2068.203023890428,None,2068.203023890428,None,5.936069680228229,h,,,,,,,,,,,,,,,,,,,,,,,,,,,13_14,001,2021_Apr_12_1051,ComputerHuman,2020.1.3,59.9558616498,
Human.xlsx,h,Sychronize.jpg,Number7.jpg,7,Human,,,,,0,2,2,4,0,7,7,2,,,,,,,,,,,,,,,,,,,,,,,,,,,,,,,,,,,,,,,,,,,,,,,,,,,,,,,,,2069.2527682159825,None,2069.2527682159825,None,2069.702677292048,None,2069.702677292048,None,None,2069.702677292048,None,t,7.23649557441513,2069.702677292048,None,13,7.23649557441513,7,False,False,False,2082.7660433669794,None,2082.7660433669794,None,2082.7660433669794,None,2082.7660433669794,None,2082.7660433669794,None,2082.7660433669794,None,2083.7657771229674,None,2083.7657771229674,None,,h,,,,,,,,,,,,,,,,,,,,,,,,,,,13_14,001,2021_Apr_12_1051,ComputerHuman,2020.1.3,59.9558616498,
Human.xlsx,h,Sychronize.jpg,Number8.jpg,8,Human,,,,,0,2,2,4,0,8,8,5,,,,,,,,,,,,,,,,,,,,,,,,,,,,,,,,,,,,,,,,,,,,,,,,,,,,,,,,,2084.7981822270253,None,2084.7981822270253,None,2085.2654295622597,None,2085.2654295622597,None,None,2085.2654295622597,None,t,9.300310094080032,2085.2654295622597,None,13,9.300310094080032,8,False,False,False,2098.3289072672105,None,2098.3289072672105,None,2098.3289072672105,None,2098.3289072672105,None,2098.3289072672105,None,2098.3289072672105,None,2099.3285890574994,None,2099.3285890574994,None,,h,,,,,,,,,,,,,,,,,,,,,,,,,,,13_14,001,2021_Apr_12_1051,ComputerHuman,2020.1.3,59.9558616498,
Human.xlsx,h,Sychronize.jpg,Number9.jpg,9,Human,,,,,0,2,2,4,0,9,9,6,,,,,,,,,,,,,,,,,,,,,,,,,,,,,,,,,,,,,,,,,,,,,,,,,,,,,,,,,2100.3780982543053,None,2100.3780982543053,None,2100.8281677183304,None,2100.8281677183304,None,v,2100.8281677183304,None,t,10.408241567362438,2100.8281677183304,None,11.704897061403699,10.408241567362438,9,False,False,False,2112.5919326139615,None,2112.5919326139615,None,2112.5919326139615,None,2112.5919326139615,None,2112.5919326139615,None,2112.5919326139615,None,2113.608337735983,None,2113.608337735983,None,11.704897061403699,h,,,,,,,,,,,,,,,,,,,,,,,,,,,13_14,001,2021_Apr_12_1051,ComputerHuman,2020.1.3,59.9558616498,
Human.xlsx,h,,,,,,,,,0,2,2,4,,,,,,,,,,,,,,,,,,,,,,,,,,,,,,,,,,,,,,,,,,,,,,,,,,,,,,,,,,,,,,,,,,,,,,,,,,,,,,,,,,,,,,,,,,,,,,,,,,,h,2114.6081106266324,None,2114.6081106266324,None,q,1,4.576338413461599,2114.6081106266324,None,o,1,2.7997957298953224,2114.6081106266324,None,h,h,2119.24038626553,None,None,None,None,None,None,,,,13_14,001,2021_Apr_12_1051,ComputerHuman,2020.1.3,59.9558616498,
Computer.xlsx,c,Sychronize.jpg,Number9.jpg,9,Computer,,,,,0,3,3,9,0,0,0,6,,,,,,,,,,,,,,,,,,,,,,,,,,,,,,,,,,,,,,,,,,,,,,,,,,,,,2124.239060819435,None,2124.239060819435,None,2127.3046697595883,None,2127.3046697595883,None,2127.7548081904356,None,2127.7548081904356,None,v,2127.7548081904356,None,t,10.651168378166403,2127.7548081904356,None,11.05612359624456,10.651168378166403,9,False,False,False,2138.8686817168314,None,2138.8686817168314,None,2138.8686817168314,None,2138.8686817168314,None,2138.8686817168314,None,2138.8686817168314,None,2139.885074007816,None,2139.885074007816,None,11.05612359624456,c,,,,,,,,,,,,,,,,,,,,,,,,,,,13_14,001,2021_Apr_12_1051,ComputerHuman,2020.1.3,59.9558616498,
Computer.xlsx,c,Sychronize.jpg,Number7.jpg,7,Computer,,,,,0,3,3,9,0,1,1,2,,,,,,,,,,,,,,,,,,,,,,,,,,,,,,,,,,,,,,,,,,,,,,,,,,,,,,,,,2140.934575506,None,2140.934575506,None,2141.3681102545324,None,2141.3681102545324,None,v,2141.3681102545324,None,t,8.589371859804487,2141.3681102545324,None,9.821752841513444,8.589371859804487,7,False,False,False,2151.248898696078,None,2151.248898696078,None,2151.248898696078,None,2151.248898696078,None,2151.248898696078,None,2151.248898696078,None,2152.265369897939,None,2152.265369897939,None,9.821752841513444,c,,,,,,,,,,,,,,,,,,,,,,,,,,,13_14,001,2021_Apr_12_1051,ComputerHuman,2020.1.3,59.9558616498,
Computer.xlsx,c,Sychronize.jpg,Number7.jpg,7,Computer,,,,,0,3,3,9,0,2,2,3,,,,,,,,,,,,,,,,,,,,,,,,,,,,,,,,,,,,,,,,,,,,,,,,,,,,,,,,,2153.315119035132,None,2153.315119035132,None,2153.7649568989436,None,2153.7649568989436,None,v,2153.7649568989436,None,t,7.275474660145846,2153.7649568989436,None,10.719861899551688,7.275474660145846,7,False,False,True,2164.562282333491,None,2164.562282333491,None,2164.562282333491,None,2164.562282333491,None,2164.562282333491,None,2164.562282333491,None,2165.56203405293,None,2165.56203405293,None,10.719861899551688,c,,,,,,,,,,,,,,,,,,,,,,,,,,,13_14,001,2021_Apr_12_1051,ComputerHuman,2020.1.3,59.9558616498,
Computer.xlsx,c,Sychronize.jpg,Number10.jpg,10,Computer,,,,,0,3,3,9,0,3,3,8,,,,,,,,,,,,,,,,,,,,,,,,,,,,,,,,,,,,,,,,,,,,,,,,,,,,,,,,,2166.611479094552,None,2166.611479094552,None,2167.061572616771,None,2167.061572616771,None,None,2167.061572616771,None,t,11.125126024838664,2167.061572616771,None,13,11.125126024838664,10,False,False,False,2180.12502850896,None,2180.12502850896,None,2180.12502850896,None,2180.12502850896,None,2180.12502850896,None,2180.12502850896,None,2181.1247616233954,None,2181.1247616233954,None,,c,,,,,,,,,,,,,,,,,,,,,,,,,,,13_14,001,2021_Apr_12_1051,ComputerHuman,2020.1.3,59.9558616498,
Computer.xlsx,c,Sychronize.jpg,Number6.jpg,6,Computer,,,,,0,3,3,9,0,4,4,1,,,,,,,,,,,,,,,,,,,,,,,,,,,,,,,,,,,,,,,,,,,,,,,,,,,,,,,,,2182.174303860121,None,2182.174303860121,None,2182.6244548012296,None,2182.6244548012296,None,v,2182.6244548012296,None,t,7.365472514155044,2182.6244548012296,None,8.586143570960758,7.365472514155044,6,False,False,False,2191.2722957707942,None,2191.2722957707942,None,2191.2722957707942,None,2191.2722957707942,None,2191.2722957707942,None,2191.2722957707942,None,2192.2720141295376,None,2192.2720141295376,None,8.586143570960758,c,,,,,,,,,,,,,,,,,,,,,,,,,,,13_14,001,2021_Apr_12_1051,ComputerHuman,2020.1.3,59.9558616498,
Computer.xlsx,c,Sychronize.jpg,Number10.jpg,10,Computer,,,,,0,3,3,9,0,5,5,9,,,,,,,,,,,,,,,,,,,,,,,,,,,,,,,,,,,,,,,,,,,,,,,,,,,,,,,,,2193.3381597278026,None,2193.3381597278026,None,2193.7716049798537,None,2193.7716049798537,None,v,2193.7716049798537,None,t,10.725177477296256,2193.7716049798537,None,12.345782325952314,10.725177477296256,10,False,False,False,2206.1685122509134,None,2206.1685122509134,None,2206.1685122509134,None,2206.1685122509134,None,2206.1685122509134,None,2206.1685122509134,None,2207.1683197853627,None,2207.1683197853627,None,12.345782325952314,c,,,,,,,,,,,,,,,,,,,,,,,,,,,13_14,001,2021_Apr_12_1051,ComputerHuman,2020.1.3,59.9558616498,
Computer.xlsx,c,Sychronize.jpg,Number8.jpg,8,Computer,,,,,0,3,3,9,0,6,6,4,,,,,,,,,,,,,,,,,,,,,,,,,,,,,,,,,,,,,,,,,,,,,,,,,,,,,,,,,2208.2347643467833,None,2208.2347643467833,None,2208.6679430340464,None,2208.6679430340464,None,v,2208.6679430340464,None,t,9.151313529269828,2208.6679430340464,None,11.140313160698042,9.151313529269828,8,False,False,False,2219.8651432376746,None,2219.8651432376746,None,2219.8651432376746,None,2219.8651432376746,None,2219.8651432376746,None,2219.8651432376746,None,2220.8815066588268,None,2220.8815066588268,None,11.140313160698042,c,,,,,,,,,,,,,,,,,,,,,,,,,,,13_14,001,2021_Apr_12_1051,ComputerHuman,2020.1.3,59.9558616498,
Computer.xlsx,c,Sychronize.jpg,Number9.jpg,9,Computer,,,,,0,3,3,9,0,7,7,7,,,,,,,,,,,,,,,,,,,,,,,,,,,,,,,,,,,,,,,,,,,,,,,,,,,,,,,,,2221.931010723218,None,2221.931010723218,None,2222.3811767407947,None,2222.3811767407947,None,None,2222.3811767407947,None,t,10.377220290616606,2222.3811767407947,None,13,10.377220290616606,9,False,False,False,2235.4279753810897,None,2235.4279753810897,None,2235.4279753810897,None,2235.4279753810897,None,2235.4279753810897,None,2235.4279753810897,None,2236.4442935728375,None,2236.4442935728375,None,,c,,,,,,,,,,,,,,,,,,,,,,,,,,,13_14,001,2021_Apr_12_1051,ComputerHuman,2020.1.3,59.9558616498,
Computer.xlsx,c,Sychronize.jpg,Number8.jpg,8,Computer,,,,,0,3,3,9,0,8,8,5,,,,,,,,,,,,,,,,,,,,,,,,,,,,,,,,,,,,,,,,,,,,,,,,,,,,,,,,,2237.493828431717,None,2237.493828431717,None,2237.943954031528,None,2237.943954031528,None,v,2237.943954031528,None,t,9.001346617305899,2237.943954031528,None,11.089961285554182,9.001346617305899,8,False,False,False,2249.1078349197305,None,2249.1078349197305,None,2249.1078349197305,None,2249.1078349197305,None,2249.1078349197305,None,2249.1078349197305,None,2250.107543655197,None,2250.107543655197,None,11.089961285554182,c,,,,,,,,,,,,,,,,,,,,,,,,,,,13_14,001,2021_Apr_12_1051,ComputerHuman,2020.1.3,59.9558616498,
Computer.xlsx,c,Sychronize.jpg,Number6.jpg,6,Computer,,,,,0,3,3,9,0,9,9,0,,,,,,,,,,,,,,,,,,,,,,,,,,,,,,,,,,,,,,,,,,,,,,,,,,,,,,,,,2251.1573130012725,None,2251.1573130012725,None,2251.607195452937,None,2251.607195452937,None,v,2251.607195452937,None,t,7.509446690410641,2251.607195452937,None,9.838173681554963,7.509446690410641,6,False,False,False,2261.5046947159544,None,2261.5046947159544,None,2261.5046947159544,None,2261.5046947159544,None,2261.5046947159544,None,2261.5046947159544,None,2262.504462153414,None,2262.504462153414,None,9.838173681554963,c,,,,,,,,,,,,,,,,,,,,,,,,,,,13_14,001,2021_Apr_12_1051,ComputerHuman,2020.1.3,59.9558616498,
Computer.xlsx,c,,,,,,,,,0,3,3,9,,,,,,,,,,,,,,,,,,,,,,,,,,,,,,,,,,,,,,,,,,,,,,,,,,,,,,,,,,,,,,,,,,,,,,,,,,,,,,,,,,,,,,,,,,,,,,,,,,,c,2263.520816272064,None,2263.520816272064,None,a,1,4.62394444674328,2263.520816272064,None,l,1,16.42174527120187,2263.520816272064,None,c,c,None,None,2280.0166851593985,None,"['space', 'space']",2280.9998360835057,None,"[2.2556391604525743, 4.0715647866309155]",,,13_14,001,2021_Apr_12_1051,ComputerHuman,2020.1.3,59.9558616498,
Human.xlsx,h,Sychronize.jpg,Number9.jpg,9,Human,,,,,0,4,4,2,0,0,0,7,,,,,,,,,,,,,,,,,,,,,,,,,,,,,,,,,,,,,,,,,,,,,,,,,,,,,2285.1321455642624,None,2285.1321455642624,None,2288.1977397487235,None,2288.1977397487235,None,2288.647968317604,None,2288.647968317604,None,None,2288.647968317604,None,t,11.28515728124421,2288.647968317604,None,13,11.28515728124421,9,False,False,False,2301.6946088153713,None,2301.6946088153713,None,2301.6946088153713,None,2301.6946088153713,None,2301.6946088153713,None,2301.6946088153713,None,2302.7110825834393,None,2302.7110825834393,None,,h,,,,,,,,,,,,,,,,,,,,,,,,,,,13_14,001,2021_Apr_12_1051,ComputerHuman,2020.1.3,59.9558616498,
Human.xlsx,h,Sychronize.jpg,Number8.jpg,8,Human,,,,,0,4,4,2,0,1,1,5,,,,,,,,,,,,,,,,,,,,,,,,,,,,,,,,,,,,,,,,,,,,,,,,,,,,,,,,,2303.760554570239,None,2303.760554570239,None,2304.2107433629058,None,2304.2107433629058,None,None,2304.2107433629058,None,t,9.94123770105034,2304.2107433629058,None,13,9.94123770105034,8,False,False,False,2317.2573915592952,None,2317.2573915592952,None,2317.2573915592952,None,2317.2573915592952,None,2317.2573915592952,None,2317.2573915592952,None,2318.27386949745,None,2318.27386949745,None,,h,,,,,,,,,,,,,,,,,,,,,,,,,,,13_14,001,2021_Apr_12_1051,ComputerHuman,2020.1.3,59.9558616498,
Human.xlsx,h,Sychronize.jpg,Number9.jpg,9,Human,,,,,0,4,4,2,0,2,2,6,,,,,,,,,,,,,,,,,,,,,,,,,,,,,,,,,,,,,,,,,,,,,,,,,,,,,,,,,2319.3233507867512,None,2319.3233507867512,None,2319.7734831228563,None,2319.7734831228563,None,v,2319.7734831228563,None,t,11.781081983588138,2319.7734831228563,None,11.489723462288566,11.781081983588138,9,True,False,False,2331.620493218637,None,2331.620493218637,None,2331.620493218637,None,2331.620493218637,None,2331.620493218637,None,2331.620493218637,None,2332.6202147851395,None,2332.6202147851395,None,11.489723462288566,h,,,,,,,,,,,,,,,,,,,,,,,,,,,13_14,001,2021_Apr_12_1051,ComputerHuman,2020.1.3,59.9558616498,
Human.xlsx,h,Sychronize.jpg,Number6.jpg,6,Human,,,,,0,4,4,2,0,3,3,1,,,,,,,,,,,,,,,,,,,,,,,,,,,,,,,,,,,,,,,,,,,,,,,,,,,,,,,,,2333.6867321626937,None,2333.6867321626937,None,2334.119907000646,None,2334.119907000646,None,v,2334.119907000646,None,t,6.745524935355661,2334.119907000646,None,9.170310520712519,6.745524935355661,6,False,False,False,2343.350887795471,None,2343.350887795471,None,2343.350887795471,None,2343.350887795471,None,2343.350887795471,None,2343.350887795471,None,2344.350694046816,None,2344.350694046816,None,9.170310520712519,h,,,,,,,,,,,,,,,,,,,,,,,,,,,13_14,001,2021_Apr_12_1051,ComputerHuman,2020.1.3,59.9558616498,
Human.xlsx,h,Sychronize.jpg,Number7.jpg,7,Human,,,,,0,4,4,2,0,4,4,2,,,,,,,,,,,,,,,,,,,,,,,,,,,,,,,,,,,,,,,,,,,,,,,,,,,,,,,,,2345.400093538258,None,2345.400093538258,None,2345.850298369721,None,2345.850298369721,None,v,2345.850298369721,None,t,8.850294520409534,2345.850298369721,None,10.234917677672001,8.850294520409534,7,False,False,False,2356.147674005699,None,2356.147674005699,None,2356.147674005699,None,2356.147674005699,None,2356.147674005699,None,2356.147674005699,None,2357.147461652041,None,2357.147461652041,None,10.234917677672001,h,,,,,,,,,,,,,,,,,,,,,,,,,,,13_14,001,2021_Apr_12_1051,ComputerHuman,2020.1.3,59.9558616498,
Human.xlsx,h,Sychronize.jpg,Number7.jpg,7,Human,,,,,0,4,4,2,0,5,5,3,,,,,,,,,,,,,,,,,,,,,,,,,,,,,,,,,,,,,,,,,,,,,,,,,,,,,,,,,2358.196907014439,None,2358.196907014439,None,2358.646841431803,None,2358.646841431803,None,None,2358.646841431803,None,t,7.8324744558117345,2358.646841431803,None,13,7.8324744558117345,7,False,False,False,2371.6937741564316,None,2371.6937741564316,None,2371.6937741564316,None,2371.6937741564316,None,2371.6937741564316,None,2371.6937741564316,None,2372.710235093463,None,2372.710235093463,None,,h,,,,,,,,,,,,,,,,,,,,,,,,,,,13_14,001,2021_Apr_12_1051,ComputerHuman,2020.1.3,59.9558616498,
Human.xlsx,h,Sychronize.jpg,Number6.jpg,6,Human,,,,,0,4,4,2,0,6,6,0,,,,,,,,,,,,,,,,,,,,,,,,,,,,,,,,,,,,,,,,,,,,,,,,,,,,,,,,,2373.7430783774257,None,2373.7430783774257,None,2374.193254659832,None,2374.193254659832,None,v,2374.193254659832,None,t,7.521910117945936,2374.193254659832,None,9.085734421276811,7.521910117945936,6,False,False,False,2383.340934760273,None,2383.340934760273,None,2383.340934760273,None,2383.340934760273,None,2383.340934760273,None,2383.340934760273,None,2384.3573321836725,None,2384.3573321836725,None,9.085734421276811,h,,,,,,,,,,,,,,,,,,,,,,,,,,,13_14,001,2021_Apr_12_1051,ComputerHuman,2020.1.3,59.9558616498,
Human.xlsx,h,Sychronize.jpg,Number10.jpg,10,Human,,,,,0,4,4,2,0,7,7,9,,,,,,,,,,,,,,,,,,,,,,,,,,,,,,,,,,,,,,,,,,,,,,,,,,,,,,,,,2385.390287418431,None,2385.390287418431,None,2385.8569506207177,None,2385.8569506207177,None,None,2385.8569506207177,None,t,12.556035222479295,2385.8569506207177,None,13,12.556035222479295,10,False,False,False,2398.9036360271134,None,2398.9036360271134,None,2398.9036360271134,None,2398.9036360271134,None,2398.9036360271134,None,2398.9036360271134,None,2399.920144118205,None,2399.920144118205,None,,h,,,,,,,,,,,,,,,,,,,,,,,,,,,13_14,001,2021_Apr_12_1051,ComputerHuman,2020.1.3,59.9558616498,
Human.xlsx,h,Sychronize.jpg,Number10.jpg,10,Human,,,,,0,4,4,2,0,8,8,8,,,,,,,,,,,,,,,,,,,,,,,,,,,,,,,,,,,,,,,,,,,,,,,,,,,,,,,,,2400.952980665873,None,2400.952980665873,None,2401.419717646621,None,2401.419717646621,None,None,2401.419717646621,None,t,11.11609842816597,2401.419717646621,None,13,11.11609842816597,10,False,False,False,2414.4831578207895,None,2414.4831578207895,None,2414.4831578207895,None,2414.4831578207895,None,2414.4831578207895,None,2414.4831578207895,None,2415.482872650998,None,2415.482872650998,None,,h,,,,,,,,,,,,,,,,,,,,,,,,,,,13_14,001,2021_Apr_12_1051,ComputerHuman,2020.1.3,59.9558616498,
Human.xlsx,h,Sychronize.jpg,Number8.jpg,8,Human,,,,,0,4,4,2,0,9,9,4,,,,,,,,,,,,,,,,,,,,,,,,,,,,,,,,,,,,,,,,,,,,,,,,,,,,,,,,,2416.532607994827,None,2416.532607994827,None,2416.982499428217,None,2416.982499428217,None,v,2416.982499428217,None,t,9.852204741004243,2416.982499428217,None,9.401021222213785,9.852204741004243,8,False,False,False,2426.896710154258,None,2426.896710154258,None,2426.896710154258,None,2426.896710154258,None,2426.896710154258,None,2426.896710154258,None,2427.896424022139,None,2427.896424022139,None,9.401021222213785,h,,,,,,,,,,,,,,,,,,,,,,,,,,,13_14,001,2021_Apr_12_1051,ComputerHuman,2020.1.3,59.9558616498,
Human.xlsx,h,,,,,,,,,0,4,4,2,,,,,,,,,,,,,,,,,,,,,,,,,,,,,,,,,,,,,,,,,,,,,,,,,,,,,,,,,,,,,,,,,,,,,,,,,,,,,,,,,,,,,,,,,,,,,,,,,,,h,2428.8962443876244,None,2428.8962443876244,None,a,0,3.407161514845029,2428.8962443876244,None,o,1,5.03767641472632,2428.8962443876244,None,c,h,2433.9948537919404,None,None,None,None,None,None,,,,13_14,001,2021_Apr_12_1051,ComputerHuman,2020.1.3,59.9558616498,
Computer.xlsx,c,Sychronize.jpg,Number7.jpg,7,Computer,,,,,0,5,5,7,0,0,0,2,,,,,,,,,,,,,,,,,,,,,,,,,,,,,,,,,,,,,,,,,,,,,,,,,,,,,2439.0104191226073,None,2439.0104191226073,None,2442.0760995957903,None,2442.0760995957903,None,2442.50948839128,None,2442.50948839128,None,v,2442.50948839128,None,t,8.491403365773294,2442.50948839128,None,9.335949260948382,8.491403365773294,7,False,False,False,2451.9070843682366,None,2451.9070843682366,None,2451.9070843682366,None,2451.9070843682366,None,2451.9070843682366,None,2451.9070843682366,None,2452.923545305268,None,2452.923545305268,None,9.335949260948382,c,,,,,,,,,,,,,,,,,,,,,,,,,,,13_14,001,2021_Apr_12_1051,ComputerHuman,2020.1.3,59.9558616498,
Computer.xlsx,c,Sychronize.jpg,Number10.jpg,10,Computer,,,,,0,5,5,7,0,1,1,9,,,,,,,,,,,,,,,,,,,,,,,,,,,,,,,,,,,,,,,,,,,,,,,,,,,,,,,,,2453.9732610817655,None,2453.9732610817655,None,2454.4231570060188,None,2454.4231570060188,None,None,2454.4231570060188,None,None,,2454.4231570060188,None,13,13,10,False,False,False,2467.4699886862336,None,2467.4699886862336,None,2467.4699886862336,None,2467.4699886862336,None,2467.4699886862336,None,2467.4699886862336,None,2468.486370391613,None,2468.486370391613,None,,c,,,,,,,,,,,,,,,,,,,,,,,,,,,13_14,001,2021_Apr_12_1051,ComputerHuman,2020.1.3,59.9558616498,
Computer.xlsx,c,Sychronize.jpg,Number9.jpg,9,Computer,,,,,0,5,5,7,0,2,2,6,,,,,,,,,,,,,,,,,,,,,,,,,,,,,,,,,,,,,,,,,,,,,,,,,,,,,,,,,2469.5190359657167,None,2469.5190359657167,None,2469.98592499425,None,2469.98592499425,None,v,2469.98592499425,None,t,10.588188517440813,2469.98592499425,None,9.981154094014983,10.588188517440813,9,False,False,False,2480.649923767603,None,2480.649923767603,None,2480.649923767603,None,2480.649923767603,None,2480.649923767603,None,2480.649923767603,None,2481.649649504193,None,2481.649649504193,None,9.981154094014983,c,,,,,,,,,,,,,,,,,,,,,,,,,,,13_14,001,2021_Apr_12_1051,ComputerHuman,2020.1.3,59.9558616498,
Computer.xlsx,c,Sychronize.jpg,Number6.jpg,6,Computer,,,,,0,5,5,7,0,3,3,1,,,,,,,,,,,,,,,,,,,,,,,,,,,,,,,,,,,,,,,,,,,,,,,,,,,,,,,,,2482.7161149160484,None,2482.7161149160484,None,2483.1492849423616,None,2483.1492849423616,None,v,2483.1492849423616,None,t,5.900505895701372,2483.1492849423616,None,8.956833505429586,5.900505895701372,6,False,False,True,2492.1636672514414,None,2492.1636672514414,None,2492.1636672514414,None,2492.1636672514414,None,2492.1636672514414,None,2492.1636672514414,None,2493.1634725404588,None,2493.1634725404588,None,8.956833505429586,c,,,,,,,,,,,,,,,,,,,,,,,,,,,13_14,001,2021_Apr_12_1051,ComputerHuman,2020.1.3,59.9558616498,
Computer.xlsx,c,Sychronize.jpg,Number10.jpg,10,Computer,,,,,0,5,5,7,0,4,4,8,,,,,,,,,,,,,,,,,,,,,,,,,,,,,,,,,,,,,,,,,,,,,,,,,,,,,,,,,2494.212940998723,None,2494.212940998723,None,2494.663093222935,None,2494.663093222935,None,v,2494.663093222935,None,t,12.26905048082699,2494.663093222935,None,10.717997549913434,12.26905048082699,10,False,False,False,2506.9933455035716,None,2506.9933455035716,None,2506.9933455035716,None,2506.9933455035716,None,2506.9933455035716,None,2506.9933455035716,None,2507.9930821465427,None,2507.9930821465427,None,10.717997549913434,c,,,,,,,,,,,,,,,,,,,,,,,,,,,13_14,001,2021_Apr_12_1051,ComputerHuman,2020.1.3,59.9558616498,
Computer.xlsx,c,Sychronize.jpg,Number8.jpg,8,Computer,,,,,0,5,5,7,0,5,5,4,,,,,,,,,,,,,,,,,,,,,,,,,,,,,,,,,,,,,,,,,,,,,,,,,,,,,,,,,2509.042621496285,None,2509.042621496285,None,2509.4927053952265,None,2509.4927053952265,None,v,2509.4927053952265,None,t,9.854332447671368,2509.4927053952265,None,10.635186680357492,9.854332447671368,8,False,False,False,2520.1900616563394,None,2520.1900616563394,None,2520.1900616563394,None,2520.1900616563394,None,2520.1900616563394,None,2520.1900616563394,None,2521.206453947324,None,2521.206453947324,None,10.635186680357492,c,,,,,,,,,,,,,,,,,,,,,,,,,,,13_14,001,2021_Apr_12_1051,ComputerHuman,2020.1.3,59.9558616498,
Computer.xlsx,c,Sychronize.jpg,Number8.jpg,8,Computer,,,,,0,5,5,7,0,6,6,5,,,,,,,,,,,,,,,,,,,,,,,,,,,,,,,,,,,,,,,,,,,,,,,,,,,,,,,,,2522.2392860041296,None,2522.2392860041296,None,2522.689447851619,None,2522.689447851619,None,v,2522.689447851619,None,t,9.8042711955095,2522.689447851619,None,10.797278280486807,9.8042711955095,8,False,False,False,2533.536714568135,None,2533.536714568135,None,2533.536714568135,None,2533.536714568135,None,2533.536714568135,None,2533.536714568135,None,2534.5531023682565,None,2534.5531023682565,None,10.797278280486807,c,,,,,,,,,,,,,,,,,,,,,,,,,,,13_14,001,2021_Apr_12_1051,ComputerHuman,2020.1.3,59.9558616498,
Computer.xlsx,c,Sychronize.jpg,Number9.jpg,9,Computer,,,,,0,5,5,7,0,7,7,7,,,,,,,,,,,,,,,,,,,,,,,,,,,,,,,,,,,,,,,,,,,,,,,,,,,,,,,,,2535.60277131147,None,2535.60277131147,None,2536.0527647516024,None,2536.0527647516024,None,v,2536.0527647516024,None,t,10.756190093092755,2536.0527647516024,None,9.972927474810149,10.756190093092755,9,False,False,False,2546.883362026739,None,2546.883362026739,None,2546.883362026739,None,2546.883362026739,None,2546.883362026739,None,2546.883362026739,None,2547.8831092553155,None,2547.8831092553155,None,9.972927474810149,c,,,,,,,,,,,,,,,,,,,,,,,,,,,13_14,001,2021_Apr_12_1051,ComputerHuman,2020.1.3,59.9558616498,
Computer.xlsx,c,Sychronize.jpg,Number7.jpg,7,Computer,,,,,0,5,5,7,0,8,8,3,,,,,,,,,,,,,,,,,,,,,,,,,,,,,,,,,,,,,,,,,,,,,,,,,,,,,,,,,2548.932580279787,None,2548.932580279787,None,2549.382808527892,None,2549.382808527892,None,v,2549.382808527892,None,t,8.877312513693141,2549.382808527892,None,10.525850529328636,8.877312513693141,7,False,False,False,2559.9634514334034,None,2559.9634514334034,None,2559.9634514334034,None,2559.9634514334034,None,2559.9634514334034,None,2559.9634514334034,None,2560.9631906425816,None,2560.9631906425816,None,10.525850529328636,c,,,,,,,,,,,,,,,,,,,,,,,,,,,13_14,001,2021_Apr_12_1051,ComputerHuman,2020.1.3,59.9558616498,
Computer.xlsx,c,Sychronize.jpg,Number6.jpg,6,Computer,,,,,0,5,5,7,0,9,9,0,,,,,,,,,,,,,,,,,,,,,,,,,,,,,,,,,,,,,,,,,,,,,,,,,,,,,,,,,2562.0127190859425,None,2562.0127190859425,None,2562.462802984884,None,2562.462802984884,None,v,2562.462802984884,None,t,7.504893597023965,2562.462802984884,None,6.737041374640285,7.504893597023965,6,False,False,False,2570.0275905782983,None,2570.0275905782983,None,2570.0275905782983,None,2570.0275905782983,None,2570.0275905782983,None,2570.0275905782983,None,2571.0440162299783,None,2571.0440162299783,None,6.737041374640285,c,,,,,,,,,,,,,,,,,,,,,,,,,,,13_14,001,2021_Apr_12_1051,ComputerHuman,2020.1.3,59.9558616498,
Computer.xlsx,c,,,,,,,,,0,5,5,7,,,,,,,,,,,,,,,,,,,,,,,,,,,,,,,,,,,,,,,,,,,,,,,,,,,,,,,,,,,,,,,,,,,,,,,,,,,,,,,,,,,,,,,,,,,,,,,,,,,c,2572.0438077256313,None,2572.0438077256313,None,q,0,2.0997860103848325,2572.0438077256313,None,l,1,3.1707974585565353,2572.0438077256313,None,h,c,2575.2763317734,None,None,None,None,None,None,,,,13_14,001,2021_Apr_12_1051,ComputerHuman,2020.1.3,59.9558616498,
Human.xlsx,h,Sychronize.jpg,Number8.jpg,8,Human,,,,,0,6,6,6,0,0,0,4,,,,,,,,,,,,,,,,,,,,,,,,,,,,,,,,,,,,,,,,,,,,,,,,,,,,,2580.2916940529108,None,2580.2916940529108,None,2583.3740593647162,None,2583.3740593647162,None,2583.8074850494363,None,2583.8074850494363,None,v,2583.8074850494363,None,t,9.837265564929567,2583.8074850494363,None,9.498366127859299,9.837265564929567,8,False,False,False,2593.704838359411,None,2593.704838359411,None,2593.704838359411,None,2593.704838359411,None,2593.704838359411,None,2593.704838359411,None,2594.7047010673177,None,2594.7047010673177,None,9.498366127859299,h,,,,,,,,,,,,,,,,,,,,,,,,,,,13_14,001,2021_Apr_12_1051,ComputerHuman,2020.1.3,59.9558616498,
Human.xlsx,h,Sychronize.jpg,Number8.jpg,8,Human,,,,,0,6,6,6,0,1,1,5,,,,,,,,,,,,,,,,,,,,,,,,,,,,,,,,,,,,,,,,,,,,,,,,,,,,,,,,,2595.7542834010333,None,2595.7542834010333,None,2596.2043714700617,None,2596.2043714700617,None,v,2596.2043714700617,None,t,9.288360228790225,2596.2043714700617,None,10.104922274391356,9.288360228790225,8,False,False,False,2606.368478826063,None,2606.368478826063,None,2606.368478826063,None,2606.368478826063,None,2606.368478826063,None,2606.368478826063,None,2607.368256849127,None,2607.368256849127,None,10.104922274391356,h,,,,,,,,,,,,,,,,,,,,,,,,,,,13_14,001,2021_Apr_12_1051,ComputerHuman,2020.1.3,59.9558616498,
Human.xlsx,h,Sychronize.jpg,Number7.jpg,7,Human,,,,,0,6,6,6,0,2,2,3,,,,,,,,,,,,,,,,,,,,,,,,,,,,,,,,,,,,,,,,,,,,,,,,,,,,,,,,,2608.4346606720064,None,2608.4346606720064,None,2608.867868549878,None,2608.867868549878,None,v,2608.867868549878,None,t,8.995359334787736,2608.867868549878,None,11.243881760713066,8.995359334787736,7,False,False,False,2620.16499398064,None,2620.16499398064,None,2620.16499398064,None,2620.16499398064,None,2620.16499398064,None,2620.16499398064,None,2621.181474805778,None,2621.181474805778,None,11.243881760713066,h,,,,,,,,,,,,,,,,,,,,,,,,,,,13_14,001,2021_Apr_12_1051,ComputerHuman,2020.1.3,59.9558616498,
Human.xlsx,h,Sychronize.jpg,Number6.jpg,6,Human,,,,,0,6,6,6,0,3,3,0,,,,,,,,,,,,,,,,,,,,,,,,,,,,,,,,,,,,,,,,,,,,,,,,,,,,,,,,,2622.231213357366,None,2622.231213357366,None,2622.664494372147,None,2622.664494372147,None,v,2622.664494372147,None,t,7.937807323378365,2622.664494372147,None,7.126454678693335,7.937807323378365,6,False,False,False,2630.6790582403964,None,2630.6790582403964,None,2630.6790582403964,None,2630.6790582403964,None,2630.6790582403964,None,2630.6790582403964,None,2631.6789045887317,None,2631.6789045887317,None,7.126454678693335,h,,,,,,,,,,,,,,,,,,,,,,,,,,,13_14,001,2021_Apr_12_1051,ComputerHuman,2020.1.3,59.9558616498,
Human.xlsx,h,Sychronize.jpg,Number10.jpg,10,Human,,,,,0,6,6,6,0,4,4,9,,,,,,,,,,,,,,,,,,,,,,,,,,,,,,,,,,,,,,,,,,,,,,,,,,,,,,,,,2632.728573211169,None,2632.728573211169,None,2633.1785265543117,None,2633.1785265543117,None,None,2633.1785265543117,None,t,12.202064449656064,2633.1785265543117,None,13,12.202064449656064,10,False,False,False,2646.225187260962,None,2646.225187260962,None,2646.225187260962,None,2646.225187260962,None,2646.225187260962,None,2646.225187260962,None,2647.241640820147,None,2647.241640820147,None,,h,,,,,,,,,,,,,,,,,,,,,,,,,,,13_14,001,2021_Apr_12_1051,ComputerHuman,2020.1.3,59.9558616498,
Human.xlsx,h,Sychronize.jpg,Number6.jpg,6,Human,,,,,0,6,6,6,0,5,5,1,,,,,,,,,,,,,,,,,,,,,,,,,,,,,,,,,,,,,,,,,,,,,,,,,,,,,,,,,2648.2913572381963,None,2648.2913572381963,None,2648.741346829018,None,2648.741346829018,None,v,2648.741346829018,None,t,7.578471573319348,2648.741346829018,None,8.111397457080784,7.578471573319348,6,False,False,False,2656.9058878740607,None,2656.9058878740607,None,2656.9058878740607,None,2656.9058878740607,None,2656.9058878740607,None,2656.9058878740607,None,2657.905629328671,None,2657.905629328671,None,8.111397457080784,h,,,,,,,,,,,,,,,,,,,,,,,,,,,13_14,001,2021_Apr_12_1051,ComputerHuman,2020.1.3,59.9558616498,
Human.xlsx,h,Sychronize.jpg,Number10.jpg,10,Human,,,,,0,6,6,6,0,6,6,8,,,,,,,,,,,,,,,,,,,,,,,,,,,,,,,,,,,,,,,,,,,,,,,,,,,,,,,,,2658.9550746910686,None,2658.9550746910686,None,2659.4052554643376,None,2659.4052554643376,None,v,2659.4052554643376,None,t,12.68501280377086,2659.4052554643376,None,10.834418678653037,12.68501280377086,10,False,False,False,2672.15201217922,None,2672.15201217922,None,2672.15201217922,None,2672.15201217922,None,2672.15201217922,None,2672.15201217922,None,2673.151786032198,None,2673.151786032198,None,10.834418678653037,h,,,,,,,,,,,,,,,,,,,,,,,,,,,13_14,001,2021_Apr_12_1051,ComputerHuman,2020.1.3,59.9558616498,
Human.xlsx,h,Sychronize.jpg,Number7.jpg,7,Human,,,,,0,6,6,6,0,7,7,2,,,,,,,,,,,,,,,,,,,,,,,,,,,,,,,,,,,,,,,,,,,,,,,,,,,,,,,,,2674.2182219326687,None,2674.2182219326687,None,2674.6514086393295,None,2674.6514086393295,None,v,2674.6514086393295,None,t,8.306358324023222,2674.6514086393295,None,8.035293370428008,8.306358324023222,7,True,False,False,2683.0326129668533,None,2683.0326129668533,None,2683.0326129668533,None,2683.0326129668533,None,2683.0326129668533,None,2683.0326129668533,None,2684.0324509750144,None,2684.0324509750144,None,8.035293370428008,h,,,,,,,,,,,,,,,,,,,,,,,,,,,13_14,001,2021_Apr_12_1051,ComputerHuman,2020.1.3,59.9558616498,
Human.xlsx,h,Sychronize.jpg,Number9.jpg,9,Human,,,,,0,6,6,6,0,8,8,6,,,,,,,,,,,,,,,,,,,,,,,,,,,,,,,,,,,,,,,,,,,,,,,,,,,,,,,,,2685.0819762106166,None,2685.0819762106166,None,2685.532036692916,None,2685.532036692916,None,v,2685.532036692916,None,t,12.21707034712108,2685.532036692916,None,12.941317574253844,12.21707034712108,9,False,False,False,2698.545432936822,None,2698.545432936822,None,2698.545432936822,None,2698.545432936822,None,2698.545432936822,None,2698.545432936822,None,2699.5452359804085,None,2699.5452359804085,None,12.941317574253844,h,,,,,,,,,,,,,,,,,,,,,,,,,,,13_14,001,2021_Apr_12_1051,ComputerHuman,2020.1.3,59.9558616498,
Human.xlsx,h,Sychronize.jpg,Number9.jpg,9,Human,,,,,0,6,6,6,0,9,9,7,,,,,,,,,,,,,,,,,,,,,,,,,,,,,,,,,,,,,,,,,,,,,,,,,,,,,,,,,2700.5609928142985,None,2700.5609928142985,None,2701.0448775133195,None,2701.0448775133195,None,v,2701.0448775133195,None,t,11.642119931058915,2701.0448775133195,None,10.927365425680819,11.642119931058915,9,False,False,False,2712.741928716534,None,2712.741928716534,None,2712.741928716534,None,2712.741928716534,None,2712.741928716534,None,2712.741928716534,None,2713.758299836308,None,2713.758299836308,None,10.927365425680819,h,,,,,,,,,,,,,,,,,,,,,,,,,,,13_14,001,2021_Apr_12_1051,ComputerHuman,2020.1.3,59.9558616498,
Human.xlsx,h,,,,,,,,,0,6,6,6,,,,,,,,,,,,,,,,,,,,,,,,,,,,,,,,,,,,,,,,,,,,,,,,,,,,,,,,,,,,,,,,,,,,,,,,,,,,,,,,,,,,,,,,,,,,,,,,,,,h,2714.758035837727,None,2714.758035837727,None,q,1,5.43759096002168,2714.758035837727,None,l,0,2.788897368065591,2714.758035837727,None,h,c,2720.2567214584014,None,None,None,None,None,None,,,,13_14,001,2021_Apr_12_1051,ComputerHuman,2020.1.3,59.9558616498,
Computer.xlsx,c,Sychronize.jpg,Number10.jpg,10,Computer,,,,,0,7,7,1,0,0,0,9,,,,,,,,,,,,,,,,,,,,,,,,,,,,,,,,,,,,,,,,,,,,,,,,,,,,,2725.255487754219,None,2725.255487754219,None,2728.337824196192,None,2728.337824196192,None,2728.7713198100623,None,2728.7713198100623,None,None,2728.7713198100623,None,t,12.4580442741335,2728.7713198100623,None,13,12.4580442741335,10,False,False,False,2741.817996234732,None,2741.817996234732,None,2741.817996234732,None,2741.817996234732,None,2741.817996234732,None,2741.817996234732,None,2742.8177354439104,None,2742.8177354439104,None,,c,,,,,,,,,,,,,,,,,,,,,,,,,,,13_14,001,2021_Apr_12_1051,ComputerHuman,2020.1.3,59.9558616498,
Computer.xlsx,c,Sychronize.jpg,Number10.jpg,10,Computer,,,,,0,7,7,1,0,1,1,8,,,,,,,,,,,,,,,,,,,,,,,,,,,,,,,,,,,,,,,,,,,,,,,,,,,,,,,,,2743.867209996917,None,2743.867209996917,None,2744.317362541906,None,2744.317362541906,None,v,2744.317362541906,None,t,11.962170895936652,2744.317362541906,None,12.039260726987777,11.962170895936652,10,False,False,False,2756.4142804948033,None,2756.4142804948033,None,2756.4142804948033,None,2756.4142804948033,None,2756.4142804948033,None,2756.4142804948033,None,2757.4140986148577,None,2757.4140986148577,None,12.039260726987777,c,,,,,,,,,,,,,,,,,,,,,,,,,,,13_14,001,2021_Apr_12_1051,ComputerHuman,2020.1.3,59.9558616498,
Computer.xlsx,c,Sychronize.jpg,Number9.jpg,9,Computer,,,,,0,7,7,1,0,2,2,7,,,,,,,,,,,,,,,,,,,,,,,,,,,,,,,,,,,,,,,,,,,,,,,,,,,,,,,,,2758.4804722848003,None,2758.4804722848003,None,2758.913650972064,None,2758.913650972064,None,v,2758.913650972064,None,None,,2758.913650972064,None,12.877747165062829,13,9,False,False,False,2771.9604990118496,None,2771.9604990118496,None,2771.9604990118496,None,2771.9604990118496,None,2771.9604990118496,None,2771.9604990118496,None,2772.9602619584457,None,2772.9602619584457,None,12.877747165062829,c,,,,,,,,,,,,,,,,,,,,,,,,,,,13_14,001,2021_Apr_12_1051,ComputerHuman,2020.1.3,59.9558616498,
Computer.xlsx,c,Sychronize.jpg,Number6.jpg,6,Computer,,,,,0,7,7,1,0,3,3,1,,,,,,,,,,,,,,,,,,,,,,,,,,,,,,,,,,,,,,,,,,,,,,,,,,,,,,,,,2774.0264916000015,None,2774.0264916000015,None,2774.459835166087,None,2774.459835166087,None,v,2774.459835166087,None,t,7.930424344839594,2774.459835166087,None,9.362571737524377,7.930424344839594,6,False,False,False,2783.874122397184,None,2783.874122397184,None,2783.874122397184,None,2783.874122397184,None,2783.874122397184,None,2783.874122397184,None,2784.8905178959285,None,2784.8905178959285,None,9.362571737524377,c,,,,,,,,,,,,,,,,,,,,,,,,,,,13_14,001,2021_Apr_12_1051,ComputerHuman,2020.1.3,59.9558616498,
Computer.xlsx,c,Sychronize.jpg,Number7.jpg,7,Computer,,,,,0,7,7,1,0,4,4,2,,,,,,,,,,,,,,,,,,,,,,,,,,,,,,,,,,,,,,,,,,,,,,,,,,,,,,,,,2785.9569797792483,None,2785.9569797792483,None,2786.390148522458,None,2786.390148522458,None,v,2786.390148522458,None,t,7.450273798285707,2786.390148522458,None,7.90740995579381,7.450273798285707,7,False,False,False,2794.354895890572,None,2794.354895890572,None,2794.354895890572,None,2794.354895890572,None,2794.354895890572,None,2794.354895890572,None,2795.354535659216,None,2795.354535659216,None,7.90740995579381,c,,,,,,,,,,,,,,,,,,,,,,,,,,,13_14,001,2021_Apr_12_1051,ComputerHuman,2020.1.3,59.9558616498,
Computer.xlsx,c,Sychronize.jpg,Number6.jpg,6,Computer,,,,,0,7,7,1,0,5,5,0,,,,,,,,,,,,,,,,,,,,,,,,,,,,,,,,,,,,,,,,,,,,,,,,,,,,,,,,,2796.404151995178,None,2796.404151995178,None,2796.87085721911,None,2796.87085721911,None,v,2796.87085721911,None,t,6.845468767493003,2796.87085721911,None,6.23393225405016,6.845468767493003,6,False,True,False,2803.7691953111544,None,2803.7691953111544,None,2803.7691953111544,None,2803.7691953111544,None,2803.7691953111544,None,2803.7691953111544,None,2804.785585356708,None,2804.785585356708,None,6.23393225405016,c,,,,,,,,,,,,,,,,,,,,,,,,,,,13_14,001,2021_Apr_12_1051,ComputerHuman,2020.1.3,59.9558616498,
Computer.xlsx,c,Sychronize.jpg,Number8.jpg,8,Computer,,,,,0,7,7,1,0,6,6,4,,,,,,,,,,,,,,,,,,,,,,,,,,,,,,,,,,,,,,,,,,,,,,,,,,,,,,,,,2805.835051890316,None,2805.835051890316,None,2806.268531786167,None,2806.268531786167,None,v,2806.268531786167,None,t,9.102311799966628,2806.268531786167,None,9.319335313804004,9.102311799966628,8,False,False,False,2815.6661646523544,None,2815.6661646523544,None,2815.6661646523544,None,2815.6661646523544,None,2815.6661646523544,None,2815.6661646523544,None,2816.6658884642884,None,2816.6658884642884,None,9.319335313804004,c,,,,,,,,,,,,,,,,,,,,,,,,,,,13_14,001,2021_Apr_12_1051,ComputerHuman,2020.1.3,59.9558616498,
Computer.xlsx,c,Sychronize.jpg,Number9.jpg,9,Computer,,,,,0,7,7,1,0,7,7,6,,,,,,,,,,,,,,,,,,,,,,,,,,,,,,,,,,,,,,,,,,,,,,,,,,,,,,,,,2817.715415624546,None,2817.715415624546,None,2818.1655752266042,None,2818.1655752266042,None,v,2818.1655752266042,None,t,10.624229937310702,2818.1655752266042,None,11.049078715524047,10.624229937310702,9,False,False,False,2829.2794404128263,None,2829.2794404128263,None,2829.2794404128263,None,2829.2794404128263,None,2829.2794404128263,None,2829.2794404128263,None,2830.29584457252,None,2830.29584457252,None,11.049078715524047,c,,,,,,,,,,,,,,,,,,,,,,,,,,,13_14,001,2021_Apr_12_1051,ComputerHuman,2020.1.3,59.9558616498,
Computer.xlsx,c,Sychronize.jpg,Number8.jpg,8,Computer,,,,,0,7,7,1,0,8,8,5,,,,,,,,,,,,,,,,,,,,,,,,,,,,,,,,,,,,,,,,,,,,,,,,,,,,,,,,,2831.3454743810707,None,2831.3454743810707,None,2831.795508559745,None,2831.795508559745,None,v,2831.795508559745,None,t,8.765294034434191,2831.795508559745,None,12.086019591069089,8.765294034434191,8,False,False,False,2843.942482311614,None,2843.942482311614,None,2843.942482311614,None,2843.942482311614,None,2843.942482311614,None,2843.942482311614,None,2844.9422086897557,None,2844.9422086897557,None,12.086019591069089,c,,,,,,,,,,,,,,,,,,,,,,,,,,,13_14,001,2021_Apr_12_1051,ComputerHuman,2020.1.3,59.9558616498,
Computer.xlsx,c,Sychronize.jpg,Number7.jpg,7,Computer,,,,,0,7,7,1,0,9,9,3,,,,,,,,,,,,,,,,,,,,,,,,,,,,,,,,,,,,,,,,,,,,,,,,,,,,,,,,,2846.0086080217716,None,2846.0086080217716,None,2846.4418903196565,None,2846.4418903196565,None,v,2846.4418903196565,None,t,9.106276269542832,2846.4418903196565,None,7.758814681656986,9.106276269542832,7,False,False,False,2855.6062283135434,None,2855.6062283135434,None,2855.6062283135434,None,2855.6062283135434,None,2855.6062283135434,None,2855.6062283135434,None,2856.6059149154707,None,2856.6059149154707,None,7.758814681656986,c,,,,,,,,,,,,,,,,,,,,,,,,,,,13_14,001,2021_Apr_12_1051,ComputerHuman,2020.1.3,59.9558616498,
Computer.xlsx,c,,,,,,,,,0,7,7,1,,,,,,,,,,,,,,,,,,,,,,,,,,,,,,,,,,,,,,,,,,,,,,,,,,,,,,,,,,,,,,,,,,,,,,,,,,,,,,,,,,,,,,,,,,,,,,,,,,,c,2857.605770887083,None,2857.605770887083,None,q,0,5.598229445240577,2857.605770887083,None,o,0,3.337781853771048,2857.605770887083,None,h,h,None,None,2863.2542944678025,None,"['space', 'space']",2864.237376745863,None,"[1.2583968710232512, 4.918299015122102]",,,13_14,001,2021_Apr_12_1051,ComputerHuman,2020.1.3,59.9558616498,
Computer.xlsx,c,Sychronize.jpg,Number7.jpg,7,Computer,,,,,0,8,8,3,0,0,0,2,,,,,,,,,,,,,,,,,,,,,,,,,,,,,,,,,,,,,,,,,,,,,,,,,,,,,2869.2194665432326,None,2869.2194665432326,None,2872.285380220508,None,2872.285380220508,None,2872.73519370535,None,2872.73519370535,None,v,2872.73519370535,None,t,9.234357923694006,2872.73519370535,None,8.927279136959442,9.234357923694006,7,False,False,False,2882.049586824578,None,2882.049586824578,None,2882.049586824578,None,2882.049586824578,None,2882.049586824578,None,2882.049586824578,None,2883.049305824874,None,2883.049305824874,None,8.927279136959442,c,,,,,,,,,,,,,,,,,,,,,,,,,,,13_14,001,2021_Apr_12_1051,ComputerHuman,2020.1.3,59.9558616498,
Computer.xlsx,c,Sychronize.jpg,Number10.jpg,10,Computer,,,,,0,8,8,3,0,1,1,8,,,,,,,,,,,,,,,,,,,,,,,,,,,,,,,,,,,,,,,,,,,,,,,,,,,,,,,,,2884.0988130970245,None,2884.0988130970245,None,2884.5489573018385,None,2884.5489573018385,None,v,2884.5489573018385,None,t,11.319558573843096,2884.5489573018385,None,8.868555651895804,11.319558573843096,10,False,False,False,2895.9294248070773,None,2895.9294248070773,None,2895.9294248070773,None,2895.9294248070773,None,2895.9294248070773,None,2895.9294248070773,None,2896.9459389929116,None,2896.9459389929116,None,8.868555651895804,c,,,,,,,,,,,,,,,,,,,,,,,,,,,13_14,001,2021_Apr_12_1051,ComputerHuman,2020.1.3,59.9558616498,
Computer.xlsx,c,Sychronize.jpg,Number7.jpg,7,Computer,,,,,0,8,8,3,0,2,2,3,,,,,,,,,,,,,,,,,,,,,,,,,,,,,,,,,,,,,,,,,,,,,,,,,,,,,,,,,2897.9955825948273,None,2897.9955825948273,None,2898.4454605556284,None,2898.4454605556284,None,v,2898.4454605556284,None,t,8.222394265039839,2898.4454605556284,None,6.92311065389822,8.222394265039839,7,False,True,False,2906.7267220133435,None,2906.7267220133435,None,2906.7267220133435,None,2906.7267220133435,None,2906.7267220133435,None,2906.7267220133435,None,2907.7265051688228,None,2907.7265051688228,None,6.92311065389822,c,,,,,,,,,,,,,,,,,,,,,,,,,,,13_14,001,2021_Apr_12_1051,ComputerHuman,2020.1.3,59.9558616498,
Computer.xlsx,c,Sychronize.jpg,Number8.jpg,8,Computer,,,,,0,8,8,3,0,3,3,5,,,,,,,,,,,,,,,,,,,,,,,,,,,,,,,,,,,,,,,,,,,,,,,,,,,,,,,,,2908.77592936001,None,2908.77592936001,None,2909.2261386823357,None,2909.2261386823357,None,v,2909.2261386823357,None,t,8.876357563783131,2909.2261386823357,None,7.24156351315014,8.876357563783131,8,False,False,False,2918.1572520538484,None,2918.1572520538484,None,2918.1572520538484,None,2918.1572520538484,None,2918.1572520538484,None,2918.1572520538484,None,2919.1736151542245,None,2919.1736151542245,None,7.24156351315014,c,,,,,,,,,,,,,,,,,,,,,,,,,,,13_14,001,2021_Apr_12_1051,ComputerHuman,2020.1.3,59.9558616498,
Computer.xlsx,c,Sychronize.jpg,Number9.jpg,9,Computer,,,,,0,8,8,3,0,4,4,6,,,,,,,,,,,,,,,,,,,,,,,,,,,,,,,,,,,,,,,,,,,,,,,,,,,,,,,,,2920.223335421585,None,2920.223335421585,None,2920.67331057749,None,2920.67331057749,None,v,2920.67331057749,None,t,11.360139293735301,2920.67331057749,None,8.74929180696563,11.360139293735301,9,False,True,False,2932.103685683225,None,2932.103685683225,None,2932.103685683225,None,2932.103685683225,None,2932.103685683225,None,2932.103685683225,None,2933.103461781634,None,2933.103461781634,None,8.74929180696563,c,,,,,,,,,,,,,,,,,,,,,,,,,,,13_14,001,2021_Apr_12_1051,ComputerHuman,2020.1.3,59.9558616498,
Computer.xlsx,c,Sychronize.jpg,Number10.jpg,10,Computer,,,,,0,8,8,3,0,5,5,9,,,,,,,,,,,,,,,,,,,,,,,,,,,,,,,,,,,,,,,,,,,,,,,,,,,,,,,,,2934.1530896655304,None,2934.1530896655304,None,2934.603139883,None,2934.603139883,None,v,2934.603139883,None,t,10.725207630232035,2934.603139883,None,10.222188647675466,10.725207630232035,10,False,True,False,2945.383767968664,None,2945.383767968664,None,2945.383767968664,None,2945.383767968664,None,2945.383767968664,None,2945.383767968664,None,2946.3835241789657,None,2946.3835241789657,None,10.222188647675466,c,,,,,,,,,,,,,,,,,,,,,,,,,,,13_14,001,2021_Apr_12_1051,ComputerHuman,2020.1.3,59.9558616498,
Computer.xlsx,c,Sychronize.jpg,Number9.jpg,9,Computer,,,,,0,8,8,3,0,6,6,7,,,,,,,,,,,,,,,,,,,,,,,,,,,,,,,,,,,,,,,,,,,,,,,,,,,,,,,,,2947.449688061458,None,2947.449688061458,None,2947.899818152132,None,2947.899818152132,None,v,2947.899818152132,None,t,10.187249093086393,2947.899818152132,None,8.344545734787062,10.187249093086393,9,False,False,False,2958.1471796900087,None,2958.1471796900087,None,2958.1471796900087,None,2958.1471796900087,None,2958.1471796900087,None,2958.1471796900087,None,2959.147020905929,None,2959.147020905929,None,8.344545734787062,c,,,,,,,,,,,,,,,,,,,,,,,,,,,13_14,001,2021_Apr_12_1051,ComputerHuman,2020.1.3,59.9558616498,
Computer.xlsx,c,Sychronize.jpg,Number6.jpg,6,Computer,,,,,0,8,8,3,0,7,7,1,,,,,,,,,,,,,,,,,,,,,,,,,,,,,,,,,,,,,,,,,,,,,,,,,,,,,,,,,2960.1965564063603,None,2960.1965564063603,None,2960.6466348521108,None,2960.6466348521108,None,v,2960.6466348521108,None,t,7.212445720705546,2960.6466348521108,None,5.964942079096545,7.212445720705546,6,False,True,False,2967.911438259778,None,2967.911438259778,None,2967.911438259778,None,2967.911438259778,None,2967.911438259778,None,2967.911438259778,None,2968.9278748178394,None,2968.9278748178394,None,5.964942079096545,c,,,,,,,,,,,,,,,,,,,,,,,,,,,13_14,001,2021_Apr_12_1051,ComputerHuman,2020.1.3,59.9558616498,
Computer.xlsx,c,Sychronize.jpg,Number6.jpg,6,Computer,,,,,0,8,8,3,0,8,8,0,,,,,,,,,,,,,,,,,,,,,,,,,,,,,,,,,,,,,,,,,,,,,,,,,,,,,,,,,2969.9774237908596,None,2969.9774237908596,None,2970.427560938603,None,2970.427560938603,None,v,2970.427560938603,None,t,6.454963542212681,2970.427560938603,None,6.179209165466091,6.454963542212681,6,False,True,False,2976.942520163172,None,2976.942520163172,None,2976.942520163172,None,2976.942520163172,None,2976.942520163172,None,2976.942520163172,None,2977.942287600631,None,2977.942287600631,None,6.179209165466091,c,,,,,,,,,,,,,,,,,,,,,,,,,,,13_14,001,2021_Apr_12_1051,ComputerHuman,2020.1.3,59.9558616498,
Computer.xlsx,c,Sychronize.jpg,Number8.jpg,8,Computer,,,,,0,8,8,3,0,9,9,4,,,,,,,,,,,,,,,,,,,,,,,,,,,,,,,,,,,,,,,,,,,,,,,,,,,,,,,,,2979.0253483546285,None,2979.0253483546285,None,2979.4419820615694,None,2979.4419820615694,None,v,2979.4419820615694,None,t,9.307299159791,2979.4419820615694,None,7.931918839843092,9.307299159791,8,False,True,False,2988.8061756421375,None,2988.8061756421375,None,2988.8061756421375,None,2988.8061756421375,None,2988.8061756421375,None,2988.8061756421375,None,2989.805902341055,None,2989.805902341055,None,7.931918839843092,c,,,,,,,,,,,,,,,,,,,,,,,,,,,13_14,001,2021_Apr_12_1051,ComputerHuman,2020.1.3,59.9558616498,
Computer.xlsx,c,,,,,,,,,0,8,8,3,,,,,,,,,,,,,,,,,,,,,,,,,,,,,,,,,,,,,,,,,,,,,,,,,,,,,,,,,,,,,,,,,,,,,,,,,,,,,,,,,,,,,,,,,,,,,,,,,,,c,2990.805765690514,None,2990.805765690514,None,a,1,3.699458947257881,2990.805765690514,None,l,1,3.3747439005264823,2990.805765690514,None,c,c,2994.5713622166386,None,None,None,None,None,None,,,,13_14,001,2021_Apr_12_1051,ComputerHuman,2020.1.3,59.9558616498,
Computer.xlsx,c,Sychronize.jpg,Number7.jpg,7,Computer,,,,,0,9,9,5,0,0,0,2,,,,,,,,,,,,,,,,,,,,,,,,,,,,,,,,,,,,,,,,,,,,,,,,,,,,,2999.5868528065166,None,2999.5868528065166,None,3002.6528563010497,None,3002.6528563010497,None,3003.1026492562332,None,3003.1026492562332,None,v,3003.1026492562332,None,t,9.336330984291635,3003.1026492562332,None,6.66140112996527,9.336330984291635,7,False,False,False,3012.500243950086,None,3012.500243950086,None,3012.500243950086,None,3012.500243950086,None,3012.500243950086,None,3012.500243950086,None,3013.5167106610843,None,3013.5167106610843,None,6.66140112996527,c,,,,,,,,,,,,,,,,,,,,,,,,,,,13_14,001,2021_Apr_12_1051,ComputerHuman,2020.1.3,59.9558616498,
Computer.xlsx,c,Sychronize.jpg,Number9.jpg,9,Computer,,,,,0,9,9,5,0,1,1,7,,,,,,,,,,,,,,,,,,,,,,,,,,,,,,,,,,,,,,,,,,,,,,,,,,,,,,,,,3014.5664681384505,None,3014.5664681384505,None,3015.016377214517,None,3015.016377214517,None,v,3015.016377214517,None,t,10.693246480045673,3015.016377214517,None,7.755003222194318,10.693246480045673,9,False,False,False,3025.763688550962,None,3025.763688550962,None,3025.763688550962,None,3025.763688550962,None,3025.763688550962,None,3025.763688550962,None,3026.763388304703,None,3026.763388304703,None,7.755003222194318,c,,,,,,,,,,,,,,,,,,,,,,,,,,,13_14,001,2021_Apr_12_1051,ComputerHuman,2020.1.3,59.9558616498,
Computer.xlsx,c,Sychronize.jpg,Number10.jpg,10,Computer,,,,,0,9,9,5,0,2,2,8,,,,,,,,,,,,,,,,,,,,,,,,,,,,,,,,,,,,,,,,,,,,,,,,,,,,,,,,,3027.812951071087,None,3027.812951071087,None,3028.263042989426,None,3028.263042989426,None,v,3028.263042989426,None,t,10.602214444475976,3028.263042989426,None,9.126729262879962,10.602214444475976,10,False,False,False,3038.9269923632874,None,3038.9269923632874,None,3038.9269923632874,None,3038.9269923632874,None,3038.9269923632874,None,3038.9269923632874,None,3039.9267944445464,None,3039.9267944445464,None,9.126729262879962,c,,,,,,,,,,,,,,,,,,,,,,,,,,,13_14,001,2021_Apr_12_1051,ComputerHuman,2020.1.3,59.9558616498,
Computer.xlsx,c,Sychronize.jpg,Number8.jpg,8,Computer,,,,,0,9,9,5,0,3,3,4,,,,,,,,,,,,,,,,,,,,,,,,,,,,,,,,,,,,,,,,,,,,,,,,,,,,,,,,,3040.976263544362,None,3040.976263544362,None,3041.4264324489222,None,3041.4264324489222,None,v,3041.4264324489222,None,t,8.101397267823813,3041.4264324489222,None,8.278375757552567,8.101397267823813,8,False,True,True,3049.757614017394,None,3049.757614017394,None,3049.757614017394,None,3049.757614017394,None,3049.757614017394,None,3049.757614017394,None,3050.774087785462,None,3050.774087785462,None,8.278375757552567,c,,,,,,,,,,,,,,,,,,,,,,,,,,,13_14,001,2021_Apr_12_1051,ComputerHuman,2020.1.3,59.9558616498,
Computer.xlsx,c,Sychronize.jpg,Number9.jpg,9,Computer,,,,,0,9,9,5,0,4,4,6,,,,,,,,,,,,,,,,,,,,,,,,,,,,,,,,,,,,,,,,,,,,,,,,,,,,,,,,,3051.823809015151,None,3051.823809015151,None,3052.2736844097453,None,3052.2736844097453,None,v,3052.2736844097453,None,t,9.425302034585002,3052.2736844097453,None,7.602296883886083,9.425302034585002,9,False,False,False,3061.754677313861,None,3061.754677313861,None,3061.754677313861,None,3061.754677313861,None,3061.754677313861,None,3061.754677313861,None,3062.7543587833743,None,3062.7543587833743,None,7.602296883886083,c,,,,,,,,,,,,,,,,,,,,,,,,,,,13_14,001,2021_Apr_12_1051,ComputerHuman,2020.1.3,59.9558616498,
Computer.xlsx,c,Sychronize.jpg,Number7.jpg,7,Computer,,,,,0,9,9,5,0,5,5,3,,,,,,,,,,,,,,,,,,,,,,,,,,,,,,,,,,,,,,,,,,,,,,,,,,,,,,,,,3063.8208280445406,None,3063.8208280445406,None,3064.270702476807,None,3064.270702476807,None,v,3064.270702476807,None,t,8.271388616496552,3064.270702476807,None,5.700461051227649,8.271388616496552,7,False,False,False,3072.601952049774,None,3072.601952049774,None,3072.601952049774,None,3072.601952049774,None,3072.601952049774,None,3072.601952049774,None,3073.6016604644647,None,3073.6016604644647,None,5.700461051227649,c,,,,,,,,,,,,,,,,,,,,,,,,,,,13_14,001,2021_Apr_12_1051,ComputerHuman,2020.1.3,59.9558616498,
Computer.xlsx,c,Sychronize.jpg,Number6.jpg,6,Computer,,,,,0,9,9,5,0,6,6,1,,,,,,,,,,,,,,,,,,,,,,,,,,,,,,,,,,,,,,,,,,,,,,,,,,,,,,,,,3074.6677348504754,None,3074.6677348504754,None,3075.1013283010006,None,3075.1013283010006,None,v,3075.1013283010006,None,t,7.376486355315137,3075.1013283010006,None,6.928817578263079,7.376486355315137,6,False,False,False,3082.5494622031338,None,3082.5494622031338,None,3082.5494622031338,None,3082.5494622031338,None,3082.5494622031338,None,3082.5494622031338,None,3083.5492042992955,None,3083.5492042992955,None,6.928817578263079,c,,,,,,,,,,,,,,,,,,,,,,,,,,,13_14,001,2021_Apr_12_1051,ComputerHuman,2020.1.3,59.9558616498,
Computer.xlsx,c,Sychronize.jpg,Number10.jpg,10,Computer,,,,,0,9,9,5,0,7,7,9,,,,,,,,,,,,,,,,,,,,,,,,,,,,,,,,,,,,,,,,,,,,,,,,,,,,,,,,,3084.615607480623,None,3084.615607480623,None,3085.0488628333305,None,3085.0488628333305,None,v,3085.0488628333305,None,t,11.967107637322442,3085.0488628333305,None,8.384335742039184,11.967107637322442,10,False,False,False,3097.0958379003805,None,3097.0958379003805,None,3097.0958379003805,None,3097.0958379003805,None,3097.0958379003805,None,3097.0958379003805,None,3098.095548881278,None,3098.095548881278,None,8.384335742039184,c,,,,,,,,,,,,,,,,,,,,,,,,,,,13_14,001,2021_Apr_12_1051,ComputerHuman,2020.1.3,59.9558616498,
Computer.xlsx,c,Sychronize.jpg,Number8.jpg,8,Computer,,,,,0,9,9,5,0,8,8,5,,,,,,,,,,,,,,,,,,,,,,,,,,,,,,,,,,,,,,,,,,,,,,,,,,,,,,,,,3099.145092401107,None,3099.145092401107,None,3099.5952042075533,None,3099.5952042075533,None,v,3099.5952042075533,None,t,8.328395308844847,3099.5952042075533,None,8.984840771646304,8.328395308844847,8,False,False,False,3108.642904548956,None,3108.642904548956,None,3108.642904548956,None,3108.642904548956,None,3108.642904548956,None,3108.642904548956,None,3109.6426700617594,None,3109.6426700617594,None,8.984840771646304,c,,,,,,,,,,,,,,,,,,,,,,,,,,,13_14,001,2021_Apr_12_1051,ComputerHuman,2020.1.3,59.9558616498,
Computer.xlsx,c,Sychronize.jpg,Number6.jpg,6,Computer,,,,,0,9,9,5,0,9,9,0,,,,,,,,,,,,,,,,,,,,,,,,,,,,,,,,,,,,,,,,,,,,,,,,,,,,,,,,,3110.709115906284,None,3110.709115906284,None,3111.14228176251,None,3111.14228176251,None,v,3111.14228176251,None,t,6.23255131372116,3111.14228176251,None,6.4770024516901685,6.23255131372116,6,False,False,True,3117.6739611110524,None,3117.6739611110524,None,3117.6739611110524,None,3117.6739611110524,None,3117.6739611110524,None,3117.6739611110524,None,3118.6904358414486,None,3118.6904358414486,None,6.4770024516901685,c,,,,,,,,,,,,,,,,,,,,,,,,,,,13_14,001,2021_Apr_12_1051,ComputerHuman,2020.1.3,59.9558616498,
Computer.xlsx,c,,,,,,,,,0,9,9,5,,,,,,,,,,,,,,,,,,,,,,,,,,,,,,,,,,,,,,,,,,,,,,,,,,,,,,,,,,,,,,,,,,,,,,,,,,,,,,,,,,,,,,,,,,,,,,,,,,,c,3119.690180824593,None,3119.690180824593,None,q,0,4.8525498958915705,3119.690180824593,None,l,1,2.6278601583799173,3119.690180824593,None,h,c,3124.6056271794723,None,None,None,None,None,None,,,,13_14,001,2021_Apr_12_1051,ComputerHuman,2020.1.3,59.9558616498,
Human.xlsx,h,Sychronize.jpg,Number6.jpg,6,Human,,,,,1,0,10,8,0,0,0,1,,,,,,,,,,,,,,,,,,,,,,,,,,,,,,,,,,,,,,,,,,,,,,,,,,,,,3129.604316168293,None,3129.604316168293,None,3132.6866471570756,None,3132.6866471570756,None,3133.1368924063036,None,3133.1368924063036,None,v,3133.1368924063036,None,t,6.831462087012369,3133.1368924063036,None,7.628504276424792,6.831462087012369,6,False,False,False,3140.818306104269,None,3140.818306104269,None,3140.818306104269,None,3140.818306104269,None,3140.818306104269,None,3140.818306104269,None,3141.8180071411134,None,3141.8180071411134,None,7.628504276424792,h,,,,,,,,,,,,,,,,,,,,,,,,,,,13_14,001,2021_Apr_12_1051,ComputerHuman,2020.1.3,59.9558616498,
Human.xlsx,h,Sychronize.jpg,Number10.jpg,10,Human,,,,,1,0,10,8,0,1,1,8,,,,,,,,,,,,,,,,,,,,,,,,,,,,,,,,,,,,,,,,,,,,,,,,,,,,,,,,,3142.884128681185,None,3142.884128681185,None,3143.317614671777,None,3143.317614671777,None,v,3143.317614671777,None,t,11.166237949651077,3143.317614671777,None,7.906946755367244,11.166237949651077,10,False,False,False,3154.548222724985,None,3154.548222724985,None,3154.548222724985,None,3154.548222724985,None,3154.548222724985,None,3154.548222724985,None,3155.5645636918225,None,3155.5645636918225,None,7.906946755367244,h,,,,,,,,,,,,,,,,,,,,,,,,,,,13_14,001,2021_Apr_12_1051,ComputerHuman,2020.1.3,59.9558616498,
Human.xlsx,h,Sychronize.jpg,Number6.jpg,6,Human,,,,,1,0,10,8,0,2,2,0,,,,,,,,,,,,,,,,,,,,,,,,,,,,,,,,,,,,,,,,,,,,,,,,,,,,,,,,,3156.6141989535645,None,3156.6141989535645,None,3157.0475287262852,None,3157.0475287262852,None,v,3157.0475287262852,None,t,7.223546171363523,3157.0475287262852,None,6.795959249910993,7.223546171363523,6,False,False,False,3164.3456726205886,None,3164.3456726205886,None,3164.3456726205886,None,3164.3456726205886,None,3164.3456726205886,None,3164.3456726205886,None,3165.3454355671847,None,3165.3454355671847,None,6.795959249910993,h,,,,,,,,,,,,,,,,,,,,,,,,,,,13_14,001,2021_Apr_12_1051,ComputerHuman,2020.1.3,59.9558616498,
Human.xlsx,h,Sychronize.jpg,Number7.jpg,7,Human,,,,,1,0,10,8,0,3,3,2,,,,,,,,,,,,,,,,,,,,,,,,,,,,,,,,,,,,,,,,,,,,,,,,,,,,,,,,,3166.3949938427068,None,3166.3949938427068,None,3166.8450780624235,None,3166.8450780624235,None,v,3166.8450780624235,None,t,7.308493087760326,3166.8450780624235,None,5.749750195754132,7.308493087760326,7,False,False,False,3174.209866040769,None,3174.209866040769,None,3174.209866040769,None,3174.209866040769,None,3174.209866040769,None,3174.209866040769,None,3175.2095821540806,None,3175.2095821540806,None,5.749750195754132,h,,,,,,,,,,,,,,,,,,,,,,,,,,,13_14,001,2021_Apr_12_1051,ComputerHuman,2020.1.3,59.9558616498,
Human.xlsx,h,Sychronize.jpg,Number8.jpg,8,Human,,,,,1,0,10,8,0,4,4,4,,,,,,,,,,,,,,,,,,,,,,,,,,,,,,,,,,,,,,,,,,,,,,,,,,,,,,,,,3176.259068255021,None,3176.259068255021,None,3176.70921438449,None,3176.70921438449,None,v,3176.70921438449,None,t,9.219274719232999,3176.70921438449,None,7.528635185076382,9.219274719232999,8,False,False,False,3185.9903568343398,None,3185.9903568343398,None,3185.9903568343398,None,3185.9903568343398,None,3185.9903568343398,None,3185.9903568343398,None,3187.0066410238396,None,3187.0066410238396,None,7.528635185076382,h,,,,,,,,,,,,,,,,,,,,,,,,,,,13_14,001,2021_Apr_12_1051,ComputerHuman,2020.1.3,59.9558616498,
Human.xlsx,h,Sychronize.jpg,Number10.jpg,10,Human,,,,,1,0,10,8,0,5,5,9,,,,,,,,,,,,,,,,,,,,,,,,,,,,,,,,,,,,,,,,,,,,,,,,,,,,,,,,,3188.0562137342777,None,3188.0562137342777,None,3188.506383601165,None,3188.506383601165,None,v,3188.506383601165,None,t,11.113172631013185,3188.506383601165,None,10.398341139415606,11.113172631013185,10,False,False,False,3199.686848283576,None,3199.686848283576,None,3199.686848283576,None,3199.686848283576,None,3199.686848283576,None,3199.686848283576,None,3200.686541621798,None,3200.686541621798,None,10.398341139415606,h,,,,,,,,,,,,,,,,,,,,,,,,,,,13_14,001,2021_Apr_12_1051,ComputerHuman,2020.1.3,59.9558616498,
Human.xlsx,h,Sychronize.jpg,Number9.jpg,9,Human,,,,,1,0,10,8,0,6,6,6,,,,,,,,,,,,,,,,,,,,,,,,,,,,,,,,,,,,,,,,,,,,,,,,,,,,,,,,,3201.736104388183,None,3201.736104388183,None,3202.186302162575,None,3202.186302162575,None,v,3202.186302162575,None,t,9.86420689276838,3202.186302162575,None,9.305358786261422,9.86420689276838,9,False,False,False,3212.10035538764,None,3212.10035538764,None,3212.10035538764,None,3212.10035538764,None,3212.10035538764,None,3212.10035538764,None,3213.1001699791595,None,3213.1001699791595,None,9.305358786261422,h,,,,,,,,,,,,,,,,,,,,,,,,,,,13_14,001,2021_Apr_12_1051,ComputerHuman,2020.1.3,59.9558616498,
Human.xlsx,h,Sychronize.jpg,Number9.jpg,9,Human,,,,,1,0,10,8,0,7,7,7,,,,,,,,,,,,,,,,,,,,,,,,,,,,,,,,,,,,,,,,,,,,,,,,,,,,,,,,,3214.1666373156704,None,3214.1666373156704,None,3214.6164713301714,None,3214.6164713301714,None,v,3214.6164713301714,None,t,10.641224966246227,3214.6164713301714,None,10.714289059520524,10.641224966246227,9,True,False,False,3225.380447937908,None,3225.380447937908,None,3225.380447937908,None,3225.380447937908,None,3225.380447937908,None,3225.380447937908,None,3226.3802477737354,None,3226.3802477737354,None,10.714289059520524,h,,,,,,,,,,,,,,,,,,,,,,,,,,,13_14,001,2021_Apr_12_1051,ComputerHuman,2020.1.3,59.9558616498,
Human.xlsx,h,Sychronize.jpg,Number7.jpg,7,Human,,,,,1,0,10,8,0,8,8,3,,,,,,,,,,,,,,,,,,,,,,,,,,,,,,,,,,,,,,,,,,,,,,,,,,,,,,,,,3227.446268590167,None,3227.446268590167,None,3227.879812320426,None,3227.879812320426,None,v,3227.879812320426,None,t,8.269335329842761,3227.879812320426,None,7.1899272512291645,8.269335329842761,7,False,False,False,3236.2109810578613,None,3236.2109810578613,None,3236.2109810578613,None,3236.2109810578613,None,3236.2109810578613,None,3236.2109810578613,None,3237.227467656966,None,3237.227467656966,None,7.1899272512291645,h,,,,,,,,,,,,,,,,,,,,,,,,,,,13_14,001,2021_Apr_12_1051,ComputerHuman,2020.1.3,59.9558616498,
Human.xlsx,h,Sychronize.jpg,Number8.jpg,8,Human,,,,,1,0,10,8,0,9,9,5,,,,,,,,,,,,,,,,,,,,,,,,,,,,,,,,,,,,,,,,,,,,,,,,,,,,,,,,,3238.276899226,None,3238.276899226,None,3238.7270665266806,None,3238.7270665266806,None,v,3238.7270665266806,None,t,9.481319454001095,3238.7270665266806,None,10.385480912068488,9.481319454001095,8,False,False,False,3249.191171541017,None,3249.191171541017,None,3249.191171541017,None,3249.191171541017,None,3249.191171541017,None,3249.191171541017,None,3250.1908642376875,None,3250.1908642376875,None,10.385480912068488,h,,,,,,,,,,,,,,,,,,,,,,,,,,,13_14,001,2021_Apr_12_1051,ComputerHuman,2020.1.3,59.9558616498,
Human.xlsx,h,,,,,,,,,1,0,10,8,,,,,,,,,,,,,,,,,,,,,,,,,,,,,,,,,,,,,,,,,,,,,,,,,,,,,,,,,,,,,,,,,,,,,,,,,,,,,,,,,,,,,,,,,,,,,,,,,,,h,3251.1906653566175,None,3251.1906653566175,None,a,0,4.913348159596353,3251.1906653566175,None,l,0,2.792818853668905,3251.1906653566175,None,c,c,3256.156037916997,None,None,None,None,None,None,,,,13_14,001,2021_Apr_12_1051,ComputerHuman,2020.1.3,59.9558616498,
Human.xlsx,h,Sychronize.jpg,Number7.jpg,7,Human,,,,,1,1,11,2,0,0,0,2,,,,,,,,,,,,,,,,,,,,,,,,,,,,,,,,,,,,,,,,,,,,,,,,,,,,,3261.15478881557,None,3261.15478881557,None,3264.2371214082323,None,3264.2371214082323,None,3264.6872899920163,None,3264.6872899920163,None,v,3264.6872899920163,None,t,8.270904244859594,3264.6872899920163,None,6.147510089204843,8.270904244859594,7,False,False,False,3273.0185892852505,None,3273.0185892852505,None,3273.0185892852505,None,3273.0185892852505,None,3273.0185892852505,None,3273.0185892852505,None,3274.0349334598477,None,3274.0349334598477,None,6.147510089204843,h,,,,,,,,,,,,,,,,,,,,,,,,,,,13_14,001,2021_Apr_12_1051,ComputerHuman,2020.1.3,59.9558616498,
Human.xlsx,h,Sychronize.jpg,Number10.jpg,10,Human,,,,,1,1,11,2,0,1,1,8,,,,,,,,,,,,,,,,,,,,,,,,,,,,,,,,,,,,,,,,,,,,,,,,,,,,,,,,,3275.0843833131084,None,3275.0843833131084,None,3275.517925760263,None,3275.517925760263,None,v,3275.517925760263,None,t,11.351141529222332,3275.517925760263,None,5.71202887239815,11.351141529222332,10,False,False,False,3286.931651954279,None,3286.931651954279,None,3286.931651954279,None,3286.931651954279,None,3286.931651954279,None,3286.931651954279,None,3287.948093003203,None,3287.948093003203,None,5.71202887239815,h,,,,,,,,,,,,,,,,,,,,,,,,,,,13_14,001,2021_Apr_12_1051,ComputerHuman,2020.1.3,59.9558616498,
Human.xlsx,h,Sychronize.jpg,Number7.jpg,7,Human,,,,,1,1,11,2,0,2,2,3,,,,,,,,,,,,,,,,,,,,,,,,,,,,,,,,,,,,,,,,,,,,,,,,,,,,,,,,,3288.997650637173,None,3288.997650637173,None,3289.431164856047,None,3289.431164856047,None,v,3289.431164856047,None,t,8.520780665937309,3289.431164856047,None,7.5735460590913135,8.520780665937309,7,False,False,False,3298.028915703617,None,3298.028915703617,None,3298.028915703617,None,3298.028915703617,None,3298.028915703617,None,3298.028915703617,None,3299.028713294013,None,3299.028713294013,None,7.5735460590913135,h,,,,,,,,,,,,,,,,,,,,,,,,,,,13_14,001,2021_Apr_12_1051,ComputerHuman,2020.1.3,59.9558616498,
Human.xlsx,h,Sychronize.jpg,Number6.jpg,6,Human,,,,,1,1,11,2,0,3,3,1,,,,,,,,,,,,,,,,,,,,,,,,,,,,,,,,,,,,,,,,,,,,,,,,,,,,,,,,,3300.0783665192057,None,3300.0783665192057,None,3300.528314088382,None,3300.528314088382,None,v,3300.528314088382,None,t,7.51447870224365,3300.528314088382,None,7.847424859042803,7.51447870224365,6,False,False,False,3308.426412881591,None,3308.426412881591,None,3308.426412881591,None,3308.426412881591,None,3308.426412881591,None,3308.426412881591,None,3309.4261947539662,None,3309.4261947539662,None,7.847424859042803,h,,,,,,,,,,,,,,,,,,,,,,,,,,,13_14,001,2021_Apr_12_1051,ComputerHuman,2020.1.3,59.9558616498,
Human.xlsx,h,Sychronize.jpg,Number9.jpg,9,Human,,,,,1,1,11,2,0,4,4,6,,,,,,,,,,,,,,,,,,,,,,,,,,,,,,,,,,,,,,,,,,,,,,,,,,,,,,,,,3310.4925190244176,None,3310.4925190244176,None,3310.9256868053,None,3310.9256868053,None,v,3310.9256868053,None,t,11.116166753436119,3310.9256868053,None,10.693027390093448,11.116166753436119,9,False,False,False,3322.1062105104793,None,3322.1062105104793,None,3322.1062105104793,None,3322.1062105104793,None,3322.1062105104793,None,3322.1062105104793,None,3323.1060023269083,None,3323.1060023269083,None,10.693027390093448,h,,,,,,,,,,,,,,,,,,,,,,,,,,,13_14,001,2021_Apr_12_1051,ComputerHuman,2020.1.3,59.9558616498,
Human.xlsx,h,Sychronize.jpg,Number9.jpg,9,Human,,,,,1,1,11,2,0,5,5,7,,,,,,,,,,,,,,,,,,,,,,,,,,,,,,,,,,,,,,,,,,,,,,,,,,,,,,,,,3324.1554608411197,None,3324.1554608411197,None,3324.605634236542,None,3324.605634236542,None,v,3324.605634236542,None,t,11.511121140704745,3324.605634236542,None,11.967841893399054,11.511121140704745,9,False,False,False,3336.6359257480735,None,3336.6359257480735,None,3336.6359257480735,None,3336.6359257480735,None,3336.6359257480735,None,3336.6359257480735,None,3337.6523610230315,None,3337.6523610230315,None,11.967841893399054,h,,,,,,,,,,,,,,,,,,,,,,,,,,,13_14,001,2021_Apr_12_1051,ComputerHuman,2020.1.3,59.9558616498,
Human.xlsx,h,Sychronize.jpg,Number10.jpg,10,Human,,,,,1,1,11,2,0,6,6,9,,,,,,,,,,,,,,,,,,,,,,,,,,,,,,,,,,,,,,,,,,,,,,,,,,,,,,,,,3338.7018846547535,None,3338.7018846547535,None,3339.152016990859,None,3339.152016990859,None,v,3339.152016990859,None,t,11.519661799533424,3339.152016990859,None,8.568559918215215,11.519661799533424,10,False,False,False,3350.7324096911534,None,3350.7324096911534,None,3350.7324096911534,None,3350.7324096911534,None,3350.7324096911534,None,3350.7324096911534,None,3351.748862608787,None,3351.748862608787,None,8.568559918215215,h,,,,,,,,,,,,,,,,,,,,,,,,,,,13_14,001,2021_Apr_12_1051,ComputerHuman,2020.1.3,59.9558616498,
Human.xlsx,h,Sychronize.jpg,Number6.jpg,6,Human,,,,,1,1,11,2,0,7,7,0,,,,,,,,,,,,,,,,,,,,,,,,,,,,,,,,,,,,,,,,,,,,,,,,,,,,,,,,,3352.7981427715877,None,3352.7981427715877,None,3353.248376472883,None,3353.248376472883,None,v,3353.248376472883,None,t,7.17049721229705,3353.248376472883,None,9.331042993275332,7.17049721229705,6,False,False,False,3362.629387372528,None,3362.629387372528,None,3362.629387372528,None,3362.629387372528,None,3362.629387372528,None,3362.629387372528,None,3363.6458576120604,None,3363.6458576120604,None,9.331042993275332,h,,,,,,,,,,,,,,,,,,,,,,,,,,,13_14,001,2021_Apr_12_1051,ComputerHuman,2020.1.3,59.9558616498,
Human.xlsx,h,Sychronize.jpg,Number8.jpg,8,Human,,,,,1,1,11,2,0,8,8,5,,,,,,,,,,,,,,,,,,,,,,,,,,,,,,,,,,,,,,,,,,,,,,,,,,,,,,,,,3364.6956965665113,None,3364.6956965665113,None,3365.145461934965,None,3365.145461934965,None,v,3365.145461934965,None,t,9.244323148377589,3365.145461934965,None,8.648994158991627,9.244323148377589,8,False,False,False,3374.4431731025543,None,3374.4431731025543,None,3374.4431731025543,None,3374.4431731025543,None,3374.4431731025543,None,3374.4431731025543,None,3375.442919048027,None,3375.442919048027,None,8.648994158991627,h,,,,,,,,,,,,,,,,,,,,,,,,,,,13_14,001,2021_Apr_12_1051,ComputerHuman,2020.1.3,59.9558616498,
Human.xlsx,h,Sychronize.jpg,Number8.jpg,8,Human,,,,,1,1,11,2,0,9,9,4,,,,,,,,,,,,,,,,,,,,,,,,,,,,,,,,,,,,,,,,,,,,,,,,,,,,,,,,,3376.49241509302,None,3376.49241509302,None,3376.942511181446,None,3376.942511181446,None,v,3376.942511181446,None,t,9.650233957915589,3376.942511181446,None,7.407077792329801,9.650233957915589,8,False,False,False,3386.656646589302,None,3386.656646589302,None,3386.656646589302,None,3386.656646589302,None,3386.656646589302,None,3386.656646589302,None,3387.673218194025,None,3387.673218194025,None,7.407077792329801,h,,,,,,,,,,,,,,,,,,,,,,,,,,,13_14,001,2021_Apr_12_1051,ComputerHuman,2020.1.3,59.9558616498,
Human.xlsx,h,,,,,,,,,1,1,11,2,,,,,,,,,,,,,,,,,,,,,,,,,,,,,,,,,,,,,,,,,,,,,,,,,,,,,,,,,,,,,,,,,,,,,,,,,,,,,,,,,,,,,,,,,,,,,,,,,,,h,3388.6729375150962,None,3388.6729375150962,None,q,1,10.903418861817045,3388.6729375150962,None,o,1,11.803173179540863,3388.6729375150962,None,h,h,None,None,3400.53662378855,None,"['space', 'space']",3401.519731728684,None,"[1.896344469711039, 6.136010593304491]",,,13_14,001,2021_Apr_12_1051,ComputerHuman,2020.1.3,59.9558616498,
Computer.xlsx,c,Sychronize.jpg,Number6.jpg,6,Computer,,,,,1,2,12,9,0,0,0,0,,,,,,,,,,,,,,,,,,,,,,,,,,,,,,,,,,,,,,,,,,,,,,,,,,,,,3407.718284002809,None,3407.718284002809,None,3410.7839400970215,None,3410.7839400970215,None,3411.2173770088993,None,3411.2173770088993,None,v,3411.2173770088993,None,t,6.884550822293022,3411.2173770088993,None,7.345421453043855,6.884550822293022,6,False,False,False,3418.6321223080085,None,3418.6321223080085,None,3418.6321223080085,None,3418.6321223080085,None,3418.6321223080085,None,3418.6321223080085,None,3419.6318656872736,None,3419.6318656872736,None,7.345421453043855,c,,,,,,,,,,,,,,,,,,,,,,,,,,,13_14,001,2021_Apr_12_1051,ComputerHuman,2020.1.3,59.9558616498,
Computer.xlsx,c,Sychronize.jpg,Number8.jpg,8,Computer,,,,,1,2,12,9,0,1,1,5,,,,,,,,,,,,,,,,,,,,,,,,,,,,,,,,,,,,,,,,,,,,,,,,,,,,,,,,,3420.6815962194632,None,3420.6815962194632,None,3421.1315242213086,None,3421.1315242213086,None,v,3421.1315242213086,None,t,10.11720670896375,3421.1315242213086,None,8.21042836095421,10.11720670896375,8,False,True,False,3431.3289653276515,None,3431.3289653276515,None,3431.3289653276515,None,3431.3289653276515,None,3431.3289653276515,None,3431.3289653276515,None,3432.3286901019137,None,3432.3286901019137,None,8.21042836095421,c,,,,,,,,,,,,,,,,,,,,,,,,,,,13_14,001,2021_Apr_12_1051,ComputerHuman,2020.1.3,59.9558616498,
Computer.xlsx,c,Sychronize.jpg,Number7.jpg,7,Computer,,,,,1,2,12,9,0,2,2,3,,,,,,,,,,,,,,,,,,,,,,,,,,,,,,,,,,,,,,,,,,,,,,,,,,,,,,,,,3433.3782336217428,None,3433.3782336217428,None,3433.8283181622364,None,3433.8283181622364,None,v,3433.8283181622364,None,t,8.79131473538746,3433.8283181622364,None,6.456777209255961,8.79131473538746,7,False,False,False,3442.676178314201,None,3442.676178314201,None,3442.676178314201,None,3442.676178314201,None,3442.676178314201,None,3442.676178314201,None,3443.6758716524228,None,3443.6758716524228,None,6.456777209255961,c,,,,,,,,,,,,,,,,,,,,,,,,,,,13_14,001,2021_Apr_12_1051,ComputerHuman,2020.1.3,59.9558616498,
Computer.xlsx,c,Sychronize.jpg,Number7.jpg,7,Computer,,,,,1,2,12,9,0,3,3,2,,,,,,,,,,,,,,,,,,,,,,,,,,,,,,,,,,,,,,,,,,,,,,,,,,,,,,,,,3444.7255736355555,None,3444.7255736355555,None,3445.175555206979,None,3445.175555206979,None,v,3445.175555206979,None,t,8.499384270624432,3445.175555206979,None,7.2964505182299035,8.499384270624432,7,False,True,False,3453.7400027779195,None,3453.7400027779195,None,3453.7400027779195,None,3453.7400027779195,None,3453.7400027779195,None,3453.7400027779195,None,3454.756430995807,None,3454.756430995807,None,7.2964505182299035,c,,,,,,,,,,,,,,,,,,,,,,,,,,,13_14,001,2021_Apr_12_1051,ComputerHuman,2020.1.3,59.9558616498,
Computer.xlsx,c,Sychronize.jpg,Number9.jpg,9,Computer,,,,,1,2,12,9,0,4,4,7,,,,,,,,,,,,,,,,,,,,,,,,,,,,,,,,,,,,,,,,,,,,,,,,,,,,,,,,,3455.8061974549,None,3455.8061974549,None,3456.2393508008654,None,3456.2393508008654,None,v,3456.2393508008654,None,t,10.871164201664214,3456.2393508008654,None,9.575614742989274,10.871164201664214,9,False,False,False,3467.169954459443,None,3467.169954459443,None,3467.169954459443,None,3467.169954459443,None,3467.169954459443,None,3467.169954459443,None,3468.1863871681935,None,3468.1863871681935,None,9.575614742989274,c,,,,,,,,,,,,,,,,,,,,,,,,,,,13_14,001,2021_Apr_12_1051,ComputerHuman,2020.1.3,59.9558616498,
Computer.xlsx,c,Sychronize.jpg,Number6.jpg,6,Computer,,,,,1,2,12,9,0,5,5,1,,,,,,,,,,,,,,,,,,,,,,,,,,,,,,,,,,,,,,,,,,,,,,,,,,,,,,,,,3469.2361472117673,None,3469.2361472117673,None,3469.6859716029912,None,3469.6859716029912,None,v,3469.6859716029912,None,t,7.787853884003198,3469.6859716029912,None,7.516011369581065,7.787853884003198,6,False,False,False,3477.5340906211213,None,3477.5340906211213,None,3477.5340906211213,None,3477.5340906211213,None,3477.5340906211213,None,3477.5340906211213,None,3478.533842019785,None,3478.533842019785,None,7.516011369581065,c,,,,,,,,,,,,,,,,,,,,,,,,,,,13_14,001,2021_Apr_12_1051,ComputerHuman,2020.1.3,59.9558616498,
Computer.xlsx,c,Sychronize.jpg,Number9.jpg,9,Computer,,,,,1,2,12,9,0,6,6,6,,,,,,,,,,,,,,,,,,,,,,,,,,,,,,,,,,,,,,,,,,,,,,,,,,,,,,,,,3479.5998519298364,None,3479.5998519298364,None,3480.0500939713056,None,3480.0500939713056,None,v,3480.0500939713056,None,t,10.046297909087116,3480.0500939713056,None,11.418822681808706,10.046297909087116,9,False,False,False,3491.530536744721,None,3491.530536744721,None,3491.530536744721,None,3491.530536744721,None,3491.530536744721,None,3491.530536744721,None,3492.53025702812,None,3492.53025702812,None,11.418822681808706,c,,,,,,,,,,,,,,,,,,,,,,,,,,,13_14,001,2021_Apr_12_1051,ComputerHuman,2020.1.3,59.9558616498,
Computer.xlsx,c,Sychronize.jpg,Number10.jpg,10,Computer,,,,,1,2,12,9,0,7,7,9,,,,,,,,,,,,,,,,,,,,,,,,,,,,,,,,,,,,,,,,,,,,,,,,,,,,,,,,,3493.579789641568,None,3493.579789641568,None,3494.029939299573,None,3494.029939299573,None,v,3494.029939299573,None,t,11.769136288385198,3494.029939299573,None,9.609970164631704,11.769136288385198,10,False,False,False,3505.860334485881,None,3505.860334485881,None,3505.860334485881,None,3505.860334485881,None,3505.860334485881,None,3505.860334485881,None,3506.860087488424,None,3506.860087488424,None,9.609970164631704,c,,,,,,,,,,,,,,,,,,,,,,,,,,,13_14,001,2021_Apr_12_1051,ComputerHuman,2020.1.3,59.9558616498,
Computer.xlsx,c,Sychronize.jpg,Number8.jpg,8,Computer,,,,,1,2,12,9,0,8,8,4,,,,,,,,,,,,,,,,,,,,,,,,,,,,,,,,,,,,,,,,,,,,,,,,,,,,,,,,,3507.9262289166018,None,3507.9262289166018,None,3508.359763665135,None,3508.359763665135,None,v,3508.359763665135,None,t,9.29034551094901,3508.359763665135,None,10.794856743078526,9.29034551094901,8,False,False,False,3519.206938318961,None,3519.206938318961,None,3519.206938318961,None,3519.206938318961,None,3519.206938318961,None,3519.206938318961,None,3520.2234201064275,None,3520.2234201064275,None,10.794856743078526,c,,,,,,,,,,,,,,,,,,,,,,,,,,,13_14,001,2021_Apr_12_1051,ComputerHuman,2020.1.3,59.9558616498,
Computer.xlsx,c,Sychronize.jpg,Number10.jpg,10,Computer,,,,,1,2,12,9,0,9,9,8,,,,,,,,,,,,,,,,,,,,,,,,,,,,,,,,,,,,,,,,,,,,,,,,,,,,,,,,,3521.2729145475405,None,3521.2729145475405,None,3521.7230346941615,None,3521.7230346941615,None,v,3521.7230346941615,None,t,11.458192151832009,3521.7230346941615,None,9.17062969275139,11.458192151832009,10,False,False,False,3533.236800953089,None,3533.236800953089,None,3533.236800953089,None,3533.236800953089,None,3533.236800953089,None,3533.236800953089,None,3534.2532429643416,None,3534.2532429643416,None,9.17062969275139,c,,,,,,,,,,,,,,,,,,,,,,,,,,,13_14,001,2021_Apr_12_1051,ComputerHuman,2020.1.3,59.9558616498,
Computer.xlsx,c,,,,,,,,,1,2,12,9,,,,,,,,,,,,,,,,,,,,,,,,,,,,,,,,,,,,,,,,,,,,,,,,,,,,,,,,,,,,,,,,,,,,,,,,,,,,,,,,,,,,,,,,,,,,,,,,,,,c,3535.2529276416135,None,3535.2529276416135,None,a,1,6.695835462483956,3535.2529276416135,None,l,1,2.5838920447886267,3535.2529276416135,None,c,c,3542.001308444971,None,None,None,None,None,None,,,,13_14,001,2021_Apr_12_1051,ComputerHuman,2020.1.3,59.9558616498,
Computer.xlsx,c,Sychronize.jpg,Number9.jpg,9,Computer,,,,,1,3,13,5,0,0,0,6,,,,,,,,,,,,,,,,,,,,,,,,,,,,,,,,,,,,,,,,,,,,,,,,,,,,,3547.016688046382,None,3547.016688046382,None,3550.0989693148967,None,3550.0989693148967,None,3550.532481288339,None,3550.532481288339,None,v,3550.532481288339,None,t,10.01429217104669,3550.532481288339,None,11.566677605124823,10.01429217104669,9,False,False,False,3562.1629057294112,None,3562.1629057294112,None,3562.1629057294112,None,3562.1629057294112,None,3562.1629057294112,None,3562.1629057294112,None,3563.1626446178134,None,3563.1626446178134,None,11.566677605124823,c,,,,,,,,,,,,,,,,,,,,,,,,,,,13_14,001,2021_Apr_12_1051,ComputerHuman,2020.1.3,59.9558616498,
Computer.xlsx,c,Sychronize.jpg,Number10.jpg,10,Computer,,,,,1,3,13,5,0,1,1,9,,,,,,,,,,,,,,,,,,,,,,,,,,,,,,,,,,,,,,,,,,,,,,,,,,,,,,,,,3564.245711787328,None,3564.245711787328,None,3564.6789270430463,None,3564.6789270430463,None,v,3564.6789270430463,None,t,10.710213601476426,3564.6789270430463,None,9.78720495431935,10.710213601476426,10,False,True,False,3575.4429315582875,None,3575.4429315582875,None,3575.4429315582875,None,3575.4429315582875,None,3575.4429315582875,None,3575.4429315582875,None,3576.4426162355603,None,3576.4426162355603,None,9.78720495431935,c,,,,,,,,,,,,,,,,,,,,,,,,,,,13_14,001,2021_Apr_12_1051,ComputerHuman,2020.1.3,59.9558616498,
Computer.xlsx,c,Sychronize.jpg,Number6.jpg,6,Computer,,,,,1,3,13,5,0,2,2,0,,,,,,,,,,,,,,,,,,,,,,,,,,,,,,,,,,,,,,,,,,,,,,,,,,,,,,,,,3577.508864802894,None,3577.508864802894,None,3577.9423036394273,None,3577.9423036394273,None,v,3577.9423036394273,None,t,7.162484229853362,3577.9423036394273,None,7.590949114995965,7.162484229853362,6,False,False,False,3585.5903412446296,None,3585.5903412446296,None,3585.5903412446296,None,3585.5903412446296,None,3585.5903412446296,None,3585.5903412446296,None,3586.6068146919224,None,3586.6068146919224,None,7.590949114995965,c,,,,,,,,,,,,,,,,,,,,,,,,,,,13_14,001,2021_Apr_12_1051,ComputerHuman,2020.1.3,59.9558616498,
Computer.xlsx,c,Sychronize.jpg,Number9.jpg,9,Computer,,,,,1,3,13,5,0,3,3,7,,,,,,,,,,,,,,,,,,,,,,,,,,,,,,,,,,,,,,,,,,,,,,,,,,,,,,,,,3587.656274168461,None,3587.656274168461,None,3588.106485094666,None,3588.106485094666,None,v,3588.106485094666,None,t,9.437842127566,3588.106485094666,None,10.013828329068929,9.437842127566,9,False,False,False,3598.187165691347,None,3598.187165691347,None,3598.187165691347,None,3598.187165691347,None,3598.187165691347,None,3598.187165691347,None,3599.187005303388,None,3599.187005303388,None,10.013828329068929,c,,,,,,,,,,,,,,,,,,,,,,,,,,,13_14,001,2021_Apr_12_1051,ComputerHuman,2020.1.3,59.9558616498,
Computer.xlsx,c,Sychronize.jpg,Number10.jpg,10,Computer,,,,,1,3,13,5,0,4,4,8,,,,,,,,,,,,,,,,,,,,,,,,,,,,,,,,,,,,,,,,,,,,,,,,,,,,,,,,,3600.236707286521,None,3600.236707286521,None,3600.686615079483,None,3600.686615079483,None,v,3600.686615079483,None,t,10.840204834669748,3600.686615079483,None,11.560441079719567,10.840204834669748,10,False,False,False,3612.3003001500274,None,3612.3003001500274,None,3612.3003001500274,None,3612.3003001500274,None,3612.3003001500274,None,3612.3003001500274,None,3613.316806637239,None,3613.316806637239,None,11.560441079719567,c,,,,,,,,,,,,,,,,,,,,,,,,,,,13_14,001,2021_Apr_12_1051,ComputerHuman,2020.1.3,59.9558616498,
Computer.xlsx,c,Sychronize.jpg,Number8.jpg,8,Computer,,,,,1,3,13,5,0,5,5,5,,,,,,,,,,,,,,,,,,,,,,,,,,,,,,,,,,,,,,,,,,,,,,,,,,,,,,,,,3614.3664967516625,None,3614.3664967516625,None,3614.8164083939364,None,3614.8164083939364,None,v,3614.8164083939364,None,t,9.405178798892848,3614.8164083939364,None,9.505606361114587,9.405178798892848,8,False,False,False,3624.3634410402638,None,3624.3634410402638,None,3624.3634410402638,None,3624.3634410402638,None,3624.3634410402638,None,3624.3634410402638,None,3625.38043446532,None,3625.38043446532,None,9.505606361114587,c,,,,,,,,,,,,,,,,,,,,,,,,,,,13_14,001,2021_Apr_12_1051,ComputerHuman,2020.1.3,59.9558616498,
Computer.xlsx,c,Sychronize.jpg,Number6.jpg,6,Computer,,,,,1,3,13,5,0,6,6,1,,,,,,,,,,,,,,,,,,,,,,,,,,,,,,,,,,,,,,,,,,,,,,,,,,,,,,,,,3626.446583271343,None,3626.446583271343,None,3626.880044241415,None,3626.880044241415,None,v,3626.880044241415,None,t,6.492553347440662,3626.880044241415,None,7.329199814847925,6.492553347440662,6,False,False,False,3634.261505831225,None,3634.261505831225,None,3634.261505831225,None,3634.261505831225,None,3634.261505831225,None,3634.261505831225,None,3635.27798537326,None,3635.27798537326,None,7.329199814847925,c,,,,,,,,,,,,,,,,,,,,,,,,,,,13_14,001,2021_Apr_12_1051,ComputerHuman,2020.1.3,59.9558616498,
Computer.xlsx,c,Sychronize.jpg,Number7.jpg,7,Computer,,,,,1,3,13,5,0,7,7,2,,,,,,,,,,,,,,,,,,,,,,,,,,,,,,,,,,,,,,,,,,,,,,,,,,,,,,,,,3636.327708527603,None,3636.327708527603,None,3636.777594507803,None,3636.777594507803,None,v,3636.777594507803,None,t,7.214522744777241,3636.777594507803,None,8.210803027226575,7.214522744777241,7,False,False,True,3645.0421621451696,None,3645.0421621451696,None,3645.0421621451696,None,3645.0421621451696,None,3645.0421621451696,None,3645.0421621451696,None,3646.0419388851305,None,3646.0419388851305,None,8.210803027226575,c,,,,,,,,,,,,,,,,,,,,,,,,,,,13_14,001,2021_Apr_12_1051,ComputerHuman,2020.1.3,59.9558616498,
Computer.xlsx,c,Sychronize.jpg,Number7.jpg,7,Computer,,,,,1,3,13,5,0,8,8,3,,,,,,,,,,,,,,,,,,,,,,,,,,,,,,,,,,,,,,,,,,,,,,,,,,,,,,,,,3647.108344953441,None,3647.108344953441,None,3647.55820976243,None,3647.55820976243,None,v,3647.55820976243,None,t,8.396446636840665,3647.55820976243,None,7.249401993493848,8.396446636840665,7,False,True,False,3656.006041814424,None,3656.006041814424,None,3656.006041814424,None,3656.006041814424,None,3656.006041814424,None,3656.006041814424,None,3657.0058852757757,None,3657.0058852757757,None,7.249401993493848,c,,,,,,,,,,,,,,,,,,,,,,,,,,,13_14,001,2021_Apr_12_1051,ComputerHuman,2020.1.3,59.9558616498,
Computer.xlsx,c,Sychronize.jpg,Number8.jpg,8,Computer,,,,,1,3,13,5,0,9,9,4,,,,,,,,,,,,,,,,,,,,,,,,,,,,,,,,,,,,,,,,,,,,,,,,,,,,,,,,,3658.0553030514448,None,3658.0553030514448,None,3658.50549280644,None,3658.50549280644,None,v,3658.50549280644,None,t,9.236278409118313,3658.50549280644,None,9.321445698571551,9.236278409118313,8,False,False,False,3667.8864806102183,None,3667.8864806102183,None,3667.8864806102183,None,3667.8864806102183,None,3667.8864806102183,None,3667.8864806102183,None,3668.9029710586346,None,3668.9029710586346,None,9.321445698571551,c,,,,,,,,,,,,,,,,,,,,,,,,,,,13_14,001,2021_Apr_12_1051,ComputerHuman,2020.1.3,59.9558616498,
Computer.xlsx,c,,,,,,,,,1,3,13,5,,,,,,,,,,,,,,,,,,,,,,,,,,,,,,,,,,,,,,,,,,,,,,,,,,,,,,,,,,,,,,,,,,,,,,,,,,,,,,,,,,,,,,,,,,,,,,,,,,,c,3669.9026541320272,None,3669.9026541320272,None,q,0,3.9873636742440794,3669.9026541320272,None,l,1,2.3509359118579596,3669.9026541320272,None,h,c,3673.9516991660785,None,None,None,None,None,None,,,,13_14,001,2021_Apr_12_1051,ComputerHuman,2020.1.3,59.9558616498,
