Condition,CorrectTuringReply,Sychronize,NumberImage,Number,Partner,trials.thisRepN,trials.thisTrialN,trials.thisN,trials.thisIndex,Block.thisRepN,Block.thisTrialN,Block.thisN,Block.thisIndex,trials_loop.thisRepN,trials_loop.thisTrialN,trials_loop.thisN,trials_loop.thisIndex,textLeft.started,textLeft.stopped,textRight.started,textRight.stopped,key_resp_Istr.keys,key_resp_Istr.rt,key_resp_Istr.started,key_resp_Istr.stopped,SychroLeftPr.started,SychroLeftPr.stopped,SychroRightPr.started,SychroRightPr.stopped,NumberLeftPr.started,NumberLeftPr.stopped,NumberRightPr.started,NumberRightPr.stopped,CrossLeftPr.started,CrossLeftPr.stopped,CrossRightPr.started,CrossRightPr.stopped,key_respPrLeft.keys,key_respPrLeft.rt,key_respPrLeft.started,key_respPrLeft.stopped,key_respPrRight.keys,key_respPrRight.rt,key_respPrRight.started,key_respPrRight.stopped,RTPrLeft,RTPrRight,CompPr,SychronizedRTsPr,SychronizedRTsLeftCPr,SychronizedRTsRightCPr,FeedbackLeftLeftPr.started,FeedbackLeftLeftPr.stopped,FeedbackRightRightPr.started,FeedbackRightRightPr.stopped,LineLeftPr.started,LineLeftPr.stopped,LineRightPr.started,LineRightPr.stopped,CreditLeftPr.started,CreditLeftPr.stopped,CreditRightPr.started,CreditRightPr.stopped,text_StartExp.started,text_StartExp.stopped,key_startExp.keys,key_startExp.rt,key_startExp.started,key_startExp.stopped,SychroLeft.started,SychroLeft.stopped,SychroRight.started,SychroRight.stopped,NumberLeft.started,NumberLeft.stopped,NumberRight.started,NumberRight.stopped,CrossLeft.started,CrossLeft.stopped,CrossRight.started,CrossRight.stopped,key_respLeft.keys,key_respLeft.rt,key_respLeft.started,key_respLeft.stopped,key_respRight.keys,key_respRight.rt,key_respRight.started,key_respRight.stopped,RTLeft,RTRight,Comp,SychronizedRTs,SychronizedRTsLeftC,SychronizedRTsRightC,FeedbackLeftLeft.started,FeedbackLeftLeft.stopped,FeedbackLeftRight.started,FeedbackLeftRight.stopped,FeedbackRightLeft.started,FeedbackRightLeft.stopped,FeedbackRightRight.started,FeedbackRightRight.stopped,LineLeft.started,LineLeft.stopped,LineRight.started,LineRight.stopped,CreditLeft.started,CreditLeft.stopped,CreditRight.started,CreditRight.stopped,CorrectTuringReply,TuringtextLeft.started,TuringtextLeft.stopped,TuringtextRight.started,TuringtextRight.stopped,keyTuringLeft.keys,keyTuringLeft.corr,keyTuringLeft.rt,keyTuringLeft.started,keyTuringLeft.stopped,keyTuringRight.keys,keyTuringRight.corr,keyTuringRight.rt,keyTuringRight.started,keyTuringRight.stopped,RespTuringLeft,RespTuringRight,BlockText.started,BlockText.stopped,text_Pause.started,text_Pause.stopped,key_respPause.keys,key_respPause.started,key_respPause.stopped,key_respPause.rt,EndText.started,EndText.stopped,participant,session,date,expName,psychopyVersion,frameRate,
,,,,,,,,,,,,,,,,,,28.182956148969424,None,28.182956148969424,None,"['t', 'v']","[259.4844582463629, 353.0529899362973]",29.06099329546214,None,,,,,,,,,,,,,,,,,,,,,,,,,,,,,,,,,,,,,,,,,,,,,,,,,,,,,,,,,,,,,,,,,,,,,,,,,,,,,,,,,,,,,,,,,,,,,,,,,,,,,,,,,,,,,,,,,,15_16,001,2021_Apr_12_1219,ComputerHuman,2020.1.3,60.0187712621218,
,,,,,,,,,,,,,,,,,,,,,,,,,,382.1727278880335,None,382.1727278880335,None,449.88881746278366,None,449.88881746278366,None,450.3389581390629,None,450.3389581390629,None,v,12.35631532401112,450.3389581390629,None,None,10.058264775499993,450.3389581390629,None,12.35631532401112,13,10,False,False,False,463.3857436275457,None,463.3857436275457,None,463.3857436275457,None,463.3857436275457,None,464.3854966300878,None,464.3854966300878,None,465.38517392951417,None,"['space', 'space']","[1.602431288995831, 3.9622735442308112]",466.36833928853775,None,,,,,,,,,,,,,,,,,,,,,,,,,,,,,,,,,,,,,,,,,,,,,,,,,,,,,,,,,,,,,,,,,,,,,,15_16,001,2021_Apr_12_1219,ComputerHuman,2020.1.3,60.0187712621218,
Human.xlsx,h,Sychronize.jpg,Number6.jpg,6,Human,,,,,0,0,0,0,0,0,0,1,,,,,,,,,,,,,,,,,,,,,,,,,,,,,,,,,,,,,,,,,,,,,,,,,,,,,470.4006616324086,None,470.4006616324086,None,473.44991805779136,None,473.44991805779136,None,473.899779338245,None,473.899779338245,None,v,7.4939451941509105,473.899779338245,None,t,9.997278216332234,473.899779338245,None,7.4939451941509105,9.997278216332234,6,False,False,False,483.94732217867113,None,483.94732217867113,None,483.94732217867113,None,483.94732217867113,None,483.94732217867113,None,483.94732217867113,None,484.963766756131,None,484.963766756131,None,h,,,,,,,,,,,,,,,,,,,,,,,,,,,15_16,001,2021_Apr_12_1219,ComputerHuman,2020.1.3,60.0187712621218,
Human.xlsx,h,Sychronize.jpg,Number10.jpg,10,Human,,,,,0,0,0,0,0,1,1,8,,,,,,,,,,,,,,,,,,,,,,,,,,,,,,,,,,,,,,,,,,,,,,,,,,,,,,,,,486.0300958382204,None,486.0300958382204,None,486.463264902206,None,486.463264902206,None,v,12.06104750659324,486.463264902206,None,None,,486.463264902206,None,12.06104750659324,13,10,False,False,False,499.51006707103625,None,499.51006707103625,None,499.51006707103625,None,499.51006707103625,None,499.51006707103625,None,499.51006707103625,None,500.5097344264086,None,500.5097344264086,None,h,,,,,,,,,,,,,,,,,,,,,,,,,,,15_16,001,2021_Apr_12_1219,ComputerHuman,2020.1.3,60.0187712621218,
Human.xlsx,h,Sychronize.jpg,Number8.jpg,8,Human,,,,,0,0,0,0,0,2,2,5,,,,,,,,,,,,,,,,,,,,,,,,,,,,,,,,,,,,,,,,,,,,,,,,,,,,,,,,,501.5759162723525,None,501.5759162723525,None,502.0259456393878,None,502.0259456393878,None,v,11.02159976724488,502.0259456393878,None,t,12.196168909051266,502.0259456393878,None,11.02159976724488,12.196168909051266,8,False,False,False,514.2730463864427,None,514.2730463864427,None,514.2730463864427,None,514.2730463864427,None,514.2730463864427,None,514.2730463864427,None,515.2727185534541,None,515.2727185534541,None,h,,,,,,,,,,,,,,,,,,,,,,,,,,,15_16,001,2021_Apr_12_1219,ComputerHuman,2020.1.3,60.0187712621218,
Human.xlsx,h,Sychronize.jpg,Number10.jpg,10,Human,,,,,0,0,0,0,0,3,3,9,,,,,,,,,,,,,,,,,,,,,,,,,,,,,,,,,,,,,,,,,,,,,,,,,,,,,,,,,516.3388038458461,None,516.3388038458461,None,516.7723264048936,None,516.7723264048936,None,v,12.82952941210442,516.7723264048936,None,None,,516.7723264048936,None,12.82952941210442,13,10,True,False,False,529.8191648214024,None,529.8191648214024,None,529.8191648214024,None,529.8191648214024,None,529.8191648214024,None,529.8191648214024,None,530.8189146161867,None,530.8189146161867,None,h,,,,,,,,,,,,,,,,,,,,,,,,,,,15_16,001,2021_Apr_12_1219,ComputerHuman,2020.1.3,60.0187712621218,
Human.xlsx,h,Sychronize.jpg,Number9.jpg,9,Human,,,,,0,0,0,0,0,4,4,7,,,,,,,,,,,,,,,,,,,,,,,,,,,,,,,,,,,,,,,,,,,,,,,,,,,,,,,,,531.8852889276814,None,531.8852889276814,None,532.3185250338338,None,532.3185250338338,None,v,11.710089781971874,532.3185250338338,None,None,,532.3185250338338,None,11.710089781971874,13,9,False,False,False,545.3652726707578,None,545.3652726707578,None,545.3652726707578,None,545.3652726707578,None,545.3652726707578,None,545.3652726707578,None,546.3649496494072,None,546.3649496494072,None,h,,,,,,,,,,,,,,,,,,,,,,,,,,,15_16,001,2021_Apr_12_1219,ComputerHuman,2020.1.3,60.0187712621218,
Human.xlsx,h,Sychronize.jpg,Number9.jpg,9,Human,,,,,0,0,0,0,0,5,5,6,,,,,,,,,,,,,,,,,,,,,,,,,,,,,,,,,,,,,,,,,,,,,,,,,,,,,,,,,547.414443769745,None,547.414443769745,None,547.8645145168739,None,547.8645145168739,None,v,12.338835281886531,547.8645145168739,None,None,,547.8645145168739,None,12.338835281886531,13,9,False,False,False,560.9113131571694,None,560.9113131571694,None,560.9113131571694,None,560.9113131571694,None,560.9113131571694,None,560.9113131571694,None,561.9110703297993,None,561.9110703297993,None,h,,,,,,,,,,,,,,,,,,,,,,,,,,,15_16,001,2021_Apr_12_1219,ComputerHuman,2020.1.3,60.0187712621218,
Human.xlsx,h,Sychronize.jpg,Number6.jpg,6,Human,,,,,0,0,0,0,0,6,6,0,,,,,,,,,,,,,,,,,,,,,,,,,,,,,,,,,,,,,,,,,,,,,,,,,,,,,,,,,562.9606209066988,None,562.9606209066988,None,563.4106900499473,None,563.4106900499473,None,v,9.331619748377307,563.4106900499473,None,t,8.155454746376563,563.4106900499473,None,9.331619748377307,8.155454746376563,6,False,False,False,572.8083999023556,None,572.8083999023556,None,572.8083999023556,None,572.8083999023556,None,572.8083999023556,None,572.8083999023556,None,573.824875595079,None,573.824875595079,None,h,,,,,,,,,,,,,,,,,,,,,,,,,,,15_16,001,2021_Apr_12_1219,ComputerHuman,2020.1.3,60.0187712621218,
Human.xlsx,h,Sychronize.jpg,Number7.jpg,7,Human,,,,,0,0,0,0,0,7,7,3,,,,,,,,,,,,,,,,,,,,,,,,,,,,,,,,,,,,,,,,,,,,,,,,,,,,,,,,,574.8745519161384,None,574.8745519161384,None,575.3244449534086,None,575.3244449534086,None,v,9.748836625937656,575.3244449534086,None,t,10.620906057243701,575.3244449534086,None,9.748836625937656,10.620906057243701,7,False,False,False,586.0217569474444,None,586.0217569474444,None,586.0217569474444,None,586.0217569474444,None,586.0217569474444,None,586.0217569474444,None,587.0215125161949,None,587.0215125161949,None,h,,,,,,,,,,,,,,,,,,,,,,,,,,,15_16,001,2021_Apr_12_1219,ComputerHuman,2020.1.3,60.0187712621218,
Human.xlsx,h,Sychronize.jpg,Number8.jpg,8,Human,,,,,0,0,0,0,0,8,8,4,,,,,,,,,,,,,,,,,,,,,,,,,,,,,,,,,,,,,,,,,,,,,,,,,,,,,,,,,588.0712478600235,None,588.0712478600235,None,588.5211530867782,None,588.5211530867782,None,v,12.130861177484803,588.5211530867782,None,t,12.858042541944087,588.5211530867782,None,12.130861177484803,12.858042541944087,8,False,False,False,601.4512367675916,None,601.4512367675916,None,601.4512367675916,None,601.4512367675916,None,601.4512367675916,None,601.4512367675916,None,602.4510038842755,None,602.4510038842755,None,h,,,,,,,,,,,,,,,,,,,,,,,,,,,15_16,001,2021_Apr_12_1219,ComputerHuman,2020.1.3,60.0187712621218,
Human.xlsx,h,Sychronize.jpg,Number7.jpg,7,Human,,,,,0,0,0,0,0,9,9,2,,,,,,,,,,,,,,,,,,,,,,,,,,,,,,,,,,,,,,,,,,,,,,,,,,,,,,,,,603.5006763560232,None,603.5006763560232,None,603.950335547649,None,603.950335547649,None,v,10.712596004223087,603.950335547649,None,t,9.664317945391304,603.950335547649,None,10.712596004223087,9.664317945391304,7,False,False,False,614.7146018160402,None,614.7146018160402,None,614.7146018160402,None,614.7146018160402,None,614.7146018160402,None,614.7146018160402,None,615.7142710960688,None,615.7142710960688,None,h,,,,,,,,,,,,,,,,,,,,,,,,,,,15_16,001,2021_Apr_12_1219,ComputerHuman,2020.1.3,60.0187712621218,
Human.xlsx,h,,,,,,,,,0,0,0,0,,,,,,,,,,,,,,,,,,,,,,,,,,,,,,,,,,,,,,,,,,,,,,,,,,,,,,,,,,,,,,,,,,,,,,,,,,,,,,,,,,,,,,,,,,,,,,,,,,,h,616.714102047159,None,616.714102047159,None,a,0,23.382679255196308,616.714102047159,None,l,0,13.166957129260481,616.714102047159,None,c,c,640.1582002674622,None,None,None,None,None,None,,,,15_16,001,2021_Apr_12_1219,ComputerHuman,2020.1.3,60.0187712621218,
Human.xlsx,h,Sychronize.jpg,Number8.jpg,8,Human,,,,,0,1,1,2,0,0,0,4,,,,,,,,,,,,,,,,,,,,,,,,,,,,,,,,,,,,,,,,,,,,,,,,,,,,,645.1736517226782,None,645.1736517226782,None,648.2392237736012,None,648.2392237736012,None,648.6727046317792,None,648.6727046317792,None,v,11.338522525365988,648.6727046317792,None,None,,648.6727046317792,None,11.338522525365988,13,8,False,False,False,661.7194859501751,None,661.7194859501751,None,661.7194859501751,None,661.7194859501751,None,661.7194859501751,None,661.7194859501751,None,662.7191834584837,None,662.7191834584837,None,h,,,,,,,,,,,,,,,,,,,,,,,,,,,15_16,001,2021_Apr_12_1219,ComputerHuman,2020.1.3,60.0187712621218,
Human.xlsx,h,Sychronize.jpg,Number7.jpg,7,Human,,,,,0,1,1,2,0,1,1,2,,,,,,,,,,,,,,,,,,,,,,,,,,,,,,,,,,,,,,,,,,,,,,,,,,,,,,,,,663.7686721256305,None,663.7686721256305,None,664.2186527347267,None,664.2186527347267,None,v,10.087408871570915,664.2186527347267,None,t,9.038338816998476,664.2186527347267,None,10.087408871570915,9.038338816998476,7,False,False,False,674.3663155132681,None,674.3663155132681,None,674.3663155132681,None,674.3663155132681,None,674.3663155132681,None,674.3663155132681,None,675.3827658646942,None,675.3827658646942,None,h,,,,,,,,,,,,,,,,,,,,,,,,,,,15_16,001,2021_Apr_12_1219,ComputerHuman,2020.1.3,60.0187712621218,
Human.xlsx,h,Sychronize.jpg,Number8.jpg,8,Human,,,,,0,1,1,2,0,2,2,5,,,,,,,,,,,,,,,,,,,,,,,,,,,,,,,,,,,,,,,,,,,,,,,,,,,,,,,,,676.4322153971798,None,676.4322153971798,None,676.8824458907156,None,676.8824458907156,None,v,11.75838131339151,676.8824458907156,None,t,11.746109709854863,676.8824458907156,None,11.75838131339151,11.746109709854863,8,True,False,False,688.6960972156321,None,688.6960972156321,None,688.6960972156321,None,688.6960972156321,None,688.6960972156321,None,688.6960972156321,None,689.7125231880891,None,689.7125231880891,None,h,,,,,,,,,,,,,,,,,,,,,,,,,,,15_16,001,2021_Apr_12_1219,ComputerHuman,2020.1.3,60.0187712621218,
Human.xlsx,h,Sychronize.jpg,Number6.jpg,6,Human,,,,,0,1,1,2,0,3,3,1,,,,,,,,,,,,,,,,,,,,,,,,,,,,,,,,,,,,,,,,,,,,,,,,,,,,,,,,,690.7453510748073,None,690.7453510748073,None,691.2121233409061,None,691.2121233409061,None,v,8.255832267554979,691.2121233409061,None,t,8.467426969747976,691.2121233409061,None,8.255832267554979,8.467426969747976,6,True,False,False,699.7433314696245,None,699.7433314696245,None,699.7433314696245,None,699.7433314696245,None,699.7433314696245,None,699.7433314696245,None,700.7430203169843,None,700.7430203169843,None,h,,,,,,,,,,,,,,,,,,,,,,,,,,,15_16,001,2021_Apr_12_1219,ComputerHuman,2020.1.3,60.0187712621218,
Human.xlsx,h,Sychronize.jpg,Number7.jpg,7,Human,,,,,0,1,1,2,0,4,4,3,,,,,,,,,,,,,,,,,,,,,,,,,,,,,,,,,,,,,,,,,,,,,,,,,,,,,,,,,701.8092451469001,None,701.8092451469001,None,702.2593640104169,None,702.2593640104169,None,v,9.907678445237252,702.2593640104169,None,t,9.319385354847327,702.2593640104169,None,9.907678445237252,9.319385354847327,7,False,False,False,712.2235506622255,None,712.2235506622255,None,712.2235506622255,None,712.2235506622255,None,712.2235506622255,None,712.2235506622255,None,713.2232225084608,None,713.2232225084608,None,h,,,,,,,,,,,,,,,,,,,,,,,,,,,15_16,001,2021_Apr_12_1219,ComputerHuman,2020.1.3,60.0187712621218,
Human.xlsx,h,Sychronize.jpg,Number9.jpg,9,Human,,,,,0,1,1,2,0,5,5,6,,,,,,,,,,,,,,,,,,,,,,,,,,,,,,,,,,,,,,,,,,,,,,,,,,,,,,,,,714.289492567782,None,714.289492567782,None,714.722876872409,None,714.722876872409,None,v,12.89486216419209,714.722876872409,None,t,12.802087994607973,714.722876872409,None,12.89486216419209,12.802087994607973,9,True,False,False,727.6696553358988,None,727.6696553358988,None,727.6696553358988,None,727.6696553358988,None,727.6696553358988,None,727.6696553358988,None,728.6693682414516,None,728.6693682414516,None,h,,,,,,,,,,,,,,,,,,,,,,,,,,,15_16,001,2021_Apr_12_1219,ComputerHuman,2020.1.3,60.0187712621218,
Human.xlsx,h,Sychronize.jpg,Number6.jpg,6,Human,,,,,0,1,1,2,0,6,6,0,,,,,,,,,,,,,,,,,,,,,,,,,,,,,,,,,,,,,,,,,,,,,,,,,,,,,,,,,729.7356052608529,None,729.7356052608529,None,730.1690290209181,None,730.1690290209181,None,v,7.7998409592992175,730.1690290209181,None,t,9.415359584992984,730.1690290209181,None,7.7998409592992175,9.415359584992984,6,False,False,False,739.6333476720165,None,739.6333476720165,None,739.6333476720165,None,739.6333476720165,None,739.6333476720165,None,739.6333476720165,None,740.6497252073086,None,740.6497252073086,None,h,,,,,,,,,,,,,,,,,,,,,,,,,,,15_16,001,2021_Apr_12_1219,ComputerHuman,2020.1.3,60.0187712621218,
Human.xlsx,h,Sychronize.jpg,Number9.jpg,9,Human,,,,,0,1,1,2,0,7,7,7,,,,,,,,,,,,,,,,,,,,,,,,,,,,,,,,,,,,,,,,,,,,,,,,,,,,,,,,,741.6826676110304,None,741.6826676110304,None,742.1492432414916,None,742.1492432414916,None,v,11.830420527606293,742.1492432414916,None,t,10.533235432522815,742.1492432414916,None,11.830420527606293,10.533235432522815,9,False,False,False,754.0464634294594,None,754.0464634294594,None,754.0464634294594,None,754.0464634294594,None,754.0464634294594,None,754.0464634294594,None,755.0461747311329,None,755.0461747311329,None,h,,,,,,,,,,,,,,,,,,,,,,,,,,,15_16,001,2021_Apr_12_1219,ComputerHuman,2020.1.3,60.0187712621218,
Human.xlsx,h,Sychronize.jpg,Number10.jpg,10,Human,,,,,0,1,1,2,0,8,8,8,,,,,,,,,,,,,,,,,,,,,,,,,,,,,,,,,,,,,,,,,,,,,,,,,,,,,,,,,756.0955148790299,None,756.0955148790299,None,756.5458092069739,None,756.5458092069739,None,None,,756.5458092069739,None,None,,756.5458092069739,None,13,13,10,True,False,False,769.5924926887146,None,769.5924926887146,None,769.5924926887146,None,769.5924926887146,None,769.5924926887146,None,769.5924926887146,None,770.6089561919534,None,770.6089561919534,None,h,,,,,,,,,,,,,,,,,,,,,,,,,,,15_16,001,2021_Apr_12_1219,ComputerHuman,2020.1.3,60.0187712621218,
Human.xlsx,h,Sychronize.jpg,Number10.jpg,10,Human,,,,,0,1,1,2,0,9,9,9,,,,,,,,,,,,,,,,,,,,,,,,,,,,,,,,,,,,,,,,,,,,,,,,,,,,,,,,,771.6587778245039,None,771.6587778245039,None,772.1085807237405,None,772.1085807237405,None,None,,772.1085807237405,None,None,,772.1085807237405,None,13,13,10,True,False,False,785.1719862541095,None,785.1719862541095,None,785.1719862541095,None,785.1719862541095,None,785.1719862541095,None,785.1719862541095,None,786.1718114312343,None,786.1718114312343,None,h,,,,,,,,,,,,,,,,,,,,,,,,,,,15_16,001,2021_Apr_12_1219,ComputerHuman,2020.1.3,60.0187712621218,
Human.xlsx,h,,,,,,,,,0,1,1,2,,,,,,,,,,,,,,,,,,,,,,,,,,,,,,,,,,,,,,,,,,,,,,,,,,,,,,,,,,,,,,,,,,,,,,,,,,,,,,,,,,,,,,,,,,,,,,,,,,,h,787.1715156758373,None,787.1715156758373,None,a,0,15.17608737422779,787.1715156758373,None,o,1,4.124835401856217,787.1715156758373,None,c,h,802.4010055041936,None,None,None,None,None,None,,,,15_16,001,2021_Apr_12_1219,ComputerHuman,2020.1.3,60.0187712621218,
Computer.xlsx,c,Sychronize.jpg,Number8.jpg,8,Computer,,,,,0,2,2,9,0,0,0,4,,,,,,,,,,,,,,,,,,,,,,,,,,,,,,,,,,,,,,,,,,,,,,,,,,,,,807.4164476569076,None,807.4164476569076,None,810.4820825799106,None,810.4820825799106,None,810.9322171614467,None,810.9322171614467,None,None,,810.9322171614467,None,t,9.313174491513564,810.9322171614467,None,13,9.313174491513564,8,False,False,False,823.9788862082714,None,823.9788862082714,None,823.9788862082714,None,823.9788862082714,None,823.9788862082714,None,823.9788862082714,None,824.9953609386666,None,824.9953609386666,None,c,,,,,,,,,,,,,,,,,,,,,,,,,,,15_16,001,2021_Apr_12_1219,ComputerHuman,2020.1.3,60.0187712621218,
Computer.xlsx,c,Sychronize.jpg,Number10.jpg,10,Computer,,,,,0,2,2,9,0,1,1,9,,,,,,,,,,,,,,,,,,,,,,,,,,,,,,,,,,,,,,,,,,,,,,,,,,,,,,,,,826.0281548231378,None,826.0281548231378,None,826.4949816211429,None,826.4949816211429,None,None,,826.4949816211429,None,None,,826.4949816211429,None,13,13,10,False,False,False,839.5417183516865,None,839.5417183516865,None,839.5417183516865,None,839.5417183516865,None,839.5417183516865,None,839.5417183516865,None,840.5580843390453,None,840.5580843390453,None,c,,,,,,,,,,,,,,,,,,,,,,,,,,,15_16,001,2021_Apr_12_1219,ComputerHuman,2020.1.3,60.0187712621218,
Computer.xlsx,c,Sychronize.jpg,Number8.jpg,8,Computer,,,,,0,2,2,9,0,2,2,5,,,,,,,,,,,,,,,,,,,,,,,,,,,,,,,,,,,,,,,,,,,,,,,,,,,,,,,,,841.6079502386729,None,841.6079502386729,None,842.0577755922241,None,842.0577755922241,None,v,10.913800132865617,842.0577755922241,None,t,11.201190656053768,842.0577755922241,None,10.913800132865617,11.201190656053768,8,False,False,False,853.3382870758414,None,853.3382870758414,None,853.3382870758414,None,853.3382870758414,None,853.3382870758414,None,853.3382870758414,None,854.3380362290736,None,854.3380362290736,None,c,,,,,,,,,,,,,,,,,,,,,,,,,,,15_16,001,2021_Apr_12_1219,ComputerHuman,2020.1.3,60.0187712621218,
Computer.xlsx,c,Sychronize.jpg,Number7.jpg,7,Computer,,,,,0,2,2,9,0,3,3,2,,,,,,,,,,,,,,,,,,,,,,,,,,,,,,,,,,,,,,,,,,,,,,,,,,,,,,,,,855.3876884919391,None,855.3876884919391,None,855.8376614024128,None,855.8376614024128,None,v,10.6807115194797,855.8376614024128,None,t,8.616392740071205,855.8376614024128,None,10.6807115194797,8.616392740071205,7,False,False,False,866.5683122792052,None,866.5683122792052,None,866.5683122792052,None,866.5683122792052,None,866.5683122792052,None,866.5683122792052,None,867.5679921448391,None,867.5679921448391,None,c,,,,,,,,,,,,,,,,,,,,,,,,,,,15_16,001,2021_Apr_12_1219,ComputerHuman,2020.1.3,60.0187712621218,
Computer.xlsx,c,Sychronize.jpg,Number9.jpg,9,Computer,,,,,0,2,2,9,0,4,4,7,,,,,,,,,,,,,,,,,,,,,,,,,,,,,,,,,,,,,,,,,,,,,,,,,,,,,,,,,868.6341595558661,None,868.6341595558661,None,869.0843592549145,None,869.0843592549145,None,v,12.404847437369426,869.0843592549145,None,None,,869.0843592549145,None,12.404847437369426,13,9,False,False,False,882.131094381577,None,882.131094381577,None,882.131094381577,None,882.131094381577,None,882.131094381577,None,882.131094381577,None,883.1308640644675,None,883.1308640644675,None,c,,,,,,,,,,,,,,,,,,,,,,,,,,,15_16,001,2021_Apr_12_1219,ComputerHuman,2020.1.3,60.0187712621218,
Computer.xlsx,c,Sychronize.jpg,Number7.jpg,7,Computer,,,,,0,2,2,9,0,5,5,3,,,,,,,,,,,,,,,,,,,,,,,,,,,,,,,,,,,,,,,,,,,,,,,,,,,,,,,,,884.2138904954409,None,884.2138904954409,None,884.6470143300221,None,884.6470143300221,None,v,11.940951248155216,884.6470143300221,None,None,,884.6470143300221,None,11.940951248155216,13,7,False,False,False,897.6938444063571,None,897.6938444063571,None,897.6938444063571,None,897.6938444063571,None,897.6938444063571,None,897.6938444063571,None,898.6936368643383,None,898.6936368643383,None,c,,,,,,,,,,,,,,,,,,,,,,,,,,,15_16,001,2021_Apr_12_1219,ComputerHuman,2020.1.3,60.0187712621218,
Computer.xlsx,c,Sychronize.jpg,Number6.jpg,6,Computer,,,,,0,2,2,9,0,6,6,1,,,,,,,,,,,,,,,,,,,,,,,,,,,,,,,,,,,,,,,,,,,,,,,,,,,,,,,,,899.743067150268,None,899.743067150268,None,900.193167729557,None,900.193167729557,None,v,10.917560909732856,900.193167729557,None,t,9.861311248552738,900.193167729557,None,10.917560909732856,9.861311248552738,6,False,False,False,911.1738294325378,None,911.1738294325378,None,911.1738294325378,None,911.1738294325378,None,911.1738294325378,None,911.1738294325378,None,912.1735128267055,None,912.1735128267055,None,c,,,,,,,,,,,,,,,,,,,,,,,,,,,15_16,001,2021_Apr_12_1219,ComputerHuman,2020.1.3,60.0187712621218,
Computer.xlsx,c,Sychronize.jpg,Number6.jpg,6,Computer,,,,,0,2,2,9,0,7,7,0,,,,,,,,,,,,,,,,,,,,,,,,,,,,,,,,,,,,,,,,,,,,,,,,,,,,,,,,,913.2230557049834,None,913.2230557049834,None,913.6731142626268,None,913.6731142626268,None,v,8.308812901351303,913.6731142626268,None,t,10.040299399411197,913.6731142626268,None,8.308812901351303,10.040299399411197,6,False,False,False,923.7701772062401,None,923.7701772062401,None,923.7701772062401,None,923.7701772062401,None,923.7701772062401,None,923.7701772062401,None,924.7870160173034,None,924.7870160173034,None,c,,,,,,,,,,,,,,,,,,,,,,,,,,,15_16,001,2021_Apr_12_1219,ComputerHuman,2020.1.3,60.0187712621218,
Computer.xlsx,c,Sychronize.jpg,Number9.jpg,9,Computer,,,,,0,2,2,9,0,8,8,6,,,,,,,,,,,,,,,,,,,,,,,,,,,,,,,,,,,,,,,,,,,,,,,,,,,,,,,,,925.836538365922,None,925.836538365922,None,926.2867037419464,None,926.2867037419464,None,v,11.489904379906875,926.2867037419464,None,t,7.965430300044318,926.2867037419464,None,11.489904379906875,7.965430300044318,9,False,False,False,937.8338088836317,None,937.8338088836317,None,937.8338088836317,None,937.8338088836317,None,937.8338088836317,None,937.8338088836317,None,938.8502547441949,None,938.8502547441949,None,c,,,,,,,,,,,,,,,,,,,,,,,,,,,15_16,001,2021_Apr_12_1219,ComputerHuman,2020.1.3,60.0187712621218,
Computer.xlsx,c,Sychronize.jpg,Number10.jpg,10,Computer,,,,,0,2,2,9,0,9,9,8,,,,,,,,,,,,,,,,,,,,,,,,,,,,,,,,,,,,,,,,,,,,,,,,,,,,,,,,,939.8999063655092,None,939.8999063655092,None,940.3499366948718,None,940.3499366948718,None,v,12.733413078226477,940.3499366948718,None,t,8.601358614324454,940.3499366948718,None,12.733413078226477,8.601358614324454,10,False,False,False,953.1633294743988,None,953.1633294743988,None,953.1633294743988,None,953.1633294743988,None,953.1633294743988,None,953.1633294743988,None,954.1630949872024,None,954.1630949872024,None,c,,,,,,,,,,,,,,,,,,,,,,,,,,,15_16,001,2021_Apr_12_1219,ComputerHuman,2020.1.3,60.0187712621218,
Computer.xlsx,c,,,,,,,,,0,2,2,9,,,,,,,,,,,,,,,,,,,,,,,,,,,,,,,,,,,,,,,,,,,,,,,,,,,,,,,,,,,,,,,,,,,,,,,,,,,,,,,,,,,,,,,,,,,,,,,,,,,c,955.1629060501864,None,955.1629060501864,None,q,0,3.7119961532553134,955.1629060501864,None,o,0,3.9427867279600832,955.1629060501864,None,h,h,959.1617679372275,None,None,None,None,None,None,,,,15_16,001,2021_Apr_12_1219,ComputerHuman,2020.1.3,60.0187712621218,
Computer.xlsx,c,Sychronize.jpg,Number6.jpg,6,Computer,,,,,0,3,3,3,0,0,0,0,,,,,,,,,,,,,,,,,,,,,,,,,,,,,,,,,,,,,,,,,,,,,,,,,,,,,964.1604594922565,None,964.1604594922565,None,967.2430339499606,None,967.2430339499606,None,967.6763650057846,None,967.6763650057846,None,v,9.060994578566351,967.6763650057846,None,t,9.728263020855593,967.6763650057846,None,9.060994578566351,9.728263020855593,6,False,False,False,977.4570424909398,None,977.4570424909398,None,977.4570424909398,None,977.4570424909398,None,977.4570424909398,None,977.4570424909398,None,978.456787153309,None,978.456787153309,None,c,,,,,,,,,,,,,,,,,,,,,,,,,,,15_16,001,2021_Apr_12_1219,ComputerHuman,2020.1.3,60.0187712621218,
Computer.xlsx,c,Sychronize.jpg,Number7.jpg,7,Computer,,,,,0,3,3,3,0,1,1,3,,,,,,,,,,,,,,,,,,,,,,,,,,,,,,,,,,,,,,,,,,,,,,,,,,,,,,,,,979.5061375660352,None,979.5061375660352,None,979.9559719013123,None,979.9559719013123,None,v,8.400522415660816,979.9559719013123,None,t,9.651400619931337,979.9559719013123,None,8.400522415660816,9.651400619931337,7,False,False,False,989.670881983011,None,989.670881983011,None,989.670881983011,None,989.670881983011,None,989.670881983011,None,989.670881983011,None,990.6872838972731,None,990.6872838972731,None,c,,,,,,,,,,,,,,,,,,,,,,,,,,,15_16,001,2021_Apr_12_1219,ComputerHuman,2020.1.3,60.0187712621218,
Computer.xlsx,c,Sychronize.jpg,Number10.jpg,10,Computer,,,,,0,3,3,3,0,2,2,8,,,,,,,,,,,,,,,,,,,,,,,,,,,,,,,,,,,,,,,,,,,,,,,,,,,,,,,,,991.7367789799382,None,991.7367789799382,None,992.1869164484588,None,992.1869164484588,None,v,11.856352373629306,992.1869164484588,None,t,11.75113530616909,992.1869164484588,None,11.856352373629306,11.75113530616909,10,False,False,False,1004.1172573915592,None,1004.1172573915592,None,1004.1172573915592,None,1004.1172573915592,None,1004.1172573915592,None,1004.1172573915592,None,1005.1170174511717,None,1005.1170174511717,None,c,,,,,,,,,,,,,,,,,,,,,,,,,,,15_16,001,2021_Apr_12_1219,ComputerHuman,2020.1.3,60.0187712621218,
Computer.xlsx,c,Sychronize.jpg,Number9.jpg,9,Computer,,,,,0,3,3,3,0,3,3,7,,,,,,,,,,,,,,,,,,,,,,,,,,,,,,,,,,,,,,,,,,,,,,,,,,,,,,,,,1006.1664689083127,None,1006.1664689083127,None,1006.6166365297686,None,1006.6166365297686,None,v,12.717289276685733,1006.6166365297686,None,t,8.905393558370633,1006.6166365297686,None,12.717289276685733,8.905393558370633,9,False,False,True,1019.4134272308602,None,1019.4134272308602,None,1019.4134272308602,None,1019.4134272308602,None,1019.4134272308602,None,1019.4134272308602,None,1020.4131205690819,None,1020.4131205690819,None,c,,,,,,,,,,,,,,,,,,,,,,,,,,,15_16,001,2021_Apr_12_1219,ComputerHuman,2020.1.3,60.0187712621218,
Computer.xlsx,c,Sychronize.jpg,Number8.jpg,8,Computer,,,,,0,3,3,3,0,4,4,5,,,,,,,,,,,,,,,,,,,,,,,,,,,,,,,,,,,,,,,,,,,,,,,,,,,,,,,,,1021.4625938389845,None,1021.4625938389845,None,1021.9128172754508,None,1021.9128172754508,None,v,9.592157477880392,1021.9128172754508,None,t,8.659359070468781,1021.9128172754508,None,9.592157477880392,8.659359070468781,8,False,False,False,1031.5603762829833,None,1031.5603762829833,None,1031.5603762829833,None,1031.5603762829833,None,1031.5603762829833,None,1031.5603762829833,None,1032.5601533437193,None,1032.5601533437193,None,c,,,,,,,,,,,,,,,,,,,,,,,,,,,15_16,001,2021_Apr_12_1219,ComputerHuman,2020.1.3,60.0187712621218,
Computer.xlsx,c,Sychronize.jpg,Number6.jpg,6,Computer,,,,,0,3,3,3,0,5,5,1,,,,,,,,,,,,,,,,,,,,,,,,,,,,,,,,,,,,,,,,,,,,,,,,,,,,,,,,,1033.6095996684453,None,1033.6095996684453,None,1034.05942790898,None,1034.05942790898,None,v,8.040780563288536,1034.05942790898,None,t,6.028611928822102,1034.05942790898,None,8.040780563288536,6.028611928822102,6,False,False,True,1042.1575089953585,None,1042.1575089953585,None,1042.1575089953585,None,1042.1575089953585,None,1042.1575089953585,None,1042.1575089953585,None,1043.1741434721616,None,1043.1741434721616,None,c,,,,,,,,,,,,,,,,,,,,,,,,,,,15_16,001,2021_Apr_12_1219,ComputerHuman,2020.1.3,60.0187712621218,
Computer.xlsx,c,Sychronize.jpg,Number7.jpg,7,Computer,,,,,0,3,3,3,0,6,6,2,,,,,,,,,,,,,,,,,,,,,,,,,,,,,,,,,,,,,,,,,,,,,,,,,,,,,,,,,1044.1903400898364,None,1044.1903400898364,None,1044.6571296778347,None,1044.6571296778347,None,v,8.394089896168225,1044.6571296778347,None,t,7.857427293732144,1044.6571296778347,None,8.394089896168225,7.857427293732144,7,False,False,False,1053.1216257180167,None,1053.1216257180167,None,1053.1216257180167,None,1053.1216257180167,None,1053.1216257180167,None,1053.1216257180167,None,1054.1214156097894,None,1054.1214156097894,None,c,,,,,,,,,,,,,,,,,,,,,,,,,,,15_16,001,2021_Apr_12_1219,ComputerHuman,2020.1.3,60.0187712621218,
Computer.xlsx,c,Sychronize.jpg,Number10.jpg,10,Computer,,,,,0,3,3,3,0,7,7,9,,,,,,,,,,,,,,,,,,,,,,,,,,,,,,,,,,,,,,,,,,,,,,,,,,,,,,,,,1055.1541786997732,None,1055.1541786997732,None,1055.6209827226876,None,1055.6209827226876,None,v,11.63306089834623,1055.6209827226876,None,t,8.760323611578315,1055.6209827226876,None,11.63306089834623,8.760323611578315,10,False,False,False,1067.3180278311602,None,1067.3180278311602,None,1067.3180278311602,None,1067.3180278311602,None,1067.3180278311602,None,1067.3180278311602,None,1068.3345461870804,None,1068.3345461870804,None,c,,,,,,,,,,,,,,,,,,,,,,,,,,,15_16,001,2021_Apr_12_1219,ComputerHuman,2020.1.3,60.0187712621218,
Computer.xlsx,c,Sychronize.jpg,Number9.jpg,9,Computer,,,,,0,3,3,3,0,8,8,6,,,,,,,,,,,,,,,,,,,,,,,,,,,,,,,,,,,,,,,,,,,,,,,,,,,,,,,,,1069.3841785618388,None,1069.3841785618388,None,1069.8341020728212,None,1069.8341020728212,None,v,11.686858227629273,1069.8341020728212,None,t,12.046085876204415,1069.8341020728212,None,11.686858227629273,12.046085876204415,9,False,False,False,1081.9307784814528,None,1081.9307784814528,None,1081.9307784814528,None,1081.9307784814528,None,1081.9307784814528,None,1081.9307784814528,None,1082.9306665306576,None,1082.9306665306576,None,c,,,,,,,,,,,,,,,,,,,,,,,,,,,15_16,001,2021_Apr_12_1219,ComputerHuman,2020.1.3,60.0187712621218,
Computer.xlsx,c,Sychronize.jpg,Number8.jpg,8,Computer,,,,,0,3,3,3,0,9,9,4,,,,,,,,,,,,,,,,,,,,,,,,,,,,,,,,,,,,,,,,,,,,,,,,,,,,,,,,,1083.9972487049472,None,1083.9972487049472,None,1084.430336291849,None,1084.430336291849,None,v,10.17752445034239,1084.430336291849,None,t,8.597317479304365,1084.430336291849,None,10.17752445034239,8.597317479304365,8,False,False,False,1094.6612522899386,None,1094.6612522899386,None,1094.6612522899386,None,1094.6612522899386,None,1094.6612522899386,None,1094.6612522899386,None,1095.6609696863543,None,1095.6609696863543,None,c,,,,,,,,,,,,,,,,,,,,,,,,,,,15_16,001,2021_Apr_12_1219,ComputerHuman,2020.1.3,60.0187712621218,
Computer.xlsx,c,,,,,,,,,0,3,3,3,,,,,,,,,,,,,,,,,,,,,,,,,,,,,,,,,,,,,,,,,,,,,,,,,,,,,,,,,,,,,,,,,,,,,,,,,,,,,,,,,,,,,,,,,,,,,,,,,,,c,1096.6606819503559,None,1096.6606819503559,None,q,0,5.36657919107347,1096.6606819503559,None,l,1,3.2779016507447523,1096.6606819503559,None,h,c,None,None,1102.0926914093961,None,"['space', 'space']",1103.075818916861,None,"[2.8871574474060253, 4.030974764237726]",,,15_16,001,2021_Apr_12_1219,ComputerHuman,2020.1.3,60.0187712621218,
Human.xlsx,h,Sychronize.jpg,Number7.jpg,7,Human,,,,,0,4,4,4,0,0,0,2,,,,,,,,,,,,,,,,,,,,,,,,,,,,,,,,,,,,,,,,,,,,,,,,,,,,,1107.158146056332,None,1107.158146056332,None,1110.223761091228,None,1110.223761091228,None,1110.6572342507843,None,1110.6572342507843,None,v,10.008505052701366,1110.6572342507843,None,t,8.956313206889718,1110.6572342507843,None,10.008505052701366,8.956313206889718,7,False,False,False,1120.7381227102605,None,1120.7381227102605,None,1120.7381227102605,None,1120.7381227102605,None,1120.7381227102605,None,1120.7381227102605,None,1121.737862881767,None,1121.737862881767,None,h,,,,,,,,,,,,,,,,,,,,,,,,,,,15_16,001,2021_Apr_12_1219,ComputerHuman,2020.1.3,60.0187712621218,
Human.xlsx,h,Sychronize.jpg,Number9.jpg,9,Human,,,,,0,4,4,4,0,1,1,7,,,,,,,,,,,,,,,,,,,,,,,,,,,,,,,,,,,,,,,,,,,,,,,,,,,,,,,,,1122.7705483439777,None,1122.7705483439777,None,1123.2374912628657,None,1123.2374912628657,None,v,12.027115509162286,1123.2374912628657,None,t,10.642145272357084,1123.2374912628657,None,12.027115509162286,10.642145272357084,9,False,False,False,1135.3177782674957,None,1135.3177782674957,None,1135.3177782674957,None,1135.3177782674957,None,1135.3177782674957,None,1135.3177782674957,None,1136.334011132849,None,1136.334011132849,None,h,,,,,,,,,,,,,,,,,,,,,,,,,,,15_16,001,2021_Apr_12_1219,ComputerHuman,2020.1.3,60.0187712621218,
Human.xlsx,h,Sychronize.jpg,Number6.jpg,6,Human,,,,,0,4,4,4,0,2,2,1,,,,,,,,,,,,,,,,,,,,,,,,,,,,,,,,,,,,,,,,,,,,,,,,,,,,,,,,,1137.3839241865362,None,1137.3839241865362,None,1137.8338842659732,None,1137.8338842659732,None,v,8.421629791871055,1137.8338842659732,None,t,8.889613949389968,1137.8338842659732,None,8.421629791871055,8.889613949389968,6,False,False,False,1146.781515351854,None,1146.781515351854,None,1146.781515351854,None,1146.781515351854,None,1146.781515351854,None,1146.781515351854,None,1147.781267392069,None,1147.781267392069,None,h,,,,,,,,,,,,,,,,,,,,,,,,,,,15_16,001,2021_Apr_12_1219,ComputerHuman,2020.1.3,60.0187712621218,
Human.xlsx,h,Sychronize.jpg,Number9.jpg,9,Human,,,,,0,4,4,4,0,3,3,6,,,,,,,,,,,,,,,,,,,,,,,,,,,,,,,,,,,,,,,,,,,,,,,,,,,,,,,,,1148.8308631983728,None,1148.8308631983728,None,1149.2808280894487,None,1149.2808280894487,None,v,12.01371926525644,1149.2808280894487,None,t,10.749165742029618,1149.2808280894487,None,12.01371926525644,10.749165742029618,9,False,False,False,1161.34458871876,None,1161.34458871876,None,1161.34458871876,None,1161.34458871876,None,1161.34458871876,None,1161.34458871876,None,1162.3443041905202,None,1162.3443041905202,None,h,,,,,,,,,,,,,,,,,,,,,,,,,,,15_16,001,2021_Apr_12_1219,ComputerHuman,2020.1.3,60.0187712621218,
Human.xlsx,h,Sychronize.jpg,Number6.jpg,6,Human,,,,,0,4,4,4,0,4,4,0,,,,,,,,,,,,,,,,,,,,,,,,,,,,,,,,,,,,,,,,,,,,,,,,,,,,,,,,,1163.393865673801,None,1163.393865673801,None,1163.8439287223073,None,1163.8439287223073,None,v,7.92204760250479,1163.8439287223073,None,t,9.124348784788708,1163.8439287223073,None,7.92204760250479,9.124348784788708,6,False,False,False,1173.0250333526756,None,1173.0250333526756,None,1173.0250333526756,None,1173.0250333526756,None,1173.0250333526756,None,1173.0250333526756,None,1174.0414163411588,None,1174.0414163411588,None,h,,,,,,,,,,,,,,,,,,,,,,,,,,,15_16,001,2021_Apr_12_1219,ComputerHuman,2020.1.3,60.0187712621218,
Human.xlsx,h,Sychronize.jpg,Number10.jpg,10,Human,,,,,0,4,4,4,0,5,5,9,,,,,,,,,,,,,,,,,,,,,,,,,,,,,,,,,,,,,,,,,,,,,,,,,,,,,,,,,1175.0911946689603,None,1175.0911946689603,None,1175.5409921150067,None,1175.5409921150067,None,None,,1175.5409921150067,None,None,,1175.5409921150067,None,13,13,10,True,False,False,1188.5878077564257,None,1188.5878077564257,None,1188.5878077564257,None,1188.5878077564257,None,1188.5878077564257,None,1188.5878077564257,None,1189.6041500063666,None,1189.6041500063666,None,h,,,,,,,,,,,,,,,,,,,,,,,,,,,15_16,001,2021_Apr_12_1219,ComputerHuman,2020.1.3,60.0187712621218,
Human.xlsx,h,Sychronize.jpg,Number7.jpg,7,Human,,,,,0,4,4,4,0,6,6,3,,,,,,,,,,,,,,,,,,,,,,,,,,,,,,,,,,,,,,,,,,,,,,,,,,,,,,,,,1190.6536447682565,None,1190.6536447682565,None,1191.1038649969632,None,1191.1038649969632,None,v,9.023406056441672,1191.1038649969632,None,t,9.934346471994104,1191.1038649969632,None,9.023406056441672,9.934346471994104,7,False,False,False,1201.1180397640237,None,1201.1180397640237,None,1201.1180397640237,None,1201.1180397640237,None,1201.1180397640237,None,1201.1180397640237,None,1202.1177671044934,None,1202.1177671044934,None,h,,,,,,,,,,,,,,,,,,,,,,,,,,,15_16,001,2021_Apr_12_1219,ComputerHuman,2020.1.3,60.0187712621218,
Human.xlsx,h,Sychronize.jpg,Number10.jpg,10,Human,,,,,0,4,4,4,0,7,7,8,,,,,,,,,,,,,,,,,,,,,,,,,,,,,,,,,,,,,,,,,,,,,,,,,,,,,,,,,1203.167293623199,None,1203.167293623199,None,1203.6173441614446,None,1203.6173441614446,None,v,11.956706798941923,1203.6173441614446,None,t,10.296118194377414,1203.6173441614446,None,11.956706798941923,10.296118194377414,10,False,False,False,1215.6308379212305,None,1215.6308379212305,None,1215.6308379212305,None,1215.6308379212305,None,1215.6308379212305,None,1215.6308379212305,None,1216.6306002262745,None,1216.6306002262745,None,h,,,,,,,,,,,,,,,,,,,,,,,,,,,15_16,001,2021_Apr_12_1219,ComputerHuman,2020.1.3,60.0187712621218,
Human.xlsx,h,Sychronize.jpg,Number8.jpg,8,Human,,,,,0,4,4,4,0,8,8,4,,,,,,,,,,,,,,,,,,,,,,,,,,,,,,,,,,,,,,,,,,,,,,,,,,,,,,,,,1217.697003407602,None,1217.697003407602,None,1218.147127724309,None,1218.147127724309,None,v,9.238298655852304,1218.147127724309,None,t,9.85727011353174,1218.147127724309,None,9.238298655852304,9.85727011353174,8,False,False,False,1228.0612171970533,None,1228.0612171970533,None,1228.0612171970533,None,1228.0612171970533,None,1228.0612171970533,None,1228.0612171970533,None,1229.0608338698303,None,1229.0608338698303,None,h,,,,,,,,,,,,,,,,,,,,,,,,,,,15_16,001,2021_Apr_12_1219,ComputerHuman,2020.1.3,60.0187712621218,
Human.xlsx,h,Sychronize.jpg,Number8.jpg,8,Human,,,,,0,4,4,4,0,9,9,5,,,,,,,,,,,,,,,,,,,,,,,,,,,,,,,,,,,,,,,,,,,,,,,,,,,,,,,,,1230.1104864534718,None,1230.1104864534718,None,1230.560636111477,None,1230.560636111477,None,v,10.719270067982507,1230.560636111477,None,t,8.514367392999702,1230.560636111477,None,10.719270067982507,8.514367392999702,8,False,False,False,1241.3411612280706,None,1241.3411612280706,None,1241.3411612280706,None,1241.3411612280706,None,1241.3411612280706,None,1241.3411612280706,None,1242.357651676487,None,1242.357651676487,None,h,,,,,,,,,,,,,,,,,,,,,,,,,,,15_16,001,2021_Apr_12_1219,ComputerHuman,2020.1.3,60.0187712621218,
Human.xlsx,h,,,,,,,,,0,4,4,4,,,,,,,,,,,,,,,,,,,,,,,,,,,,,,,,,,,,,,,,,,,,,,,,,,,,,,,,,,,,,,,,,,,,,,,,,,,,,,,,,,,,,,,,,,,,,,,,,,,h,1243.340717915752,None,1243.340717915752,None,a,0,7.966321094770137,1243.340717915752,None,o,1,2.977818986791135,1243.340717915752,None,c,h,1251.3720359102217,None,None,None,None,None,None,,,,15_16,001,2021_Apr_12_1219,ComputerHuman,2020.1.3,60.0187712621218,
Human.xlsx,h,Sychronize.jpg,Number10.jpg,10,Human,,,,,0,5,5,8,0,0,0,9,,,,,,,,,,,,,,,,,,,,,,,,,,,,,,,,,,,,,,,,,,,,,,,,,,,,,1256.3873503941213,None,1256.3873503941213,None,1259.4531874059521,None,1259.4531874059521,None,1259.9032430766129,None,1259.9032430766129,None,None,,1259.9032430766129,None,t,11.173168954921493,1259.9032430766129,None,13,11.173168954921493,10,False,False,False,1272.9500657751014,None,1272.9500657751014,None,1272.9500657751014,None,1272.9500657751014,None,1272.9500657751014,None,1272.9500657751014,None,1273.9664888605748,None,1273.9664888605748,None,h,,,,,,,,,,,,,,,,,,,,,,,,,,,15_16,001,2021_Apr_12_1219,ComputerHuman,2020.1.3,60.0187712621218,
Human.xlsx,h,Sychronize.jpg,Number7.jpg,7,Human,,,,,0,5,5,8,0,1,1,3,,,,,,,,,,,,,,,,,,,,,,,,,,,,,,,,,,,,,,,,,,,,,,,,,,,,,,,,,1274.9992041549458,None,1274.9992041549458,None,1275.4659408149182,None,1275.4659408149182,None,v,8.60258365755817,1275.4659408149182,None,None,,1275.4659408149182,None,8.60258365755817,13,7,False,False,False,1288.512716680123,None,1288.512716680123,None,1288.512716680123,None,1288.512716680123,None,1288.512716680123,None,1288.512716680123,None,1289.5291689562046,None,1289.5291689562046,None,h,,,,,,,,,,,,,,,,,,,,,,,,,,,15_16,001,2021_Apr_12_1219,ComputerHuman,2020.1.3,60.0187712621218,
Human.xlsx,h,Sychronize.jpg,Number8.jpg,8,Human,,,,,0,5,5,8,0,2,2,4,,,,,,,,,,,,,,,,,,,,,,,,,,,,,,,,,,,,,,,,,,,,,,,,,,,,,,,,,1290.5454974127815,None,1290.5454974127815,None,1291.028882663697,None,1291.028882663697,None,v,10.378048854813642,1291.028882663697,None,t,9.317256685852954,1291.028882663697,None,10.378048854813642,9.317256685852954,8,False,False,False,1301.4761738874922,None,1301.4761738874922,None,1301.4761738874922,None,1301.4761738874922,None,1301.4761738874922,None,1301.4761738874922,None,1302.4758932085642,None,1302.4758932085642,None,h,,,,,,,,,,,,,,,,,,,,,,,,,,,15_16,001,2021_Apr_12_1219,ComputerHuman,2020.1.3,60.0187712621218,
Human.xlsx,h,Sychronize.jpg,Number9.jpg,9,Human,,,,,0,5,5,8,0,3,3,7,,,,,,,,,,,,,,,,,,,,,,,,,,,,,,,,,,,,,,,,,,,,,,,,,,,,,,,,,1303.5255406597907,None,1303.5255406597907,None,1303.9756739582235,None,1303.9756739582235,None,v,10.87825078325477,1303.9756739582235,None,t,10.785210690434724,1303.9756739582235,None,10.87825078325477,10.785210690434724,9,True,False,False,1314.9062070460996,None,1314.9062070460996,None,1314.9062070460996,None,1314.9062070460996,None,1314.9062070460996,None,1314.9062070460996,None,1315.9059003843213,None,1315.9059003843213,None,h,,,,,,,,,,,,,,,,,,,,,,,,,,,15_16,001,2021_Apr_12_1219,ComputerHuman,2020.1.3,60.0187712621218,
Human.xlsx,h,Sychronize.jpg,Number10.jpg,10,Human,,,,,0,5,5,8,0,4,4,8,,,,,,,,,,,,,,,,,,,,,,,,,,,,,,,,,,,,,,,,,,,,,,,,,,,,,,,,,1316.955504851575,None,1316.955504851575,None,1317.405552502838,None,1317.405552502838,None,v,12.35916766347782,1317.405552502838,None,t,11.894127266562464,1317.405552502838,None,12.35916766347782,11.894127266562464,10,False,False,False,1329.819226410379,None,1329.819226410379,None,1329.819226410379,None,1329.819226410379,None,1329.819226410379,None,1329.819226410379,None,1330.8189851868883,None,1330.8189851868883,None,h,,,,,,,,,,,,,,,,,,,,,,,,,,,15_16,001,2021_Apr_12_1219,ComputerHuman,2020.1.3,60.0187712621218,
Human.xlsx,h,Sychronize.jpg,Number7.jpg,7,Human,,,,,0,5,5,8,0,5,5,2,,,,,,,,,,,,,,,,,,,,,,,,,,,,,,,,,,,,,,,,,,,,,,,,,,,,,,,,,1331.868314107628,None,1331.868314107628,None,1332.3185189390906,None,1332.3185189390906,None,v,8.289375484572702,1332.3185189390906,None,t,10.120644143707068,1332.3185189390906,None,8.289375484572702,10.120644143707068,7,False,False,False,1342.4992152217146,None,1342.4992152217146,None,1342.4992152217146,None,1342.4992152217146,None,1342.4992152217146,None,1342.4992152217146,None,1343.5156742340905,None,1343.5156742340905,None,h,,,,,,,,,,,,,,,,,,,,,,,,,,,15_16,001,2021_Apr_12_1219,ComputerHuman,2020.1.3,60.0187712621218,
Human.xlsx,h,Sychronize.jpg,Number9.jpg,9,Human,,,,,0,5,5,8,0,6,6,6,,,,,,,,,,,,,,,,,,,,,,,,,,,,,,,,,,,,,,,,,,,,,,,,,,,,,,,,,1344.5484812703753,None,1344.5484812703753,None,1344.9985404695708,None,1344.9985404695708,None,v,9.924157987272338,1344.9985404695708,None,t,11.759164968960249,1344.9985404695708,None,9.924157987272338,11.759164968960249,9,False,False,False,1356.8123717497774,None,1356.8123717497774,None,1356.8123717497774,None,1356.8123717497774,None,1356.8123717497774,None,1356.8123717497774,None,1357.8286520899674,None,1357.8286520899674,None,h,,,,,,,,,,,,,,,,,,,,,,,,,,,15_16,001,2021_Apr_12_1219,ComputerHuman,2020.1.3,60.0187712621218,
Human.xlsx,h,Sychronize.jpg,Number8.jpg,8,Human,,,,,0,5,5,8,0,7,7,5,,,,,,,,,,,,,,,,,,,,,,,,,,,,,,,,,,,,,,,,,,,,,,,,,,,,,,,,,1358.8783473368057,None,1358.8783473368057,None,1359.3284309149712,None,1359.3284309149712,None,v,10.025115471310528,1359.3284309149712,None,t,10.8041938885126,1359.3284309149712,None,10.025115471310528,10.8041938885126,8,False,False,False,1370.2090881591657,None,1370.2090881591657,None,1370.2090881591657,None,1370.2090881591657,None,1370.2090881591657,None,1370.2090881591657,None,1371.2087705910071,None,1371.2087705910071,None,h,,,,,,,,,,,,,,,,,,,,,,,,,,,15_16,001,2021_Apr_12_1219,ComputerHuman,2020.1.3,60.0187712621218,
Human.xlsx,h,Sychronize.jpg,Number6.jpg,6,Human,,,,,0,5,5,8,0,8,8,0,,,,,,,,,,,,,,,,,,,,,,,,,,,,,,,,,,,,,,,,,,,,,,,,,,,,,,,,,1372.2582704853112,None,1372.2582704853112,None,1372.708500978847,None,1372.708500978847,None,v,7.140171698518316,1372.708500978847,None,t,9.211339364562264,1372.708500978847,None,7.140171698518316,9.211339364562264,6,False,False,False,1381.9727776724558,None,1381.9727776724558,None,1381.9727776724558,None,1381.9727776724558,None,1381.9727776724558,None,1381.9727776724558,None,1382.9725098245644,None,1382.9725098245644,None,h,,,,,,,,,,,,,,,,,,,,,,,,,,,15_16,001,2021_Apr_12_1219,ComputerHuman,2020.1.3,60.0187712621218,
Human.xlsx,h,Sychronize.jpg,Number6.jpg,6,Human,,,,,0,5,5,8,0,9,9,1,,,,,,,,,,,,,,,,,,,,,,,,,,,,,,,,,,,,,,,,,,,,,,,,,,,,,,,,,1384.0220953660382,None,1384.0220953660382,None,1384.4721301862646,None,1384.4721301862646,None,v,6.379582805256177,1384.4721301862646,None,t,7.858485854263563,1384.4721301862646,None,6.379582805256177,7.858485854263563,6,False,False,False,1392.3868701925712,None,1392.3868701925712,None,1392.3868701925712,None,1392.3868701925712,None,1392.3868701925712,None,1392.3868701925712,None,1393.4032201411346,None,1393.4032201411346,None,h,,,,,,,,,,,,,,,,,,,,,,,,,,,15_16,001,2021_Apr_12_1219,ComputerHuman,2020.1.3,60.0187712621218,
Human.xlsx,h,,,,,,,,,0,5,5,8,,,,,,,,,,,,,,,,,,,,,,,,,,,,,,,,,,,,,,,,,,,,,,,,,,,,,,,,,,,,,,,,,,,,,,,,,,,,,,,,,,,,,,,,,,,,,,,,,,,h,1394.3863341760116,None,1394.3863341760116,None,q,1,15.096069179818187,1394.3863341760116,None,l,0,3.2878226083512345,1394.3863341760116,None,h,c,1409.532534216365,None,None,None,None,None,None,,,,15_16,001,2021_Apr_12_1219,ComputerHuman,2020.1.3,60.0187712621218,
Computer.xlsx,c,Sychronize.jpg,Number10.jpg,10,Computer,,,,,0,6,6,5,0,0,0,9,,,,,,,,,,,,,,,,,,,,,,,,,,,,,,,,,,,,,,,,,,,,,,,,,,,,,1414.5312331492396,None,1414.5312331492396,None,1417.6136757680415,None,1417.6136757680415,None,1418.0637340049097,None,1418.0637340049097,None,v,12.724832322407565,1418.0637340049097,None,t,12.384072385010768,1418.0637340049097,None,12.724832322407565,12.384072385010768,10,False,False,False,1430.8439399494646,None,1430.8439399494646,None,1430.8439399494646,None,1430.8439399494646,None,1430.8439399494646,None,1430.8439399494646,None,1431.84354026267,None,1431.84354026267,None,c,,,,,,,,,,,,,,,,,,,,,,,,,,,15_16,001,2021_Apr_12_1219,ComputerHuman,2020.1.3,60.0187712621218,
Computer.xlsx,c,Sychronize.jpg,Number9.jpg,9,Computer,,,,,0,6,6,5,0,1,1,7,,,,,,,,,,,,,,,,,,,,,,,,,,,,,,,,,,,,,,,,,,,,,,,,,,,,,,,,,1432.8934116154878,None,1432.8934116154878,None,1433.3429861222712,None,1433.3429861222712,None,v,9.760594988004414,1433.3429861222712,None,t,10.844235704861603,1433.3429861222712,None,9.760594988004414,10.844235704861603,9,False,False,False,1444.2409142626911,None,1444.2409142626911,None,1444.2409142626911,None,1444.2409142626911,None,1444.2409142626911,None,1444.2409142626911,None,1445.2403054299984,None,1445.2403054299984,None,c,,,,,,,,,,,,,,,,,,,,,,,,,,,15_16,001,2021_Apr_12_1219,ComputerHuman,2020.1.3,60.0187712621218,
Computer.xlsx,c,Sychronize.jpg,Number8.jpg,8,Computer,,,,,0,6,6,5,0,2,2,4,,,,,,,,,,,,,,,,,,,,,,,,,,,,,,,,,,,,,,,,,,,,,,,,,,,,,,,,,1446.2898184761152,None,1446.2898184761152,None,1446.7398712597924,None,1446.7398712597924,None,v,8.310748142466764,1446.7398712597924,None,t,8.530433775651545,1446.7398712597924,None,8.310748142466764,8.530433775651545,8,False,False,False,1455.3209645346933,None,1455.3209645346933,None,1455.3209645346933,None,1455.3209645346933,None,1455.3209645346933,None,1455.3209645346933,None,1456.3374835321656,None,1456.3374835321656,None,c,,,,,,,,,,,,,,,,,,,,,,,,,,,15_16,001,2021_Apr_12_1219,ComputerHuman,2020.1.3,60.0187712621218,
Computer.xlsx,c,Sychronize.jpg,Number7.jpg,7,Computer,,,,,0,6,6,5,0,3,3,3,,,,,,,,,,,,,,,,,,,,,,,,,,,,,,,,,,,,,,,,,,,,,,,,,,,,,,,,,1457.3869686707776,None,1457.3869686707776,None,1457.8370926667094,None,1457.8370926667094,None,v,7.496625918501195,1457.8370926667094,None,t,7.539559529755024,1457.8370926667094,None,7.496625918501195,7.539559529755024,7,False,False,False,1465.4352168974483,None,1465.4352168974483,None,1465.4352168974483,None,1465.4352168974483,None,1465.4352168974483,None,1465.4352168974483,None,1466.4349766362857,None,1466.4349766362857,None,c,,,,,,,,,,,,,,,,,,,,,,,,,,,15_16,001,2021_Apr_12_1219,ComputerHuman,2020.1.3,60.0187712621218,
Computer.xlsx,c,Sychronize.jpg,Number6.jpg,6,Computer,,,,,0,6,6,5,0,4,4,1,,,,,,,,,,,,,,,,,,,,,,,,,,,,,,,,,,,,,,,,,,,,,,,,,,,,,,,,,1467.501184144303,None,1467.501184144303,None,1467.9346986839519,None,1467.9346986839519,None,v,5.302388722031537,1467.9346986839519,None,t,5.969475605152184,1467.9346986839519,None,5.302388722031537,5.969475605152184,6,False,False,True,1473.9664452350498,None,1473.9664452350498,None,1473.9664452350498,None,1473.9664452350498,None,1473.9664452350498,None,1473.9664452350498,None,1474.9829244563089,None,1474.9829244563089,None,c,,,,,,,,,,,,,,,,,,,,,,,,,,,15_16,001,2021_Apr_12_1219,ComputerHuman,2020.1.3,60.0187712621218,
Computer.xlsx,c,Sychronize.jpg,Number6.jpg,6,Computer,,,,,0,6,6,5,0,5,5,0,,,,,,,,,,,,,,,,,,,,,,,,,,,,,,,,,,,,,,,,,,,,,,,,,,,,,,,,,1476.0157414366458,None,1476.0157414366458,None,1476.4825175520555,None,1476.4825175520555,None,v,5.665783891338833,1476.4825175520555,None,t,6.2325590123437,1476.4825175520555,None,5.665783891338833,6.2325590123437,6,False,False,True,1482.780836910786,None,1482.780836910786,None,1482.780836910786,None,1482.780836910786,None,1482.780836910786,None,1482.780836910786,None,1483.7805966496235,None,1483.7805966496235,None,c,,,,,,,,,,,,,,,,,,,,,,,,,,,15_16,001,2021_Apr_12_1219,ComputerHuman,2020.1.3,60.0187712621218,
Computer.xlsx,c,Sychronize.jpg,Number7.jpg,7,Computer,,,,,0,6,6,5,0,6,6,2,,,,,,,,,,,,,,,,,,,,,,,,,,,,,,,,,,,,,,,,,,,,,,,,,,,,,,,,,1484.847076496395,None,1484.847076496395,None,1485.2970089891032,None,1485.2970089891032,None,v,6.670552866919024,1485.2970089891032,None,t,6.938085756875807,1485.2970089891032,None,6.670552866919024,6.938085756875807,7,False,False,True,1492.2951642067965,None,1492.2951642067965,None,1492.2951642067965,None,1492.2951642067965,None,1492.2951642067965,None,1492.2951642067965,None,1493.3116918652186,None,1493.3116918652186,None,c,,,,,,,,,,,,,,,,,,,,,,,,,,,15_16,001,2021_Apr_12_1219,ComputerHuman,2020.1.3,60.0187712621218,
Computer.xlsx,c,Sychronize.jpg,Number8.jpg,8,Computer,,,,,0,6,6,5,0,7,7,5,,,,,,,,,,,,,,,,,,,,,,,,,,,,,,,,,,,,,,,,,,,,,,,,,,,,,,,,,1494.3443920831214,None,1494.3443920831214,None,1494.794592102946,None,1494.794592102946,None,v,8.020102385257815,1494.794592102946,None,t,7.523434445110979,1494.794592102946,None,8.020102385257815,7.523434445110979,8,False,True,False,1502.8923735846156,None,1502.8923735846156,None,1502.8923735846156,None,1502.8923735846156,None,1502.8923735846156,None,1502.8923735846156,None,1503.8917522416623,None,1503.8917522416623,None,c,,,,,,,,,,,,,,,,,,,,,,,,,,,15_16,001,2021_Apr_12_1219,ComputerHuman,2020.1.3,60.0187712621218,
Computer.xlsx,c,Sychronize.jpg,Number10.jpg,10,Computer,,,,,0,6,6,5,0,8,8,8,,,,,,,,,,,,,,,,,,,,,,,,,,,,,,,,,,,,,,,,,,,,,,,,,,,,,,,,,1504.9417512632954,None,1504.9417512632954,None,1505.391864352845,None,1505.391864352845,None,v,9.965704563453983,1505.391864352845,None,t,10.401063885411531,1505.391864352845,None,9.965704563453983,10.401063885411531,10,False,True,False,1515.855967442527,None,1515.855967442527,None,1515.855967442527,None,1515.855967442527,None,1515.855967442527,None,1515.855967442527,None,1516.855560698662,None,1516.855560698662,None,c,,,,,,,,,,,,,,,,,,,,,,,,,,,15_16,001,2021_Apr_12_1219,ComputerHuman,2020.1.3,60.0187712621218,
Computer.xlsx,c,Sychronize.jpg,Number9.jpg,9,Computer,,,,,0,6,6,5,0,9,9,6,,,,,,,,,,,,,,,,,,,,,,,,,,,,,,,,,,,,,,,,,,,,,,,,,,,,,,,,,1517.9218609109193,None,1517.9218609109193,None,1518.3719980586638,None,1518.3719980586638,None,v,8.592682908833922,1518.3719980586638,None,t,8.95227880816401,1518.3719980586638,None,8.592682908833922,8.95227880816401,9,False,False,True,1527.386451900773,None,1527.386451900773,None,1527.386451900773,None,1527.386451900773,None,1527.386451900773,None,1527.386451900773,None,1528.386137219597,None,1528.386137219597,None,c,,,,,,,,,,,,,,,,,,,,,,,,,,,15_16,001,2021_Apr_12_1219,ComputerHuman,2020.1.3,60.0187712621218,
Computer.xlsx,c,,,,,,,,,0,6,6,5,,,,,,,,,,,,,,,,,,,,,,,,,,,,,,,,,,,,,,,,,,,,,,,,,,,,,,,,,,,,,,,,,,,,,,,,,,,,,,,,,,,,,,,,,,,,,,,,,,,c,1529.3861702595168,None,1529.3861702595168,None,a,1,4.406055800253853,1529.3861702595168,None,l,1,3.2338036229066347,1529.3861702595168,None,c,c,1533.8347561349192,None,None,None,None,None,None,,,,15_16,001,2021_Apr_12_1219,ComputerHuman,2020.1.3,60.0187712621218,
Computer.xlsx,c,Sychronize.jpg,Number6.jpg,6,Computer,,,,,0,7,7,1,0,0,0,1,,,,,,,,,,,,,,,,,,,,,,,,,,,,,,,,,,,,,,,,,,,,,,,,,,,,,1538.8670014925701,None,1538.8670014925701,None,1541.9327935957726,None,1541.9327935957726,None,1542.3827969799586,None,1542.3827969799586,None,v,5.892179515185489,1542.3827969799586,None,t,6.167582963077621,1542.3827969799586,None,5.892179515185489,6.167582963077621,6,False,True,True,1548.5971516381542,None,1548.5971516381542,None,1548.5971516381542,None,1548.5971516381542,None,1548.5971516381542,None,1548.5971516381542,None,1549.6136260477742,None,1549.6136260477742,None,c,,,,,,,,,,,,,,,,,,,,,,,,,,,15_16,001,2021_Apr_12_1219,ComputerHuman,2020.1.3,60.0187712621218,
Computer.xlsx,c,Sychronize.jpg,Number10.jpg,10,Computer,,,,,0,7,7,1,0,1,1,9,,,,,,,,,,,,,,,,,,,,,,,,,,,,,,,,,,,,,,,,,,,,,,,,,,,,,,,,,1550.6634242636828,None,1550.6634242636828,None,1551.1133593225977,None,1551.1133593225977,None,v,9.632541882909209,1551.1133593225977,None,t,9.848360241620867,1551.1133593225977,None,9.632541882909209,9.848360241620867,10,False,False,True,1561.0113699024296,None,1561.0113699024296,None,1561.0113699024296,None,1561.0113699024296,None,1561.0113699024296,None,1561.0113699024296,None,1562.011096280571,None,1562.011096280571,None,c,,,,,,,,,,,,,,,,,,,,,,,,,,,15_16,001,2021_Apr_12_1219,ComputerHuman,2020.1.3,60.0187712621218,
Computer.xlsx,c,Sychronize.jpg,Number7.jpg,7,Computer,,,,,0,7,7,1,0,2,2,3,,,,,,,,,,,,,,,,,,,,,,,,,,,,,,,,,,,,,,,,,,,,,,,,,,,,,,,,,1563.0604636944208,None,1563.0604636944208,None,1563.510666601228,None,1563.510666601228,None,v,12.446101786689724,1563.510666601228,None,t,6.741578429230685,1563.510666601228,None,12.446101786689724,6.741578429230685,7,False,False,True,1576.0075837842633,None,1576.0075837842633,None,1576.0075837842633,None,1576.0075837842633,None,1576.0075837842633,None,1576.0075837842633,None,1577.0067725419658,None,1577.0067725419658,None,c,,,,,,,,,,,,,,,,,,,,,,,,,,,15_16,001,2021_Apr_12_1219,ComputerHuman,2020.1.3,60.0187712621218,
Computer.xlsx,c,Sychronize.jpg,Number6.jpg,6,Computer,,,,,0,7,7,1,0,3,3,0,,,,,,,,,,,,,,,,,,,,,,,,,,,,,,,,,,,,,,,,,,,,,,,,,,,,,,,,,1578.039968679439,None,1578.039968679439,None,1578.5065208932574,None,1578.5065208932574,None,v,6.821453557581663,1578.5065208932574,None,t,6.1407276031850415,1578.5065208932574,None,6.821453557581663,6.1407276031850415,6,False,False,True,1585.405271503133,None,1585.405271503133,None,1585.405271503133,None,1585.405271503133,None,1585.405271503133,None,1585.405271503133,None,1586.4050225810206,None,1586.4050225810206,None,c,,,,,,,,,,,,,,,,,,,,,,,,,,,15_16,001,2021_Apr_12_1219,ComputerHuman,2020.1.3,60.0187712621218,
Computer.xlsx,c,Sychronize.jpg,Number10.jpg,10,Computer,,,,,0,7,7,1,0,4,4,8,,,,,,,,,,,,,,,,,,,,,,,,,,,,,,,,,,,,,,,,,,,,,,,,,,,,,,,,,1587.4209452560608,None,1587.4209452560608,None,1587.9040180712318,None,1587.9040180712318,None,v,10.050856455663961,1587.9040180712318,None,t,9.138982902964017,1587.9040180712318,None,10.050856455663961,9.138982902964017,10,False,True,False,1598.0188176777037,None,1598.0188176777037,None,1598.0188176777037,None,1598.0188176777037,None,1598.0188176777037,None,1598.0188176777037,None,1599.018488882387,None,1599.018488882387,None,c,,,,,,,,,,,,,,,,,,,,,,,,,,,15_16,001,2021_Apr_12_1219,ComputerHuman,2020.1.3,60.0187712621218,
Computer.xlsx,c,Sychronize.jpg,Number7.jpg,7,Computer,,,,,0,7,7,1,0,5,5,2,,,,,,,,,,,,,,,,,,,,,,,,,,,,,,,,,,,,,,,,,,,,,,,,,,,,,,,,,1600.0680487617892,None,1600.0680487617892,None,1600.5180136528643,None,1600.5180136528643,None,v,6.564220140815451,1600.5180136528643,None,t,6.5075239595553285,1600.5180136528643,None,6.564220140815451,6.5075239595553285,7,False,False,False,1607.1329904880304,None,1607.1329904880304,None,1607.1329904880304,None,1607.1329904880304,None,1607.1329904880304,None,1607.1329904880304,None,1608.1324089212912,None,1608.1324089212912,None,c,,,,,,,,,,,,,,,,,,,,,,,,,,,15_16,001,2021_Apr_12_1219,ComputerHuman,2020.1.3,60.0187712621218,
Computer.xlsx,c,Sychronize.jpg,Number9.jpg,9,Computer,,,,,0,7,7,1,0,6,6,7,,,,,,,,,,,,,,,,,,,,,,,,,,,,,,,,,,,,,,,,,,,,,,,,,,,,,,,,,1609.1654260658024,None,1609.1654260658024,None,1609.649277083351,None,1609.649277083351,None,v,8.292019319691462,1609.649277083351,None,t,8.075441363605933,1609.649277083351,None,8.292019319691462,8.075441363605933,9,False,False,False,1618.0137090004273,None,1618.0137090004273,None,1618.0137090004273,None,1618.0137090004273,None,1618.0137090004273,None,1618.0137090004273,None,1619.0135207049616,None,1619.0135207049616,None,c,,,,,,,,,,,,,,,,,,,,,,,,,,,15_16,001,2021_Apr_12_1219,ComputerHuman,2020.1.3,60.0187712621218,
Computer.xlsx,c,Sychronize.jpg,Number8.jpg,8,Computer,,,,,0,7,7,1,0,7,7,4,,,,,,,,,,,,,,,,,,,,,,,,,,,,,,,,,,,,,,,,,,,,,,,,,,,,,,,,,1620.0630546015136,None,1620.0630546015136,None,1620.5130887801888,None,1620.5130887801888,None,v,7.3792838420995395,1620.5130887801888,None,t,7.830196626015095,1620.5130887801888,None,7.3792838420995395,7.830196626015095,8,False,False,True,1628.3772716147623,None,1628.3772716147623,None,1628.3772716147623,None,1628.3772716147623,None,1628.3772716147623,None,1628.3772716147623,None,1629.3939981542544,None,1629.3939981542544,None,c,,,,,,,,,,,,,,,,,,,,,,,,,,,15_16,001,2021_Apr_12_1219,ComputerHuman,2020.1.3,60.0187712621218,
Computer.xlsx,c,Sychronize.jpg,Number9.jpg,9,Computer,,,,,0,7,7,1,0,8,8,6,,,,,,,,,,,,,,,,,,,,,,,,,,,,,,,,,,,,,,,,,,,,,,,,,,,,,,,,,1630.4437431213619,None,1630.4437431213619,None,1630.893824774871,None,1630.893824774871,None,v,7.69767832013531,1630.893824774871,None,None,,1630.893824774871,None,7.69767832013531,13,9,False,False,False,1643.9403661528786,None,1643.9403661528786,None,1643.9403661528786,None,1643.9403661528786,None,1643.9403661528786,None,1643.9403661528786,None,1644.9397550747553,None,1644.9397550747553,None,c,,,,,,,,,,,,,,,,,,,,,,,,,,,15_16,001,2021_Apr_12_1219,ComputerHuman,2020.1.3,60.0187712621218,
Computer.xlsx,c,Sychronize.jpg,Number8.jpg,8,Computer,,,,,0,7,7,1,0,9,9,5,,,,,,,,,,,,,,,,,,,,,,,,,,,,,,,,,,,,,,,,,,,,,,,,,,,,,,,,,1645.9728687728175,None,1645.9728687728175,None,1646.4394444032778,None,1646.4394444032778,None,v,4.467127365040142,1646.4394444032778,None,t,9.050461901282688,1646.4394444032778,None,4.467127365040142,9.050461901282688,8,False,False,False,1655.553998936949,None,1655.553998936949,None,1655.553998936949,None,1655.553998936949,None,1655.553998936949,None,1655.553998936949,None,1656.5704197769892,None,1656.5704197769892,None,c,,,,,,,,,,,,,,,,,,,,,,,,,,,15_16,001,2021_Apr_12_1219,ComputerHuman,2020.1.3,60.0187712621218,
Computer.xlsx,c,,,,,,,,,0,7,7,1,,,,,,,,,,,,,,,,,,,,,,,,,,,,,,,,,,,,,,,,,,,,,,,,,,,,,,,,,,,,,,,,,,,,,,,,,,,,,,,,,,,,,,,,,,,,,,,,,,,c,1657.5535164899675,None,1657.5535164899675,None,a,1,4.584132626727296,1657.5535164899675,None,o,0,2.827975252779652,1657.5535164899675,None,c,h,None,None,1662.202660130536,None,"['space', 'space']",1663.185691726002,None,"[3.835975724961827, 6.403604430684936]",,,15_16,001,2021_Apr_12_1219,ComputerHuman,2020.1.3,60.0187712621218,
Human.xlsx,h,Sychronize.jpg,Number7.jpg,7,Human,,,,,0,8,8,6,0,0,0,2,,,,,,,,,,,,,,,,,,,,,,,,,,,,,,,,,,,,,,,,,,,,,,,,,,,,,1669.6505733388376,None,1669.6505733388376,None,1672.7334332871096,None,1672.7334332871096,None,1673.1666523921385,None,1673.1666523921385,None,v,7.173568962492936,1673.1666523921385,None,t,6.872545141992305,1673.1666523921385,None,7.173568962492936,6.872545141992305,7,False,False,False,1680.3982340002576,None,1680.3982340002576,None,1680.3982340002576,None,1680.3982340002576,None,1680.3982340002576,None,1680.3982340002576,None,1681.3978683157102,None,1681.3978683157102,None,h,,,,,,,,,,,,,,,,,,,,,,,,,,,15_16,001,2021_Apr_12_1219,ComputerHuman,2020.1.3,60.0187712621218,
Human.xlsx,h,Sychronize.jpg,Number6.jpg,6,Human,,,,,0,8,8,6,0,1,1,1,,,,,,,,,,,,,,,,,,,,,,,,,,,,,,,,,,,,,,,,,,,,,,,,,,,,,,,,,1682.464122657012,None,1682.464122657012,None,1682.8975133771573,None,1682.8975133771573,None,v,6.573961784682979,1682.8975133771573,None,t,5.793597056046565,1682.8975133771573,None,6.573961784682979,5.793597056046565,6,False,False,False,1689.529184995,None,1689.529184995,None,1689.529184995,None,1689.529184995,None,1689.529184995,None,1689.529184995,None,1690.5455012620923,None,1690.5455012620923,None,h,,,,,,,,,,,,,,,,,,,,,,,,,,,15_16,001,2021_Apr_12_1219,ComputerHuman,2020.1.3,60.0187712621218,
Human.xlsx,h,Sychronize.jpg,Number6.jpg,6,Human,,,,,0,8,8,6,0,2,2,0,,,,,,,,,,,,,,,,,,,,,,,,,,,,,,,,,,,,,,,,,,,,,,,,,,,,,,,,,1691.578359943299,None,1691.578359943299,None,1692.0452050255326,None,1692.0452050255326,None,v,9.069369396245747,1692.0452050255326,None,t,5.732456203662878,1692.0452050255326,None,9.069369396245747,5.732456203662878,6,False,False,False,1701.1930099078045,None,1701.1930099078045,None,1701.1930099078045,None,1701.1930099078045,None,1701.1930099078045,None,1701.1930099078045,None,1702.1927167186159,None,1702.1927167186159,None,h,,,,,,,,,,,,,,,,,,,,,,,,,,,15_16,001,2021_Apr_12_1219,ComputerHuman,2020.1.3,60.0187712621218,
Human.xlsx,h,Sychronize.jpg,Number7.jpg,7,Human,,,,,0,8,8,6,0,3,3,3,,,,,,,,,,,,,,,,,,,,,,,,,,,,,,,,,,,,,,,,,,,,,,,,,,,,,,,,,1703.2421454006662,None,1703.2421454006662,None,1703.6923656293739,None,1703.6923656293739,None,v,6.509430972389964,1703.6923656293739,None,t,7.360443068530003,1703.6923656293739,None,6.509430972389964,7.360443068530003,7,False,False,False,1711.1071936886701,None,1711.1071936886701,None,1711.1071936886701,None,1711.1071936886701,None,1711.1071936886701,None,1711.1071936886701,None,1712.1069566352662,None,1712.1069566352662,None,h,,,,,,,,,,,,,,,,,,,,,,,,,,,15_16,001,2021_Apr_12_1219,ComputerHuman,2020.1.3,60.0187712621218,
Human.xlsx,h,Sychronize.jpg,Number9.jpg,9,Human,,,,,0,8,8,6,0,4,4,6,,,,,,,,,,,,,,,,,,,,,,,,,,,,,,,,,,,,,,,,,,,,,,,,,,,,,,,,,1713.173103516633,None,1713.173103516633,None,1713.606453498237,None,1713.606453498237,None,v,8.462368012738807,1713.606453498237,None,t,8.30544796196773,1713.606453498237,None,8.462368012738807,8.30544796196773,9,True,False,False,1722.1210983624069,None,1722.1210983624069,None,1722.1210983624069,None,1722.1210983624069,None,1722.1210983624069,None,1722.1210983624069,None,1723.1374383669163,None,1723.1374383669163,None,h,,,,,,,,,,,,,,,,,,,,,,,,,,,15_16,001,2021_Apr_12_1219,ComputerHuman,2020.1.3,60.0187712621218,
Human.xlsx,h,Sychronize.jpg,Number10.jpg,10,Human,,,,,0,8,8,6,0,5,5,8,,,,,,,,,,,,,,,,,,,,,,,,,,,,,,,,,,,,,,,,,,,,,,,,,,,,,,,,,1724.2039018541172,None,1724.2039018541172,None,1724.6371286577678,None,1724.6371286577678,None,v,9.28671817686336,1724.6371286577678,None,t,9.830373052769573,1724.6371286577678,None,9.28671817686336,9.830373052769573,10,False,False,False,1734.5347033031258,None,1734.5347033031258,None,1734.5347033031258,None,1734.5347033031258,None,1734.5347033031258,None,1734.5347033031258,None,1735.5344248696283,None,1735.5344248696283,None,h,,,,,,,,,,,,,,,,,,,,,,,,,,,15_16,001,2021_Apr_12_1219,ComputerHuman,2020.1.3,60.0187712621218,
Human.xlsx,h,Sychronize.jpg,Number8.jpg,8,Human,,,,,0,8,8,6,0,6,6,5,,,,,,,,,,,,,,,,,,,,,,,,,,,,,,,,,,,,,,,,,,,,,,,,,,,,,,,,,1736.5839985423945,None,1736.5839985423945,None,1737.034014116064,None,1737.034014116064,None,v,8.724898402248073,1737.034014116064,None,None,,1737.034014116064,None,8.724898402248073,13,8,False,False,False,1750.0807832449746,None,1750.0807832449746,None,1750.0807832449746,None,1750.0807832449746,None,1750.0807832449746,None,1750.0807832449746,None,1751.080408578703,None,1751.080408578703,None,h,,,,,,,,,,,,,,,,,,,,,,,,,,,15_16,001,2021_Apr_12_1219,ComputerHuman,2020.1.3,60.0187712621218,
Human.xlsx,h,Sychronize.jpg,Number10.jpg,10,Human,,,,,0,8,8,6,0,7,7,9,,,,,,,,,,,,,,,,,,,,,,,,,,,,,,,,,,,,,,,,,,,,,,,,,,,,,,,,,1752.1467007715628,None,1752.1467007715628,None,1752.5968151442148,None,1752.5968151442148,None,v,8.548862352166907,1752.5968151442148,None,t,10.276294884170056,1752.5968151442148,None,8.548862352166907,10.276294884170056,10,False,False,False,1762.9274905282882,None,1762.9274905282882,None,1762.9274905282882,None,1762.9274905282882,None,1762.9274905282882,None,1762.9274905282882,None,1763.927350028437,None,1763.927350028437,None,h,,,,,,,,,,,,,,,,,,,,,,,,,,,15_16,001,2021_Apr_12_1219,ComputerHuman,2020.1.3,60.0187712621218,
Human.xlsx,h,Sychronize.jpg,Number8.jpg,8,Human,,,,,0,8,8,6,0,8,8,4,,,,,,,,,,,,,,,,,,,,,,,,,,,,,,,,,,,,,,,,,,,,,,,,,,,,,,,,,1764.993729793122,None,1764.993729793122,None,1765.426920349094,None,1765.426920349094,None,v,6.689864539535847,1765.426920349094,None,t,7.205514394658167,1765.426920349094,None,6.689864539535847,7.205514394658167,8,False,False,False,1772.6917821379766,None,1772.6917821379766,None,1772.6917821379766,None,1772.6917821379766,None,1772.6917821379766,None,1772.6917821379766,None,1773.708219979143,None,1773.708219979143,None,h,,,,,,,,,,,,,,,,,,,,,,,,,,,15_16,001,2021_Apr_12_1219,ComputerHuman,2020.1.3,60.0187712621218,
Human.xlsx,h,Sychronize.jpg,Number9.jpg,9,Human,,,,,0,8,8,6,0,9,9,7,,,,,,,,,,,,,,,,,,,,,,,,,,,,,,,,,,,,,,,,,,,,,,,,,,,,,,,,,1774.7577182695668,None,1774.7577182695668,None,1775.207820131961,None,1775.207820131961,None,v,8.1725825765443,1775.207820131961,None,t,5.787633510946762,1775.207820131961,None,8.1725825765443,5.787633510946762,9,False,False,False,1783.439125231239,None,1783.439125231239,None,1783.439125231239,None,1783.439125231239,None,1783.439125231239,None,1783.439125231239,None,1784.438873742919,None,1784.438873742919,None,h,,,,,,,,,,,,,,,,,,,,,,,,,,,15_16,001,2021_Apr_12_1219,ComputerHuman,2020.1.3,60.0187712621218,
Human.xlsx,h,,,,,,,,,0,8,8,6,,,,,,,,,,,,,,,,,,,,,,,,,,,,,,,,,,,,,,,,,,,,,,,,,,,,,,,,,,,,,,,,,,,,,,,,,,,,,,,,,,,,,,,,,,,,,,,,,,,h,1785.4552762987323,None,1785.4552762987323,None,q,1,4.208071620279952,1785.4552762987323,None,o,1,3.7638107665861753,1785.4552762987323,None,h,h,1789.7208598334337,None,None,None,None,None,None,,,,15_16,001,2021_Apr_12_1219,ComputerHuman,2020.1.3,60.0187712621218,
Computer.xlsx,c,Sychronize.jpg,Number6.jpg,6,Computer,,,,,0,9,9,7,0,0,0,1,,,,,,,,,,,,,,,,,,,,,,,,,,,,,,,,,,,,,,,,,,,,,,,,,,,,,1794.7362978160609,None,1794.7362978160609,None,1797.818590632508,None,1797.818590632508,None,1798.2353529705933,None,1798.2353529705933,None,v,6.446778944653488,1798.2353529705933,None,None,,1798.2353529705933,None,6.446778944653488,13,6,False,False,False,1811.2820887388089,None,1811.2820887388089,None,1811.2820887388089,None,1811.2820887388089,None,1811.2820887388089,None,1811.2820887388089,None,1812.298640455424,None,1812.298640455424,None,c,,,,,,,,,,,,,,,,,,,,,,,,,,,15_16,001,2021_Apr_12_1219,ComputerHuman,2020.1.3,60.0187712621218,
Computer.xlsx,c,Sychronize.jpg,Number7.jpg,7,Computer,,,,,0,9,9,7,0,1,1,3,,,,,,,,,,,,,,,,,,,,,,,,,,,,,,,,,,,,,,,,,,,,,,,,,,,,,,,,,1813.3313236722033,None,1813.3313236722033,None,1813.7815063701282,None,1813.7815063701282,None,v,6.255869798338608,1813.7815063701282,None,t,7.730500112111258,1813.7815063701282,None,6.255869798338608,7.730500112111258,7,False,False,False,1821.5628831467848,None,1821.5628831467848,None,1821.5628831467848,None,1821.5628831467848,None,1821.5628831467848,None,1821.5628831467848,None,1822.5793209879512,None,1822.5793209879512,None,c,,,,,,,,,,,,,,,,,,,,,,,,,,,15_16,001,2021_Apr_12_1219,ComputerHuman,2020.1.3,60.0187712621218,
Computer.xlsx,c,Sychronize.jpg,Number10.jpg,10,Computer,,,,,0,9,9,7,0,2,2,9,,,,,,,,,,,,,,,,,,,,,,,,,,,,,,,,,,,,,,,,,,,,,,,,,,,,,,,,,1823.595260664114,None,1823.595260664114,None,1824.0617756679267,None,1824.0617756679267,None,v,9.558050657575222,1824.0617756679267,None,t,11.077258879959118,1824.0617756679267,None,9.558050657575222,11.077258879959118,10,False,False,False,1835.2095221689842,None,1835.2095221689842,None,1835.2095221689842,None,1835.2095221689842,None,1835.2095221689842,None,1835.2095221689842,None,1836.2092613781615,None,1836.2092613781615,None,c,,,,,,,,,,,,,,,,,,,,,,,,,,,15_16,001,2021_Apr_12_1219,ComputerHuman,2020.1.3,60.0187712621218,
Computer.xlsx,c,Sychronize.jpg,Number8.jpg,8,Computer,,,,,0,9,9,7,0,3,3,4,,,,,,,,,,,,,,,,,,,,,,,,,,,,,,,,,,,,,,,,,,,,,,,,,,,,,,,,,1837.2589662482778,None,1837.2589662482778,None,1837.708960971514,None,1837.708960971514,None,v,7.425861147012256,1837.708960971514,None,t,7.4574880486925395,1837.708960971514,None,7.425861147012256,7.4574880486925395,8,False,False,False,1845.2236780102658,None,1845.2236780102658,None,1845.2236780102658,None,1845.2236780102658,None,1845.2236780102658,None,1845.2236780102658,None,1846.2233508188283,None,1846.2233508188283,None,c,,,,,,,,,,,,,,,,,,,,,,,,,,,15_16,001,2021_Apr_12_1219,ComputerHuman,2020.1.3,60.0187712621218,
Computer.xlsx,c,Sychronize.jpg,Number9.jpg,9,Computer,,,,,0,9,9,7,0,4,4,7,,,,,,,,,,,,,,,,,,,,,,,,,,,,,,,,,,,,,,,,,,,,,,,,,,,,,,,,,1847.2728750921024,None,1847.2728750921024,None,1847.7230090320872,None,1847.7230090320872,None,v,8.334902889902878,1847.7230090320872,None,t,8.658414385387005,1847.7230090320872,None,8.334902889902878,8.658414385387005,9,False,False,False,1856.4375325788033,None,1856.4375325788033,None,1856.4375325788033,None,1856.4375325788033,None,1856.4375325788033,None,1856.4375325788033,None,1857.4539290398761,None,1857.4539290398761,None,c,,,,,,,,,,,,,,,,,,,,,,,,,,,15_16,001,2021_Apr_12_1219,ComputerHuman,2020.1.3,60.0187712621218,
Computer.xlsx,c,Sychronize.jpg,Number10.jpg,10,Computer,,,,,0,9,9,7,0,5,5,8,,,,,,,,,,,,,,,,,,,,,,,,,,,,,,,,,,,,,,,,,,,,,,,,,,,,,,,,,1858.4867129802942,None,1858.4867129802942,None,1858.9363285463942,None,1858.9363285463942,None,v,9.120647030689724,1858.9363285463942,None,t,8.84444741696825,1858.9363285463942,None,9.120647030689724,8.84444741696825,10,False,False,False,1868.134636710044,None,1868.134636710044,None,1868.134636710044,None,1868.134636710044,None,1868.134636710044,None,1868.134636710044,None,1869.134364692066,None,1869.134364692066,None,c,,,,,,,,,,,,,,,,,,,,,,,,,,,15_16,001,2021_Apr_12_1219,ComputerHuman,2020.1.3,60.0187712621218,
Computer.xlsx,c,Sychronize.jpg,Number9.jpg,9,Computer,,,,,0,9,9,7,0,6,6,6,,,,,,,,,,,,,,,,,,,,,,,,,,,,,,,,,,,,,,,,,,,,,,,,,,,,,,,,,1870.1837882417012,None,1870.1837882417012,None,1870.633975430489,None,1870.633975430489,None,v,8.3781402759505,1870.633975430489,None,t,8.341468210626772,1870.633975430489,None,8.3781402759505,8.341468210626772,9,False,False,False,1879.0651730056788,None,1879.0651730056788,None,1879.0651730056788,None,1879.0651730056788,None,1879.0651730056788,None,1879.0651730056788,None,1880.065024807206,None,1880.065024807206,None,c,,,,,,,,,,,,,,,,,,,,,,,,,,,15_16,001,2021_Apr_12_1219,ComputerHuman,2020.1.3,60.0187712621218,
Computer.xlsx,c,Sychronize.jpg,Number7.jpg,7,Computer,,,,,0,9,9,7,0,7,7,2,,,,,,,,,,,,,,,,,,,,,,,,,,,,,,,,,,,,,,,,,,,,,,,,,,,,,,,,,1881.1145898190216,None,1881.1145898190216,None,1881.564585504585,None,1881.564585504585,None,v,6.274765103815298,1881.564585504585,None,t,6.721549501657137,1881.564585504585,None,6.274765103815298,6.721549501657137,7,False,False,True,1888.3461646908463,None,1888.3461646908463,None,1888.3461646908463,None,1888.3461646908463,None,1888.3461646908463,None,1888.3461646908463,None,1889.3626195331353,None,1889.3626195331353,None,c,,,,,,,,,,,,,,,,,,,,,,,,,,,15_16,001,2021_Apr_12_1219,ComputerHuman,2020.1.3,60.0187712621218,
Computer.xlsx,c,Sychronize.jpg,Number6.jpg,6,Computer,,,,,0,9,9,7,0,8,8,0,,,,,,,,,,,,,,,,,,,,,,,,,,,,,,,,,,,,,,,,,,,,,,,,,,,,,,,,,1890.412370594985,None,1890.412370594985,None,1890.862246951906,None,1890.862246951906,None,v,5.264459215106399,1890.862246951906,None,t,5.387659622107094,1890.862246951906,None,5.264459215106399,5.387659622107094,6,False,False,False,1896.310981667336,None,1896.310981667336,None,1896.310981667336,None,1896.310981667336,None,1896.310981667336,None,1896.310981667336,None,1897.310618869772,None,1897.310618869772,None,c,,,,,,,,,,,,,,,,,,,,,,,,,,,15_16,001,2021_Apr_12_1219,ComputerHuman,2020.1.3,60.0187712621218,
Computer.xlsx,c,Sychronize.jpg,Number8.jpg,8,Computer,,,,,0,9,9,7,0,9,9,5,,,,,,,,,,,,,,,,,,,,,,,,,,,,,,,,,,,,,,,,,,,,,,,,,,,,,,,,,1898.360176182966,None,1898.360176182966,None,1898.810320708556,None,1898.810320708556,None,v,7.007578331073091,1898.810320708556,None,t,6.386572512519706,1898.810320708556,None,7.007578331073091,6.386572512519706,8,False,False,False,1905.8750866495948,None,1905.8750866495948,None,1905.8750866495948,None,1905.8750866495948,None,1905.8750866495948,None,1905.8750866495948,None,1906.891576456458,None,1906.891576456458,None,c,,,,,,,,,,,,,,,,,,,,,,,,,,,15_16,001,2021_Apr_12_1219,ComputerHuman,2020.1.3,60.0187712621218,
Computer.xlsx,c,,,,,,,,,0,9,9,7,,,,,,,,,,,,,,,,,,,,,,,,,,,,,,,,,,,,,,,,,,,,,,,,,,,,,,,,,,,,,,,,,,,,,,,,,,,,,,,,,,,,,,,,,,,,,,,,,,,c,1907.8912495857976,None,1907.8912495857976,None,q,0,8.757749384831186,1907.8912495857976,None,o,0,1.346008472974063,1907.8912495857976,None,h,h,1916.6891328496667,None,None,None,None,None,None,,,,15_16,001,2021_Apr_12_1219,ComputerHuman,2020.1.3,60.0187712621218,
Computer.xlsx,c,Sychronize.jpg,Number7.jpg,7,Computer,,,,,1,0,10,5,0,0,0,2,,,,,,,,,,,,,,,,,,,,,,,,,,,,,,,,,,,,,,,,,,,,,,,,,,,,,1921.721292560148,None,1921.721292560148,None,1924.7868825745218,None,1924.7868825745218,None,1925.2370107405395,None,1925.2370107405395,None,v,7.055141701157481,1925.2370107405395,None,t,4.345637976790385,1925.2370107405395,None,7.055141701157481,4.345637976790385,7,False,True,False,1932.3518921448713,None,1932.3518921448713,None,1932.3518921448713,None,1932.3518921448713,None,1932.3518921448713,None,1932.3518921448713,None,1933.3515575755873,None,1933.3515575755873,None,c,,,,,,,,,,,,,,,,,,,,,,,,,,,15_16,001,2021_Apr_12_1219,ComputerHuman,2020.1.3,60.0187712621218,
Computer.xlsx,c,Sychronize.jpg,Number6.jpg,6,Computer,,,,,1,0,10,5,0,1,1,0,,,,,,,,,,,,,,,,,,,,,,,,,,,,,,,,,,,,,,,,,,,,,,,,,,,,,,,,,1934.417849126895,None,1934.417849126895,None,1934.8679487438576,None,1934.8679487438576,None,v,5.579170864821208,1934.8679487438576,None,t,5.578693550254684,1934.8679487438576,None,5.579170864821208,5.578693550254684,6,False,False,False,1940.499837526996,None,1940.499837526996,None,1940.499837526996,None,1940.499837526996,None,1940.499837526996,None,1940.499837526996,None,1941.516263178678,None,1941.516263178678,None,c,,,,,,,,,,,,,,,,,,,,,,,,,,,15_16,001,2021_Apr_12_1219,ComputerHuman,2020.1.3,60.0187712621218,
Computer.xlsx,c,Sychronize.jpg,Number8.jpg,8,Computer,,,,,1,0,10,5,0,2,2,5,,,,,,,,,,,,,,,,,,,,,,,,,,,,,,,,,,,,,,,,,,,,,,,,,,,,,,,,,1942.5492732661178,None,1942.5492732661178,None,1943.0159037492604,None,1943.0159037492604,None,v,7.958315169396883,1943.0159037492604,None,t,6.5775297752225015,1943.0159037492604,None,7.958315169396883,6.5775297752225015,8,False,True,False,1951.0471976855379,None,1951.0471976855379,None,1951.0471976855379,None,1951.0471976855379,None,1951.0471976855379,None,1951.0471976855379,None,1952.0469324038522,None,1952.0469324038522,None,c,,,,,,,,,,,,,,,,,,,,,,,,,,,15_16,001,2021_Apr_12_1219,ComputerHuman,2020.1.3,60.0187712621218,
Computer.xlsx,c,Sychronize.jpg,Number10.jpg,10,Computer,,,,,1,0,10,5,0,3,3,8,,,,,,,,,,,,,,,,,,,,,,,,,,,,,,,,,,,,,,,,,,,,,,,,,,,,,,,,,1953.0965638162843,None,1953.0965638162843,None,1953.5465874093525,None,1953.5465874093525,None,v,4.527053759798946,1953.5465874093525,None,t,9.25835709480998,1953.5465874093525,None,4.527053759798946,9.25835709480998,10,False,False,False,1962.860934978401,None,1962.860934978401,None,1962.860934978401,None,1962.860934978401,None,1962.860934978401,None,1962.860934978401,None,1963.8606183725688,None,1963.8606183725688,None,c,,,,,,,,,,,,,,,,,,,,,,,,,,,15_16,001,2021_Apr_12_1219,ComputerHuman,2020.1.3,60.0187712621218,
Computer.xlsx,c,Sychronize.jpg,Number6.jpg,6,Computer,,,,,1,0,10,5,0,4,4,1,,,,,,,,,,,,,,,,,,,,,,,,,,,,,,,,,,,,,,,,,,,,,,,,,,,,,,,,,1964.9101971777482,None,1964.9101971777482,None,1965.3603051348846,None,1965.3603051348846,None,v,8.132068898818034,1965.3603051348846,None,t,6.5915961200225865,1965.3603051348846,None,8.132068898818034,6.5915961200225865,6,False,False,False,1973.5582886733055,None,1973.5582886733055,None,1973.5582886733055,None,1973.5582886733055,None,1973.5582886733055,None,1973.5582886733055,None,1974.5575095085997,None,1974.5575095085997,None,c,,,,,,,,,,,,,,,,,,,,,,,,,,,15_16,001,2021_Apr_12_1219,ComputerHuman,2020.1.3,60.0187712621218,
Computer.xlsx,c,Sychronize.jpg,Number9.jpg,9,Computer,,,,,1,0,10,5,0,5,5,7,,,,,,,,,,,,,,,,,,,,,,,,,,,,,,,,,,,,,,,,,,,,,,,,,,,,,,,,,1975.6242305788628,None,1975.6242305788628,None,1976.0742740600372,None,1976.0742740600372,None,None,,1976.0742740600372,None,t,8.400421371245102,1976.0742740600372,None,13,8.400421371245102,9,False,False,False,1989.1210624355035,None,1989.1210624355035,None,1989.1210624355035,None,1989.1210624355035,None,1989.1210624355035,None,1989.1210624355035,None,1990.1374441408834,None,1990.1374441408834,None,c,,,,,,,,,,,,,,,,,,,,,,,,,,,15_16,001,2021_Apr_12_1219,ComputerHuman,2020.1.3,60.0187712621218,
Computer.xlsx,c,Sychronize.jpg,Number9.jpg,9,Computer,,,,,1,0,10,5,0,6,6,6,,,,,,,,,,,,,,,,,,,,,,,,,,,,,,,,,,,,,,,,,,,,,,,,,,,,,,,,,1991.1702091555226,None,1991.1702091555226,None,1991.637065785687,None,1991.637065785687,None,v,8.15318493597806,1991.637065785687,None,t,6.336601719167447,1991.637065785687,None,8.15318493597806,6.336601719167447,9,False,False,False,1999.8516789892738,None,1999.8516789892738,None,1999.8516789892738,None,1999.8516789892738,None,1999.8516789892738,None,1999.8516789892738,None,2000.851369440511,None,2000.851369440511,None,c,,,,,,,,,,,,,,,,,,,,,,,,,,,15_16,001,2021_Apr_12_1219,ComputerHuman,2020.1.3,60.0187712621218,
Computer.xlsx,c,Sychronize.jpg,Number8.jpg,8,Computer,,,,,1,0,10,5,0,7,7,4,,,,,,,,,,,,,,,,,,,,,,,,,,,,,,,,,,,,,,,,,,,,,,,,,,,,,,,,,2001.9178156058124,None,2001.9178156058124,None,2002.3677163417042,None,2002.3677163417042,None,v,6.857734276287374,2002.3677163417042,None,t,6.612600527163522,2002.3677163417042,None,6.857734276287374,6.612600527163522,8,False,False,False,2009.2826279631272,None,2009.2826279631272,None,2009.2826279631272,None,2009.2826279631272,None,2009.2826279631272,None,2009.2826279631272,None,2010.2990744652425,None,2010.2990744652425,None,c,,,,,,,,,,,,,,,,,,,,,,,,,,,15_16,001,2021_Apr_12_1219,ComputerHuman,2020.1.3,60.0187712621218,
Computer.xlsx,c,Sychronize.jpg,Number7.jpg,7,Computer,,,,,1,0,10,5,0,8,8,3,,,,,,,,,,,,,,,,,,,,,,,,,,,,,,,,,,,,,,,,,,,,,,,,,,,,,,,,,2011.3319934523215,None,2011.3319934523215,None,2011.7820898615237,None,2011.7820898615237,None,v,6.226660584756246,2011.7820898615237,None,t,5.273664200862186,2011.7820898615237,None,6.226660584756246,5.273664200862186,7,False,False,False,2018.0804396939666,None,2018.0804396939666,None,2018.0804396939666,None,2018.0804396939666,None,2018.0804396939666,None,2018.0804396939666,None,2019.0802023197875,None,2019.0802023197875,None,c,,,,,,,,,,,,,,,,,,,,,,,,,,,15_16,001,2021_Apr_12_1219,ComputerHuman,2020.1.3,60.0187712621218,
Computer.xlsx,c,Sychronize.jpg,Number10.jpg,10,Computer,,,,,1,0,10,5,0,9,9,9,,,,,,,,,,,,,,,,,,,,,,,,,,,,,,,,,,,,,,,,,,,,,,,,,,,,,,,,,2020.12996557112,None,2020.12996557112,None,2020.5798258892473,None,2020.5798258892473,None,v,7.87242003938627,2020.5798258892473,None,t,6.587910083944735,2020.5798258892473,None,7.87242003938627,6.587910083944735,10,False,False,False,2028.5112350161553,None,2028.5112350161553,None,2028.5112350161553,None,2028.5112350161553,None,2028.5112350161553,None,2028.5112350161553,None,2029.5109386192062,None,2029.5109386192062,None,c,,,,,,,,,,,,,,,,,,,,,,,,,,,15_16,001,2021_Apr_12_1219,ComputerHuman,2020.1.3,60.0187712621218,
Computer.xlsx,c,,,,,,,,,1,0,10,5,,,,,,,,,,,,,,,,,,,,,,,,,,,,,,,,,,,,,,,,,,,,,,,,,,,,,,,,,,,,,,,,,,,,,,,,,,,,,,,,,,,,,,,,,,,,,,,,,,,c,2030.5107060566652,None,2030.5107060566652,None,a,1,9.808227324912878,2030.5107060566652,None,o,0,2.9078539096644818,2030.5107060566652,None,c,h,2040.3750300326456,None,None,None,None,None,None,,,,15_16,001,2021_Apr_12_1219,ComputerHuman,2020.1.3,60.0187712621218,
Human.xlsx,h,Sychronize.jpg,Number8.jpg,8,Human,,,,,1,1,11,2,0,0,0,4,,,,,,,,,,,,,,,,,,,,,,,,,,,,,,,,,,,,,,,,,,,,,,,,,,,,,2045.3736163731728,None,2045.3736163731728,None,2048.455958589112,None,2048.455958589112,None,2048.8894362395304,None,2048.8894362395304,None,v,7.5521499845544895,2048.8894362395304,None,t,7.147586754648728,2048.8894362395304,None,7.5521499845544895,7.147586754648728,8,False,False,False,2056.5041869276747,None,2056.5041869276747,None,2056.5041869276747,None,2056.5041869276747,None,2056.5041869276747,None,2056.5041869276747,None,2057.5205814640913,None,2057.5205814640913,None,h,,,,,,,,,,,,,,,,,,,,,,,,,,,15_16,001,2021_Apr_12_1219,ComputerHuman,2020.1.3,60.0187712621218,
Human.xlsx,h,Sychronize.jpg,Number9.jpg,9,Human,,,,,1,1,11,2,0,1,1,7,,,,,,,,,,,,,,,,,,,,,,,,,,,,,,,,,,,,,,,,,,,,,,,,,,,,,,,,,2058.569996673553,None,2058.569996673553,None,2059.0202310164013,None,2059.0202310164013,None,v,8.492544044940587,2059.0202310164013,None,t,8.035503799430444,2059.0202310164013,None,8.492544044940587,8.035503799430444,9,False,False,False,2067.5846894937213,None,2067.5846894937213,None,2067.5846894937213,None,2067.5846894937213,None,2067.5846894937213,None,2067.5846894937213,None,2068.5844983112756,None,2068.5844983112756,None,h,,,,,,,,,,,,,,,,,,,,,,,,,,,15_16,001,2021_Apr_12_1219,ComputerHuman,2020.1.3,60.0187712621218,
Human.xlsx,h,Sychronize.jpg,Number7.jpg,7,Human,,,,,1,1,11,2,0,2,2,3,,,,,,,,,,,,,,,,,,,,,,,,,,,,,,,,,,,,,,,,,,,,,,,,,,,,,,,,,2069.634236542087,None,2069.634236542087,None,2070.08413952341,None,2070.08413952341,None,v,9.311659146076636,2070.08413952341,None,t,5.623622066945245,2070.08413952341,None,9.311659146076636,5.623622066945245,7,False,False,False,2079.448443130118,None,2079.448443130118,None,2079.448443130118,None,2079.448443130118,None,2079.448443130118,None,2079.448443130118,None,2080.4481313359256,None,2080.4481313359256,None,h,,,,,,,,,,,,,,,,,,,,,,,,,,,15_16,001,2021_Apr_12_1219,ComputerHuman,2020.1.3,60.0187712621218,
Human.xlsx,h,Sychronize.jpg,Number9.jpg,9,Human,,,,,1,1,11,2,0,3,3,6,,,,,,,,,,,,,,,,,,,,,,,,,,,,,,,,,,,,,,,,,,,,,,,,,,,,,,,,,2081.4979324388178,None,2081.4979324388178,None,2081.9477610001277,None,2081.9477610001277,None,v,8.547168655317364,2081.9477610001277,None,t,6.9705152399037615,2081.9477610001277,None,8.547168655317364,6.9705152399037615,9,False,False,False,2090.545698539282,None,2090.545698539282,None,2090.545698539282,None,2090.545698539282,None,2090.545698539282,None,2090.545698539282,None,2091.5620597150037,None,2091.5620597150037,None,h,,,,,,,,,,,,,,,,,,,,,,,,,,,15_16,001,2021_Apr_12_1219,ComputerHuman,2020.1.3,60.0187712621218,
Human.xlsx,h,Sychronize.jpg,Number8.jpg,8,Human,,,,,1,1,11,2,0,4,4,5,,,,,,,,,,,,,,,,,,,,,,,,,,,,,,,,,,,,,,,,,,,,,,,,,,,,,,,,,2092.6114896801564,None,2092.6114896801564,None,2093.0616332434192,None,2093.0616332434192,None,v,7.896354413764129,2093.0616332434192,None,t,6.319618238163457,2093.0616332434192,None,7.896354413764129,6.319618238163457,8,False,False,False,2101.0264659379272,None,2101.0264659379272,None,2101.0264659379272,None,2101.0264659379272,None,2101.0264659379272,None,2101.0264659379272,None,2102.0261271985573,None,2102.0261271985573,None,h,,,,,,,,,,,,,,,,,,,,,,,,,,,15_16,001,2021_Apr_12_1219,ComputerHuman,2020.1.3,60.0187712621218,
Human.xlsx,h,Sychronize.jpg,Number10.jpg,10,Human,,,,,1,1,11,2,0,5,5,8,,,,,,,,,,,,,,,,,,,,,,,,,,,,,,,,,,,,,,,,,,,,,,,,,,,,,,,,,2103.0758163506534,None,2103.0758163506534,None,2103.5257812417303,None,2103.5257812417303,None,v,9.875211110651435,2103.5257812417303,None,t,7.8344003944257565,2103.5257812417303,None,9.875211110651435,7.8344003944257565,10,False,False,False,2113.4565561946483,None,2113.4565561946483,None,2113.4565561946483,None,2113.4565561946483,None,2113.4565561946483,None,2113.4565561946483,None,2114.4563136880524,None,2114.4563136880524,None,h,,,,,,,,,,,,,,,,,,,,,,,,,,,15_16,001,2021_Apr_12_1219,ComputerHuman,2020.1.3,60.0187712621218,
Human.xlsx,h,Sychronize.jpg,Number6.jpg,6,Human,,,,,1,1,11,2,0,6,6,1,,,,,,,,,,,,,,,,,,,,,,,,,,,,,,,,,,,,,,,,,,,,,,,,,,,,,,,,,2115.5059993116147,None,2115.5059993116147,None,2115.955930521218,None,2115.955930521218,None,None,,2115.955930521218,None,t,5.463559374500619,2115.955930521218,None,13,5.463559374500619,6,False,False,False,2129.0027169720297,None,2129.0027169720297,None,2129.0027169720297,None,2129.0027169720297,None,2129.0027169720297,None,2129.0027169720297,None,2130.0024686914685,None,2130.0024686914685,None,h,,,,,,,,,,,,,,,,,,,,,,,,,,,15_16,001,2021_Apr_12_1219,ComputerHuman,2020.1.3,60.0187712621218,
Human.xlsx,h,Sychronize.jpg,Number7.jpg,7,Human,,,,,1,1,11,2,0,7,7,2,,,,,,,,,,,,,,,,,,,,,,,,,,,,,,,,,,,,,,,,,,,,,,,,,,,,,,,,,2131.068527359458,None,2131.068527359458,None,2131.502108620499,None,2131.502108620499,None,v,6.644868659905114,2131.502108620499,None,t,8.152492059994984,2131.502108620499,None,6.644868659905114,8.152492059994984,7,False,False,False,2139.7167256733965,None,2139.7167256733965,None,2139.7167256733965,None,2139.7167256733965,None,2139.7167256733965,None,2139.7167256733965,None,2140.733120209813,None,2140.733120209813,None,h,,,,,,,,,,,,,,,,,,,,,,,,,,,15_16,001,2021_Apr_12_1219,ComputerHuman,2020.1.3,60.0187712621218,
Human.xlsx,h,Sychronize.jpg,Number6.jpg,6,Human,,,,,1,1,11,2,0,8,8,0,,,,,,,,,,,,,,,,,,,,,,,,,,,,,,,,,,,,,,,,,,,,,,,,,,,,,,,,,2141.7995512986445,None,2141.7995512986445,None,2142.232773290657,None,2142.232773290657,None,v,5.493449916133613,2142.232773290657,None,t,6.536552897072397,2142.232773290657,None,5.493449916133613,6.536552897072397,6,False,False,False,2148.831059192459,None,2148.831059192459,None,2148.831059192459,None,2148.831059192459,None,2148.831059192459,None,2148.831059192459,None,2149.8475207710426,None,2149.8475207710426,None,h,,,,,,,,,,,,,,,,,,,,,,,,,,,15_16,001,2021_Apr_12_1219,ComputerHuman,2020.1.3,60.0187712621218,
Human.xlsx,h,Sychronize.jpg,Number10.jpg,10,Human,,,,,1,1,11,2,0,9,9,9,,,,,,,,,,,,,,,,,,,,,,,,,,,,,,,,,,,,,,,,,,,,,,,,,,,,,,,,,2150.8970187406912,None,2150.8970187406912,None,2151.347165832488,None,2151.347165832488,None,v,9.494064843569504,2151.347165832488,None,t,9.34137518560965,2151.347165832488,None,9.494064843569504,9.34137518560965,10,True,False,False,2160.8948486916024,None,2160.8948486916024,None,2160.8948486916024,None,2160.8948486916024,None,2160.8948486916024,None,2160.8948486916024,None,2161.8944512502394,None,2161.8944512502394,None,h,,,,,,,,,,,,,,,,,,,,,,,,,,,15_16,001,2021_Apr_12_1219,ComputerHuman,2020.1.3,60.0187712621218,
Human.xlsx,h,,,,,,,,,1,1,11,2,,,,,,,,,,,,,,,,,,,,,,,,,,,,,,,,,,,,,,,,,,,,,,,,,,,,,,,,,,,,,,,,,,,,,,,,,,,,,,,,,,,,,,,,,,,,,,,,,,,h,2162.8943117127155,None,2162.8943117127155,None,q,1,11.413789066096797,2162.8943117127155,None,o,1,3.2938483839789114,2162.8943117127155,None,h,h,None,None,2174.3580459100913,None,"['space', 'space']",2175.3411516047936,None,"[11.061915847005366, 17.621363483704044]",,,15_16,001,2021_Apr_12_1219,ComputerHuman,2020.1.3,60.0187712621218,
Computer.xlsx,c,Sychronize.jpg,Number6.jpg,6,Computer,,,,,1,2,12,9,0,0,0,0,,,,,,,,,,,,,,,,,,,,,,,,,,,,,,,,,,,,,,,,,,,,,,,,,,,,,2193.020063892148,None,2193.020063892148,None,2196.0856680206607,None,2196.0856680206607,None,2196.519130915388,None,2196.519130915388,None,v,10.25832052635451,2196.519130915388,None,t,6.457604811126657,2196.519130915388,None,10.25832052635451,6.457604811126657,6,False,False,False,2206.849934930605,None,2206.849934930605,None,2206.849934930605,None,2206.849934930605,None,2206.849934930605,None,2206.849934930605,None,2207.84966804504,None,2207.84966804504,None,c,,,,,,,,,,,,,,,,,,,,,,,,,,,15_16,001,2021_Apr_12_1219,ComputerHuman,2020.1.3,60.0187712621218,
Computer.xlsx,c,Sychronize.jpg,Number7.jpg,7,Computer,,,,,1,2,12,9,0,1,1,3,,,,,,,,,,,,,,,,,,,,,,,,,,,,,,,,,,,,,,,,,,,,,,,,,,,,,,,,,2208.8825376326286,None,2208.8825376326286,None,2209.349321767436,None,2209.349321767436,None,v,6.739332356250088,2209.349321767436,None,t,6.086644783334123,2209.349321767436,None,6.739332356250088,6.086644783334123,7,False,True,False,2216.147606963531,None,2216.147606963531,None,2216.147606963531,None,2216.147606963531,None,2216.147606963531,None,2216.147606963531,None,2217.1474443301404,None,2217.1474443301404,None,c,,,,,,,,,,,,,,,,,,,,,,,,,,,15_16,001,2021_Apr_12_1219,ComputerHuman,2020.1.3,60.0187712621218,
Computer.xlsx,c,Sychronize.jpg,Number7.jpg,7,Computer,,,,,1,2,12,9,0,2,2,2,,,,,,,,,,,,,,,,,,,,,,,,,,,,,,,,,,,,,,,,,,,,,,,,,,,,,,,,,2218.2137711667992,None,2218.2137711667992,None,2218.663661637863,None,2218.663661637863,None,v,6.348316776484353,2218.663661637863,None,t,5.999630145366609,2218.663661637863,None,6.348316776484353,5.999630145366609,7,False,False,False,2225.062043836596,None,2225.062043836596,None,2225.062043836596,None,2225.062043836596,None,2225.062043836596,None,2225.062043836596,None,2226.078446071634,None,2226.078446071634,None,c,,,,,,,,,,,,,,,,,,,,,,,,,,,15_16,001,2021_Apr_12_1219,ComputerHuman,2020.1.3,60.0187712621218,
Computer.xlsx,c,Sychronize.jpg,Number10.jpg,10,Computer,,,,,1,2,12,9,0,3,3,8,,,,,,,,,,,,,,,,,,,,,,,,,,,,,,,,,,,,,,,,,,,,,,,,,,,,,,,,,2227.1278991326535,None,2227.1278991326535,None,2227.5613697260023,None,2227.5613697260023,None,v,9.529591097314551,2227.5613697260023,None,t,9.977292593508537,2227.5613697260023,None,9.529591097314551,9.977292593508537,10,False,False,True,2237.5922395965144,None,2237.5922395965144,None,2237.5922395965144,None,2237.5922395965144,None,2237.5922395965144,None,2237.5922395965144,None,2238.6086841739734,None,2238.6086841739734,None,c,,,,,,,,,,,,,,,,,,,,,,,,,,,15_16,001,2021_Apr_12_1219,ComputerHuman,2020.1.3,60.0187712621218,
Computer.xlsx,c,Sychronize.jpg,Number6.jpg,6,Computer,,,,,1,2,12,9,0,4,4,1,,,,,,,,,,,,,,,,,,,,,,,,,,,,,,,,,,,,,,,,,,,,,,,,,,,,,,,,,2239.658338361495,None,2239.658338361495,None,2240.108297478605,None,2240.108297478605,None,v,0.5303923955580103,2240.108297478605,None,t,6.020572963529048,2240.108297478605,None,0.5303923955580103,6.020572963529048,6,False,False,True,2246.1900452967666,None,2246.1900452967666,None,2246.1900452967666,None,2246.1900452967666,None,2246.1900452967666,None,2246.1900452967666,None,2247.1897880344795,None,2247.1897880344795,None,c,,,,,,,,,,,,,,,,,,,,,,,,,,,15_16,001,2021_Apr_12_1219,ComputerHuman,2020.1.3,60.0187712621218,
Computer.xlsx,c,Sychronize.jpg,Number8.jpg,8,Computer,,,,,1,2,12,9,0,5,5,4,,,,,,,,,,,,,,,,,,,,,,,,,,,,,,,,,,,,,,,,,,,,,,,,,,,,,,,,,2248.2393568956077,None,2248.2393568956077,None,2248.689410641612,None,2248.689410641612,None,v,7.272549504546987,2248.689410641612,None,t,7.771900414474658,2248.689410641612,None,7.272549504546987,7.771900414474658,8,False,False,True,2256.520852198967,None,2256.520852198967,None,2256.520852198967,None,2256.520852198967,None,2256.520852198967,None,2256.520852198967,None,2257.537239357537,None,2257.537239357537,None,c,,,,,,,,,,,,,,,,,,,,,,,,,,,15_16,001,2021_Apr_12_1219,ComputerHuman,2020.1.3,60.0187712621218,
Computer.xlsx,c,Sychronize.jpg,Number8.jpg,8,Computer,,,,,1,2,12,9,0,6,6,5,,,,,,,,,,,,,,,,,,,,,,,,,,,,,,,,,,,,,,,,,,,,,,,,,,,,,,,,,2258.570040299078,None,2258.570040299078,None,2259.0369043070905,None,2259.0369043070905,None,v,7.531679348543548,2259.0369043070905,None,t,7.146562837917372,2259.0369043070905,None,7.531679348543548,7.146562837917372,8,False,False,False,2266.6183568510196,None,2266.6183568510196,None,2266.6183568510196,None,2266.6183568510196,None,2266.6183568510196,None,2266.6183568510196,None,2267.617999506646,None,2267.617999506646,None,c,,,,,,,,,,,,,,,,,,,,,,,,,,,15_16,001,2021_Apr_12_1219,ComputerHuman,2020.1.3,60.0187712621218,
Computer.xlsx,c,Sychronize.jpg,Number9.jpg,9,Computer,,,,,1,2,12,9,0,7,7,6,,,,,,,,,,,,,,,,,,,,,,,,,,,,,,,,,,,,,,,,,,,,,,,,,,,,,,,,,2268.6844655600535,None,2268.6844655600535,None,2269.134297649899,None,2269.134297649899,None,v,8.837306945022647,2269.134297649899,None,t,8.732379217441121,2269.134297649899,None,8.837306945022647,8.732379217441121,9,False,True,True,2278.0321664467747,None,2278.0321664467747,None,2278.0321664467747,None,2278.0321664467747,None,2278.0321664467747,None,2278.0321664467747,None,2279.031832519043,None,2279.031832519043,None,c,,,,,,,,,,,,,,,,,,,,,,,,,,,15_16,001,2021_Apr_12_1219,ComputerHuman,2020.1.3,60.0187712621218,
Computer.xlsx,c,Sychronize.jpg,Number9.jpg,9,Computer,,,,,1,2,12,9,0,8,8,7,,,,,,,,,,,,,,,,,,,,,,,,,,,,,,,,,,,,,,,,,,,,,,,,,,,,,,,,,2280.0815723537353,None,2280.0815723537353,None,2280.531457371607,None,2280.531457371607,None,v,8.543303626274792,2280.531457371607,None,t,8.702380574322888,2280.531457371607,None,8.543303626274792,8.702380574322888,9,False,False,True,2289.2959693543517,None,2289.2959693543517,None,2289.2959693543517,None,2289.2959693543517,None,2289.2959693543517,None,2289.2959693543517,None,2290.3124376692294,None,2290.3124376692294,None,c,,,,,,,,,,,,,,,,,,,,,,,,,,,15_16,001,2021_Apr_12_1219,ComputerHuman,2020.1.3,60.0187712621218,
Computer.xlsx,c,Sychronize.jpg,Number10.jpg,10,Computer,,,,,1,2,12,9,0,9,9,9,,,,,,,,,,,,,,,,,,,,,,,,,,,,,,,,,,,,,,,,,,,,,,,,,,,,,,,,,2291.328256412872,None,2291.328256412872,None,2291.8120323688554,None,2291.8120323688554,None,v,8.473758444826672,2291.8120323688554,None,t,8.701357299145457,2291.8120323688554,None,8.473758444826672,8.701357299145457,10,False,False,False,2300.5765594280683,None,2300.5765594280683,None,2300.5765594280683,None,2300.5765594280683,None,2300.5765594280683,None,2300.5765594280683,None,2301.592919962238,None,2301.592919962238,None,c,,,,,,,,,,,,,,,,,,,,,,,,,,,15_16,001,2021_Apr_12_1219,ComputerHuman,2020.1.3,60.0187712621218,
Computer.xlsx,c,,,,,,,,,1,2,12,9,,,,,,,,,,,,,,,,,,,,,,,,,,,,,,,,,,,,,,,,,,,,,,,,,,,,,,,,,,,,,,,,,,,,,,,,,,,,,,,,,,,,,,,,,,,,,,,,,,,c,2302.5926620583987,None,2302.5926620583987,None,a,1,6.1684625306461385,2302.5926620583987,None,l,1,3.3238919357245322,2302.5926620583987,None,c,c,2308.824440622934,None,None,None,None,None,None,,,,15_16,001,2021_Apr_12_1219,ComputerHuman,2020.1.3,60.0187712621218,
Computer.xlsx,c,Sychronize.jpg,Number10.jpg,10,Computer,,,,,1,3,13,7,0,0,0,9,,,,,,,,,,,,,,,,,,,,,,,,,,,,,,,,,,,,,,,,,,,,,,,,,,,,,2313.8231135729593,None,2313.8231135729593,None,2316.88885242736,None,2316.88885242736,None,2317.338929269231,None,2317.338929269231,None,v,9.432716128389075,2317.338929269231,None,t,9.456263647010928,2317.338929269231,None,9.432716128389075,9.456263647010928,10,False,False,False,2326.85318823997,None,2326.85318823997,None,2326.85318823997,None,2326.85318823997,None,2326.85318823997,None,2326.85318823997,None,2327.869661687261,None,2327.869661687261,None,c,,,,,,,,,,,,,,,,,,,,,,,,,,,15_16,001,2021_Apr_12_1219,ComputerHuman,2020.1.3,60.0187712621218,
Computer.xlsx,c,Sychronize.jpg,Number8.jpg,8,Computer,,,,,1,3,13,7,0,1,1,4,,,,,,,,,,,,,,,,,,,,,,,,,,,,,,,,,,,,,,,,,,,,,,,,,,,,,,,,,2328.9194149945424,None,2328.9194149945424,None,2329.352652063021,None,2329.352652063021,None,v,9.370009247968483,2329.352652063021,None,t,7.321905370463355,2329.352652063021,None,9.370009247968483,7.321905370463355,8,False,False,False,2338.7836257366207,None,2338.7836257366207,None,2338.7836257366207,None,2338.7836257366207,None,2338.7836257366207,None,2338.7836257366207,None,2339.800028613211,None,2339.800028613211,None,c,,,,,,,,,,,,,,,,,,,,,,,,,,,15_16,001,2021_Apr_12_1219,ComputerHuman,2020.1.3,60.0187712621218,
Computer.xlsx,c,Sychronize.jpg,Number6.jpg,6,Computer,,,,,1,3,13,7,0,2,2,1,,,,,,,,,,,,,,,,,,,,,,,,,,,,,,,,,,,,,,,,,,,,,,,,,,,,,,,,,2340.8494823157844,None,2340.8494823157844,None,2341.2996448048243,None,2341.2996448048243,None,v,5.438391295938345,2341.2996448048243,None,t,5.722208375394985,2341.2996448048243,None,5.438391295938345,5.722208375394985,6,False,False,True,2347.0815547110587,None,2347.0815547110587,None,2347.0815547110587,None,2347.0815547110587,None,2347.0815547110587,None,2347.0815547110587,None,2348.081261201093,None,2348.081261201093,None,c,,,,,,,,,,,,,,,,,,,,,,,,,,,15_16,001,2021_Apr_12_1219,ComputerHuman,2020.1.3,60.0187712621218,
Computer.xlsx,c,Sychronize.jpg,Number10.jpg,10,Computer,,,,,1,3,13,7,0,3,3,8,,,,,,,,,,,,,,,,,,,,,,,,,,,,,,,,,,,,,,,,,,,,,,,,,,,,,,,,,2349.1307614161733,None,2349.1307614161733,None,2349.5807911039856,None,2349.5807911039856,None,v,8.716302569959225,2349.5807911039856,None,t,8.703416038988507,2349.5807911039856,None,8.716302569959225,8.703416038988507,10,False,False,False,2358.3620690816597,None,2358.3620690816597,None,2358.3620690816597,None,2358.3620690816597,None,2358.3620690816597,None,2358.3620690816597,None,2359.3784748452335,None,2359.3784748452335,None,c,,,,,,,,,,,,,,,,,,,,,,,,,,,15_16,001,2021_Apr_12_1219,ComputerHuman,2020.1.3,60.0187712621218,
Computer.xlsx,c,Sychronize.jpg,Number8.jpg,8,Computer,,,,,1,3,13,7,0,4,4,5,,,,,,,,,,,,,,,,,,,,,,,,,,,,,,,,,,,,,,,,,,,,,,,,,,,,,,,,,2360.4280565373965,None,2360.4280565373965,None,2360.8614411627996,None,2360.8614411627996,None,v,0.6513470503523422,2360.8614411627996,None,None,,2360.8614411627996,None,0.6513470503523422,13,8,False,False,False,2373.908152231269,None,2373.908152231269,None,2373.908152231269,None,2373.908152231269,None,2373.908152231269,None,2373.908152231269,None,2374.92459745028,None,2374.92459745028,None,c,,,,,,,,,,,,,,,,,,,,,,,,,,,15_16,001,2021_Apr_12_1219,ComputerHuman,2020.1.3,60.0187712621218,
Computer.xlsx,c,Sychronize.jpg,Number6.jpg,6,Computer,,,,,1,3,13,7,0,5,5,0,,,,,,,,,,,,,,,,,,,,,,,,,,,,,,,,,,,,,,,,,,,,,,,,,,,,,,,,,2375.9740165090525,None,2375.9740165090525,None,2376.424270419232,None,2376.424270419232,None,v,5.258925830512453,2376.424270419232,None,t,6.474599198509168,2376.424270419232,None,5.258925830512453,6.474599198509168,6,False,False,False,2382.956053057619,None,2382.956053057619,None,2382.956053057619,None,2382.956053057619,None,2382.956053057619,None,2382.956053057619,None,2383.9556543331537,None,2383.9556543331537,None,c,,,,,,,,,,,,,,,,,,,,,,,,,,,15_16,001,2021_Apr_12_1219,ComputerHuman,2020.1.3,60.0187712621218,
Computer.xlsx,c,Sychronize.jpg,Number9.jpg,9,Computer,,,,,1,3,13,7,0,6,6,7,,,,,,,,,,,,,,,,,,,,,,,,,,,,,,,,,,,,,,,,,,,,,,,,,,,,,,,,,2385.022079006466,None,2385.022079006466,None,2385.471927776661,None,2385.471927776661,None,v,7.630287469753966,2385.471927776661,None,t,8.641361296011382,2385.471927776661,None,7.630287469753966,8.641361296011382,9,False,False,False,2394.1697578238045,None,2394.1697578238045,None,2394.1697578238045,None,2394.1697578238045,None,2394.1697578238045,None,2394.1697578238045,None,2395.1694777864277,None,2395.1694777864277,None,c,,,,,,,,,,,,,,,,,,,,,,,,,,,15_16,001,2021_Apr_12_1219,ComputerHuman,2020.1.3,60.0187712621218,
Computer.xlsx,c,Sychronize.jpg,Number7.jpg,7,Computer,,,,,1,3,13,7,0,7,7,3,,,,,,,,,,,,,,,,,,,,,,,,,,,,,,,,,,,,,,,,,,,,,,,,,,,,,,,,,2396.2359229894,None,2396.2359229894,None,2396.6690718445034,None,2396.6690718445034,None,v,6.720384764299524,2396.6690718445034,None,t,6.891530585502551,2396.6690718445034,None,6.720384764299524,6.891530585502551,7,False,True,True,2403.634071342488,None,2403.634071342488,None,2403.634071342488,None,2403.634071342488,None,2403.634071342488,None,2403.634071342488,None,2404.6337897012318,None,2404.6337897012318,None,c,,,,,,,,,,,,,,,,,,,,,,,,,,,15_16,001,2021_Apr_12_1219,ComputerHuman,2020.1.3,60.0187712621218,
Computer.xlsx,c,Sychronize.jpg,Number7.jpg,7,Computer,,,,,1,3,13,7,0,8,8,2,,,,,,,,,,,,,,,,,,,,,,,,,,,,,,,,,,,,,,,,,,,,,,,,,,,,,,,,,2405.666612455537,None,2405.666612455537,None,2406.1334604247522,None,2406.1334604247522,None,v,7.331192154077144,2406.1334604247522,None,t,6.610596319223987,2406.1334604247522,None,7.331192154077144,6.610596319223987,7,False,False,False,2413.5148315557535,None,2413.5148315557535,None,2413.5148315557535,None,2413.5148315557535,None,2413.5148315557535,None,2413.5148315557535,None,2414.514645184944,None,2414.514645184944,None,c,,,,,,,,,,,,,,,,,,,,,,,,,,,15_16,001,2021_Apr_12_1219,ComputerHuman,2020.1.3,60.0187712621218,
Computer.xlsx,c,Sychronize.jpg,Number9.jpg,9,Computer,,,,,1,3,13,7,0,9,9,6,,,,,,,,,,,,,,,,,,,,,,,,,,,,,,,,,,,,,,,,,,,,,,,,,,,,,,,,,2415.581078198432,None,2415.581078198432,None,2416.014318795448,None,2416.014318795448,None,v,8.713344374440567,2416.014318795448,None,t,9.028412085424861,2416.014318795448,None,8.713344374440567,9.028412085424861,9,False,True,True,2425.095389776422,None,2425.095389776422,None,2425.095389776422,None,2425.095389776422,None,2425.095389776422,None,2425.095389776422,None,2426.1118035593927,None,2426.1118035593927,None,c,,,,,,,,,,,,,,,,,,,,,,,,,,,15_16,001,2021_Apr_12_1219,ComputerHuman,2020.1.3,60.0187712621218,
