Condition,CorrectTuringReply,Sychronize,NumberImage,Number,Partner,trials.thisRepN,trials.thisTrialN,trials.thisN,trials.thisIndex,Block.thisRepN,Block.thisTrialN,Block.thisN,Block.thisIndex,trials_loop.thisRepN,trials_loop.thisTrialN,trials_loop.thisN,trials_loop.thisIndex,textLeft.started,textLeft.stopped,textRight.started,textRight.stopped,key_resp_Istr.keys,key_resp_Istr.rt,key_resp_Istr.started,key_resp_Istr.stopped,SychroLeftPr.started,SychroLeftPr.stopped,SychroRightPr.started,SychroRightPr.stopped,NumberLeftPr.started,NumberLeftPr.stopped,NumberRightPr.started,NumberRightPr.stopped,CrossLeftPr.started,CrossLeftPr.stopped,CrossRightPr.started,CrossRightPr.stopped,key_respPrLeft.keys,key_respPrLeft.rt,key_respPrLeft.started,key_respPrLeft.stopped,key_respPrRight.keys,key_respPrRight.rt,key_respPrRight.started,key_respPrRight.stopped,RTPrLeft,RTPrRight,CompPr,SychronizedRTsPr,SychronizedRTsLeftCPr,SychronizedRTsRightCPr,FeedbackLeftLeftPr.started,FeedbackLeftLeftPr.stopped,FeedbackRightRightPr.started,FeedbackRightRightPr.stopped,LineLeftPr.started,LineLeftPr.stopped,LineRightPr.started,LineRightPr.stopped,CreditLeftPr.started,CreditLeftPr.stopped,CreditRightPr.started,CreditRightPr.stopped,text_StartExp.started,text_StartExp.stopped,key_startExp.keys,key_startExp.rt,key_startExp.started,key_startExp.stopped,SychroLeft.started,SychroLeft.stopped,SychroRight.started,SychroRight.stopped,NumberLeft.started,NumberLeft.stopped,NumberRight.started,NumberRight.stopped,CrossLeft.started,CrossLeft.stopped,CrossRight.started,CrossRight.stopped,key_respLeft.keys,key_respLeft.rt,key_respLeft.started,key_respLeft.stopped,key_respRight.keys,key_respRight.rt,key_respRight.started,key_respRight.stopped,RTLeft,RTRight,Comp,SychronizedRTs,SychronizedRTsLeftC,SychronizedRTsRightC,FeedbackLeftLeft.started,FeedbackLeftLeft.stopped,FeedbackLeftRight.started,FeedbackLeftRight.stopped,FeedbackRightLeft.started,FeedbackRightLeft.stopped,FeedbackRightRight.started,FeedbackRightRight.stopped,LineLeft.started,LineLeft.stopped,LineRight.started,LineRight.stopped,CreditLeft.started,CreditLeft.stopped,CreditRight.started,CreditRight.stopped,CorrectTuringReply,TuringtextLeft.started,TuringtextLeft.stopped,TuringtextRight.started,TuringtextRight.stopped,keyTuringLeft.keys,keyTuringLeft.corr,keyTuringLeft.rt,keyTuringLeft.started,keyTuringLeft.stopped,keyTuringRight.keys,keyTuringRight.corr,keyTuringRight.rt,keyTuringRight.started,keyTuringRight.stopped,RespTuringLeft,RespTuringRight,BlockText.started,BlockText.stopped,text_Pause.started,text_Pause.stopped,key_respPause.keys,key_respPause.started,key_respPause.stopped,key_respPause.rt,EndText.started,EndText.stopped,participant,session,date,expName,psychopyVersion,frameRate,
,,,,,,,,,,,,,,,,,,12.407198771034928,None,12.407198771034928,None,"['v', 'v', 'v', 'v', 't']","[484.1694169635739, 489.0490469525939, 503.8439877065057, 528.4462939076893, 536.9494765063819]",13.272621182701187,None,,,,,,,,,,,,,,,,,,,,,,,,,,,,,,,,,,,,,,,,,,,,,,,,,,,,,,,,,,,,,,,,,,,,,,,,,,,,,,,,,,,,,,,,,,,,,,,,,,,,,,,,,,,,,,,,,,1_2,001,2021_Apr_07_1141,ComputerHuman,2020.1.3,60.00313737277559,
,,,,,,,,,,,,,,,,,,,,,,,,,,550.2751402521499,None,550.2751402521499,None,601.5124068901823,None,601.5124068901823,None,601.962563285485,None,601.962563285485,None,v,6.7271523480467295,601.962563285485,None,t,7.646112924753652,601.962563285485,None,6.7271523480467295,7.646112924753652,8,False,False,False,609.6606736786589,None,609.6606736786589,None,609.6606736786589,None,609.6606736786589,None,610.6770484320205,None,610.6770484320205,None,611.6768556444567,None,"['space', 'space']","[1.1934134016546523, 2.4813292782719145]",612.6599275490862,None,,,,,,,,,,,,,,,,,,,,,,,,,,,,,,,,,,,,,,,,,,,,,,,,,,,,,,,,,,,,,,,,,,,,,,1_2,001,2021_Apr_07_1141,ComputerHuman,2020.1.3,60.00313737277559,
Human.xlsx,h,Sychronize.jpg,Number9.jpg,9,Human,,,,,0,0,0,4,0,0,0,7,,,,,,,,,,,,,,,,,,,,,,,,,,,,,,,,,,,,,,,,,,,,,,,,,,,,,615.209298006268,None,615.209298006268,None,618.2752262206477,None,618.2752262206477,None,618.6917467996782,None,618.6917467996782,None,v,8.264689305678985,618.6917467996782,None,t,8.956004979757381,618.6917467996782,None,8.264689305678985,8.956004979757381,9,False,False,False,627.7063123652524,None,627.7063123652524,None,627.7063123652524,None,627.7063123652524,None,627.7063123652524,None,627.7063123652524,None,628.7226232837975,None,628.7226232837975,None,h,,,,,,,,,,,,,,,,,,,,,,,,,,,1_2,001,2021_Apr_07_1141,ComputerHuman,2020.1.3,60.00313737277559,
Human.xlsx,h,Sychronize.jpg,Number6.jpg,6,Human,,,,,0,0,0,4,0,1,1,1,,,,,,,,,,,,,,,,,,,,,,,,,,,,,,,,,,,,,,,,,,,,,,,,,,,,,,,,,629.7722524484179,None,629.7722524484179,None,630.2223360271191,None,630.2223360271191,None,v,5.849312300135352,630.2223360271191,None,t,6.3841297020835555,630.2223360271191,None,5.849312300135352,6.3841297020835555,6,False,False,False,636.6707493148979,None,636.6707493148979,None,636.6707493148979,None,636.6707493148979,None,636.6707493148979,None,636.6707493148979,None,637.6705068067477,None,637.6705068067477,None,h,,,,,,,,,,,,,,,,,,,,,,,,,,,1_2,001,2021_Apr_07_1141,ComputerHuman,2020.1.3,60.00313737277559,
Human.xlsx,h,Sychronize.jpg,Number9.jpg,9,Human,,,,,0,0,0,4,0,2,2,6,,,,,,,,,,,,,,,,,,,,,,,,,,,,,,,,,,,,,,,,,,,,,,,,,,,,,,,,,638.7367224381942,None,638.7367224381942,None,639.1868284713546,None,639.1868284713546,None,v,8.2720668783586,639.1868284713546,None,t,10.006893518712786,639.1868284713546,None,8.2720668783586,10.006893518712786,9,False,False,False,649.2510533546792,None,649.2510533546792,None,649.2510533546792,None,649.2510533546792,None,649.2510533546792,None,649.2510533546792,None,650.2507986569663,None,650.2507986569663,None,h,,,,,,,,,,,,,,,,,,,,,,,,,,,1_2,001,2021_Apr_07_1141,ComputerHuman,2020.1.3,60.00313737277559,
Human.xlsx,h,Sychronize.jpg,Number8.jpg,8,Human,,,,,0,0,0,4,0,3,3,4,,,,,,,,,,,,,,,,,,,,,,,,,,,,,,,,,,,,,,,,,,,,,,,,,,,,,,,,,651.3169126017947,None,651.3169126017947,None,651.7504296019042,None,651.7504296019042,None,v,7.915424320295642,651.7504296019042,None,t,8.546974245698038,651.7504296019042,None,7.915424320295642,8.546974245698038,8,False,False,False,660.3483658447158,None,660.3483658447158,None,660.3483658447158,None,660.3483658447158,None,660.3483658447158,None,660.3483658447158,None,661.3647357864074,None,661.3647357864074,None,h,,,,,,,,,,,,,,,,,,,,,,,,,,,1_2,001,2021_Apr_07_1141,ComputerHuman,2020.1.3,60.00313737277559,
Human.xlsx,h,Sychronize.jpg,Number7.jpg,7,Human,,,,,0,0,0,4,0,4,4,2,,,,,,,,,,,,,,,,,,,,,,,,,,,,,,,,,,,,,,,,,,,,,,,,,,,,,,,,,662.4310919186082,None,662.4310919186082,None,662.864390789694,None,662.864390789694,None,v,7.516675803492944,662.864390789694,None,t,6.880133289664627,662.864390789694,None,7.516675803492944,6.880133289664627,7,False,False,False,670.4458833118779,None,670.4458833118779,None,670.4458833118779,None,670.4458833118779,None,670.4458833118779,None,670.4458833118779,None,671.4456366336144,None,671.4456366336144,None,h,,,,,,,,,,,,,,,,,,,,,,,,,,,1_2,001,2021_Apr_07_1141,ComputerHuman,2020.1.3,60.00313737277559,
Human.xlsx,h,Sychronize.jpg,Number10.jpg,10,Human,,,,,0,0,0,4,0,5,5,8,,,,,,,,,,,,,,,,,,,,,,,,,,,,,,,,,,,,,,,,,,,,,,,,,,,,,,,,,672.5120055969337,None,672.5120055969337,None,672.9619483541037,None,672.9619483541037,None,v,9.734176102618221,672.9619483541037,None,t,9.538012350593817,672.9619483541037,None,9.734176102618221,9.538012350593817,10,True,False,False,682.7595499613299,None,682.7595499613299,None,682.7595499613299,None,682.7595499613299,None,682.7595499613299,None,682.7595499613299,None,683.759288206501,None,683.759288206501,None,h,,,,,,,,,,,,,,,,,,,,,,,,,,,1_2,001,2021_Apr_07_1141,ComputerHuman,2020.1.3,60.00313737277559,
Human.xlsx,h,Sychronize.jpg,Number8.jpg,8,Human,,,,,0,0,0,4,0,6,6,5,,,,,,,,,,,,,,,,,,,,,,,,,,,,,,,,,,,,,,,,,,,,,,,,,,,,,,,,,684.825486515937,None,684.825486515937,None,685.2590153848323,None,685.2590153848323,None,v,7.820338670971978,685.2590153848323,None,t,8.128046548733437,685.2590153848323,None,7.820338670971978,8.128046548733437,8,False,False,False,693.4402549415045,None,693.4402549415045,None,693.4402549415045,None,693.4402549415045,None,693.4402549415045,None,693.4402549415045,None,694.4566614518853,None,694.4566614518853,None,h,,,,,,,,,,,,,,,,,,,,,,,,,,,1_2,001,2021_Apr_07_1141,ComputerHuman,2020.1.3,60.00313737277559,
Human.xlsx,h,Sychronize.jpg,Number7.jpg,7,Human,,,,,0,0,0,4,0,7,7,3,,,,,,,,,,,,,,,,,,,,,,,,,,,,,,,,,,,,,,,,,,,,,,,,,,,,,,,,,695.5061760987683,None,695.5061760987683,None,695.9563591186425,None,695.9563591186425,None,v,6.718275459105826,695.9563591186425,None,t,5.88919013505074,695.9563591186425,None,6.718275459105826,5.88919013505074,7,False,False,False,702.7380270422245,None,702.7380270422245,None,702.7380270422245,None,702.7380270422245,None,702.7380270422245,None,702.7380270422245,None,703.7377588718364,None,703.7377588718364,None,h,,,,,,,,,,,,,,,,,,,,,,,,,,,1_2,001,2021_Apr_07_1141,ComputerHuman,2020.1.3,60.00313737277559,
Human.xlsx,h,Sychronize.jpg,Number10.jpg,10,Human,,,,,0,0,0,4,0,8,8,9,,,,,,,,,,,,,,,,,,,,,,,,,,,,,,,,,,,,,,,,,,,,,,,,,,,,,,,,,704.82090805188,None,704.82090805188,None,705.2540600066523,None,705.2540600066523,None,v,8.427762563990655,705.2540600066523,None,t,10.218862963969514,705.2540600066523,None,8.427762563990655,10.218862963969514,10,False,False,False,715.5349370521335,None,715.5349370521335,None,715.5349370521335,None,715.5349370521335,None,715.5349370521335,None,715.5349370521335,None,716.5346570129595,None,716.5346570129595,None,h,,,,,,,,,,,,,,,,,,,,,,,,,,,1_2,001,2021_Apr_07_1141,ComputerHuman,2020.1.3,60.00313737277559,
Human.xlsx,h,Sychronize.jpg,Number6.jpg,6,Human,,,,,0,0,0,4,0,9,9,0,,,,,,,,,,,,,,,,,,,,,,,,,,,,,,,,,,,,,,,,,,,,,,,,,,,,,,,,,717.6009207611032,None,717.6009207611032,None,718.0342257269704,None,718.0342257269704,None,v,7.610732717846076,718.0342257269704,None,t,5.666176945623192,718.0342257269704,None,7.610732717846076,5.666176945623192,6,False,False,False,725.6991327125843,None,725.6991327125843,None,725.6991327125843,None,725.6991327125843,None,725.6991327125843,None,725.6991327125843,None,726.7154821244867,None,726.7154821244867,None,h,,,,,,,,,,,,,,,,,,,,,,,,,,,1_2,001,2021_Apr_07_1141,ComputerHuman,2020.1.3,60.00313737277559,
Human.xlsx,h,,,,,,,,,0,0,0,4,,,,,,,,,,,,,,,,,,,,,,,,,,,,,,,,,,,,,,,,,,,,,,,,,,,,,,,,,,,,,,,,,,,,,,,,,,,,,,,,,,,,,,,,,,,,,,,,,,,h,727.7146471394135,None,727.7146471394135,None,a,0,5.781770893311659,727.7146471394135,None,l,0,8.025130067449936,727.7146471394135,None,c,c,735.7965924397122,None,None,None,None,None,None,,,,1_2,001,2021_Apr_07_1141,ComputerHuman,2020.1.3,60.00313737277559,
Human.xlsx,h,Sychronize.jpg,Number8.jpg,8,Human,,,,,0,1,1,8,0,0,0,4,,,,,,,,,,,,,,,,,,,,,,,,,,,,,,,,,,,,,,,,,,,,,,,,,,,,,740.8120375784983,None,740.8120375784983,None,743.8944585925346,None,743.8944585925346,None,744.327924909725,None,744.327924909725,None,v,7.03512454686097,744.327924909725,None,t,7.278078899192224,744.327924909725,None,7.03512454686097,7.278078899192224,8,True,False,False,751.659407247208,None,751.659407247208,None,751.659407247208,None,751.659407247208,None,751.659407247208,None,751.659407247208,None,752.6592481413318,None,752.6592481413318,None,h,,,,,,,,,,,,,,,,,,,,,,,,,,,1_2,001,2021_Apr_07_1141,ComputerHuman,2020.1.3,60.00313737277559,
Human.xlsx,h,Sychronize.jpg,Number9.jpg,9,Human,,,,,0,1,1,8,0,1,1,6,,,,,,,,,,,,,,,,,,,,,,,,,,,,,,,,,,,,,,,,,,,,,,,,,,,,,,,,,753.7252055465078,None,753.7252055465078,None,754.1588290449054,None,754.1588290449054,None,v,7.651358607002294,754.1588290449054,None,t,9.582897208942995,754.1588290449054,None,7.651358607002294,9.582897208942995,9,False,False,False,763.8064823455024,None,763.8064823455024,None,763.8064823455024,None,763.8064823455024,None,763.8064823455024,None,763.8064823455024,None,764.8062581216973,None,764.8062581216973,None,h,,,,,,,,,,,,,,,,,,,,,,,,,,,1_2,001,2021_Apr_07_1141,ComputerHuman,2020.1.3,60.00313737277559,
Human.xlsx,h,Sychronize.jpg,Number9.jpg,9,Human,,,,,0,1,1,8,0,2,2,7,,,,,,,,,,,,,,,,,,,,,,,,,,,,,,,,,,,,,,,,,,,,,,,,,,,,,,,,,765.856013993618,None,765.856013993618,None,766.305899010752,None,766.305899010752,None,v,9.003322618279526,766.305899010752,None,t,8.234970830054408,766.305899010752,None,9.003322618279526,8.234970830054408,9,False,False,False,775.3702477143761,None,775.3702477143761,None,775.3702477143761,None,775.3702477143761,None,775.3702477143761,None,775.3702477143761,None,776.3866571117596,None,776.3866571117596,None,h,,,,,,,,,,,,,,,,,,,,,,,,,,,1_2,001,2021_Apr_07_1141,ComputerHuman,2020.1.3,60.00313737277559,
Human.xlsx,h,Sychronize.jpg,Number8.jpg,8,Human,,,,,0,1,1,8,0,3,3,5,,,,,,,,,,,,,,,,,,,,,,,,,,,,,,,,,,,,,,,,,,,,,,,,,,,,,,,,,777.4364367212511,None,777.4364367212511,None,777.8864102731068,None,777.8864102731068,None,v,8.106085767691184,777.8864102731068,None,t,6.7490964486351,777.8864102731068,None,8.106085767691184,6.7490964486351,8,False,False,False,786.0509632802241,None,786.0509632802241,None,786.0509632802241,None,786.0509632802241,None,786.0509632802241,None,786.0509632802241,None,787.0507724173276,None,787.0507724173276,None,h,,,,,,,,,,,,,,,,,,,,,,,,,,,1_2,001,2021_Apr_07_1141,ComputerHuman,2020.1.3,60.00313737277559,
Human.xlsx,h,Sychronize.jpg,Number7.jpg,7,Human,,,,,0,1,1,8,0,4,4,2,,,,,,,,,,,,,,,,,,,,,,,,,,,,,,,,,,,,,,,,,,,,,,,,,,,,,,,,,788.1171744207786,None,788.1171744207786,None,788.5670902325992,None,788.5670902325992,None,v,5.360727344815132,788.5670902325992,None,t,6.608146605799448,788.5670902325992,None,5.360727344815132,6.608146605799448,7,False,False,False,795.2320793373747,None,795.2320793373747,None,795.2320793373747,None,795.2320793373747,None,795.2320793373747,None,795.2320793373747,None,796.2485791941472,None,796.2485791941472,None,h,,,,,,,,,,,,,,,,,,,,,,,,,,,1_2,001,2021_Apr_07_1141,ComputerHuman,2020.1.3,60.00313737277559,
Human.xlsx,h,Sychronize.jpg,Number10.jpg,10,Human,,,,,0,1,1,8,0,5,5,8,,,,,,,,,,,,,,,,,,,,,,,,,,,,,,,,,,,,,,,,,,,,,,,,,,,,,,,,,797.2983061960504,None,797.2983061960504,None,797.7308608622316,None,797.7308608622316,None,v,8.048121828908734,797.7308608622316,None,t,8.655279796985269,797.7308608622316,None,8.048121828908734,8.655279796985269,10,False,False,False,806.4626991349578,None,806.4626991349578,None,806.4626991349578,None,806.4626991349578,None,806.4626991349578,None,806.4626991349578,None,807.4624492489138,None,807.4624492489138,None,h,,,,,,,,,,,,,,,,,,,,,,,,,,,1_2,001,2021_Apr_07_1141,ComputerHuman,2020.1.3,60.00313737277559,
Human.xlsx,h,Sychronize.jpg,Number7.jpg,7,Human,,,,,0,1,1,8,0,6,6,3,,,,,,,,,,,,,,,,,,,,,,,,,,,,,,,,,,,,,,,,,,,,,,,,,,,,,,,,,808.5121752884834,None,808.5121752884834,None,808.962084043188,None,808.962084043188,None,v,5.728228878935624,808.962084043188,None,t,5.1792417514352564,808.962084043188,None,5.728228878935624,5.1792417514352564,7,False,False,False,814.7439460374453,None,814.7439460374453,None,814.7439460374453,None,814.7439460374453,None,814.7439460374453,None,814.7439460374453,None,815.7438533326103,None,815.7438533326103,None,h,,,,,,,,,,,,,,,,,,,,,,,,,,,1_2,001,2021_Apr_07_1141,ComputerHuman,2020.1.3,60.00313737277559,
Human.xlsx,h,Sychronize.jpg,Number6.jpg,6,Human,,,,,0,1,1,8,0,7,7,1,,,,,,,,,,,,,,,,,,,,,,,,,,,,,,,,,,,,,,,,,,,,,,,,,,,,,,,,,816.8097870002157,None,816.8097870002157,None,817.2434653516475,None,817.2434653516475,None,v,4.546301253503771,817.2434653516475,None,t,4.369273190884996,817.2434653516475,None,4.546301253503771,4.369273190884996,6,True,False,False,821.8590803102943,None,821.8590803102943,None,821.8590803102943,None,821.8590803102943,None,821.8590803102943,None,821.8590803102943,None,822.8587351531914,None,822.8587351531914,None,h,,,,,,,,,,,,,,,,,,,,,,,,,,,1_2,001,2021_Apr_07_1141,ComputerHuman,2020.1.3,60.00313737277559,
Human.xlsx,h,Sychronize.jpg,Number10.jpg,10,Human,,,,,0,1,1,8,0,8,8,9,,,,,,,,,,,,,,,,,,,,,,,,,,,,,,,,,,,,,,,,,,,,,,,,,,,,,,,,,823.9084923082246,None,823.9084923082246,None,824.3583282463287,None,824.3583282463287,None,v,7.830667080256717,824.3583282463287,None,t,8.233995985784532,824.3583282463287,None,7.830667080256717,8.233995985784532,10,False,False,False,832.6563640265458,None,832.6563640265458,None,832.6563640265458,None,832.6563640265458,None,832.6563640265458,None,832.6563640265458,None,833.6561305001787,None,833.6561305001787,None,h,,,,,,,,,,,,,,,,,,,,,,,,,,,1_2,001,2021_Apr_07_1141,ComputerHuman,2020.1.3,60.00313737277559,
Human.xlsx,h,Sychronize.jpg,Number6.jpg,6,Human,,,,,0,1,1,8,0,9,9,0,,,,,,,,,,,,,,,,,,,,,,,,,,,,,,,,,,,,,,,,,,,,,,,,,,,,,,,,,834.7221960075331,None,834.7221960075331,None,835.1557457269964,None,835.1557457269964,None,v,4.404664945799595,835.1557457269964,None,t,3.9724644185052966,835.1557457269964,None,4.404664945799595,3.9724644185052966,6,False,False,False,839.6379709381563,None,839.6379709381563,None,839.6379709381563,None,839.6379709381563,None,839.6379709381563,None,839.6379709381563,None,840.6377361286777,None,840.6377361286777,None,h,,,,,,,,,,,,,,,,,,,,,,,,,,,1_2,001,2021_Apr_07_1141,ComputerHuman,2020.1.3,60.00313737277559,
Human.xlsx,h,,,,,,,,,0,1,1,8,,,,,,,,,,,,,,,,,,,,,,,,,,,,,,,,,,,,,,,,,,,,,,,,,,,,,,,,,,,,,,,,,,,,,,,,,,,,,,,,,,,,,,,,,,,,,,,,,,,h,841.6375625877927,None,841.6375625877927,None,q,1,3.298485510939827,841.6375625877927,None,o,1,6.145221643147124,841.6375625877927,None,h,h,847.8360048257837,None,None,None,None,None,None,,,,1_2,001,2021_Apr_07_1141,ComputerHuman,2020.1.3,60.00313737277559,
Human.xlsx,h,Sychronize.jpg,Number7.jpg,7,Human,,,,,0,2,2,2,0,0,0,3,,,,,,,,,,,,,,,,,,,,,,,,,,,,,,,,,,,,,,,,,,,,,,,,,,,,,852.8347942097007,None,852.8347942097007,None,855.9170939696623,None,855.9170939696623,None,856.3672410624031,None,856.3672410624031,None,v,5.699501607257844,856.3672410624031,None,t,5.507276046449988,856.3672410624031,None,5.699501607257844,5.507276046449988,7,True,False,False,862.1159195373348,None,862.1159195373348,None,862.1159195373348,None,862.1159195373348,None,862.1159195373348,None,862.1159195373348,None,863.1321056732468,None,863.1321056732468,None,h,,,,,,,,,,,,,,,,,,,,,,,,,,,1_2,001,2021_Apr_07_1141,ComputerHuman,2020.1.3,60.00313737277559,
Human.xlsx,h,Sychronize.jpg,Number8.jpg,8,Human,,,,,0,2,2,2,0,1,1,5,,,,,,,,,,,,,,,,,,,,,,,,,,,,,,,,,,,,,,,,,,,,,,,,,,,,,,,,,864.1817383664247,None,864.1817383664247,None,864.6151963433877,None,864.6151963433877,None,v,6.870867938593619,864.6151963433877,None,t,6.234139694318401,864.6151963433877,None,6.870867938593619,6.234139694318401,8,False,False,False,871.5634067390956,None,871.5634067390956,None,871.5634067390956,None,871.5634067390956,None,871.5634067390956,None,871.5634067390956,None,872.5632793902387,None,872.5632793902387,None,h,,,,,,,,,,,,,,,,,,,,,,,,,,,1_2,001,2021_Apr_07_1141,ComputerHuman,2020.1.3,60.00313737277559,
Human.xlsx,h,Sychronize.jpg,Number6.jpg,6,Human,,,,,0,2,2,2,0,2,2,0,,,,,,,,,,,,,,,,,,,,,,,,,,,,,,,,,,,,,,,,,,,,,,,,,,,,,,,,,873.6130724724053,None,873.6130724724053,None,874.0628901261643,None,874.0628901261643,None,v,4.222597781948934,874.0628901261643,None,t,4.506242820588341,874.0628901261643,None,4.222597781948934,4.506242820588341,6,True,False,False,878.6278914525819,None,878.6278914525819,None,878.6278914525819,None,878.6278914525819,None,878.6278914525819,None,878.6278914525819,None,879.644970955158,None,879.644970955158,None,h,,,,,,,,,,,,,,,,,,,,,,,,,,,1_2,001,2021_Apr_07_1141,ComputerHuman,2020.1.3,60.00313737277559,
Human.xlsx,h,Sychronize.jpg,Number10.jpg,10,Human,,,,,0,2,2,2,0,3,3,8,,,,,,,,,,,,,,,,,,,,,,,,,,,,,,,,,,,,,,,,,,,,,,,,,,,,,,,,,880.694698277839,None,880.694698277839,None,881.1278807065191,None,881.1278807065191,None,v,7.440855758653925,881.1278807065191,None,t,8.383986314328467,881.1278807065191,None,7.440855758653925,8.383986314328467,10,False,False,False,889.5923498943512,None,889.5923498943512,None,889.5923498943512,None,889.5923498943512,None,889.5923498943512,None,889.5923498943512,None,890.5922129221553,None,890.5922129221553,None,h,,,,,,,,,,,,,,,,,,,,,,,,,,,1_2,001,2021_Apr_07_1141,ComputerHuman,2020.1.3,60.00313737277559,
Human.xlsx,h,Sychronize.jpg,Number7.jpg,7,Human,,,,,0,2,2,2,0,4,4,2,,,,,,,,,,,,,,,,,,,,,,,,,,,,,,,,,,,,,,,,,,,,,,,,,,,,,,,,,891.6419524344001,None,891.6419524344001,None,892.091825903527,None,892.091825903527,None,v,6.060186930158125,892.091825903527,None,t,5.783195468306076,892.091825903527,None,6.060186930158125,5.783195468306076,7,True,False,False,898.2071038849099,None,898.2071038849099,None,898.2071038849099,None,898.2071038849099,None,898.2071038849099,None,898.2071038849099,None,899.2235046212872,None,899.2235046212872,None,h,,,,,,,,,,,,,,,,,,,,,,,,,,,1_2,001,2021_Apr_07_1141,ComputerHuman,2020.1.3,60.00313737277559,
Human.xlsx,h,Sychronize.jpg,Number9.jpg,9,Human,,,,,0,2,2,2,0,5,5,7,,,,,,,,,,,,,,,,,,,,,,,,,,,,,,,,,,,,,,,,,,,,,,,,,,,,,,,,,900.2730436472966,None,900.2730436472966,None,900.7064461296686,None,900.7064461296686,None,v,7.08900241577885,900.7064461296686,None,t,7.3560667615956845,900.7064461296686,None,7.08900241577885,7.3560667615956845,9,True,False,False,908.1213252877933,None,908.1213252877933,None,908.1213252877933,None,908.1213252877933,None,908.1213252877933,None,908.1213252877933,None,909.1376933048177,None,909.1376933048177,None,h,,,,,,,,,,,,,,,,,,,,,,,,,,,1_2,001,2021_Apr_07_1141,ComputerHuman,2020.1.3,60.00313737277559,
Human.xlsx,h,Sychronize.jpg,Number6.jpg,6,Human,,,,,0,2,2,2,0,6,6,1,,,,,,,,,,,,,,,,,,,,,,,,,,,,,,,,,,,,,,,,,,,,,,,,,,,,,,,,,910.1701092024459,None,910.1701092024459,None,910.6367545480698,None,910.6367545480698,None,v,5.413997981023385,910.6367545480698,None,t,4.497460561149637,910.6367545480698,None,5.413997981023385,4.497460561149637,6,False,False,False,916.1027095794889,None,916.1027095794889,None,916.1027095794889,None,916.1027095794889,None,916.1027095794889,None,916.1027095794889,None,917.1024648258926,None,917.1024648258926,None,h,,,,,,,,,,,,,,,,,,,,,,,,,,,1_2,001,2021_Apr_07_1141,ComputerHuman,2020.1.3,60.00313737277559,
Human.xlsx,h,Sychronize.jpg,Number9.jpg,9,Human,,,,,0,2,2,2,0,7,7,6,,,,,,,,,,,,,,,,,,,,,,,,,,,,,,,,,,,,,,,,,,,,,,,,,,,,,,,,,918.1514537176718,None,918.1514537176718,None,918.6020454086884,None,918.6020454086884,None,v,7.155945571676057,918.6020454086884,None,t,6.991088467037116,918.6020454086884,None,7.155945571676057,6.991088467037116,9,True,False,False,925.816987182674,None,925.816987182674,None,925.816987182674,None,925.816987182674,None,925.816987182674,None,925.816987182674,None,926.8334135812902,None,926.8334135812902,None,h,,,,,,,,,,,,,,,,,,,,,,,,,,,1_2,001,2021_Apr_07_1141,ComputerHuman,2020.1.3,60.00313737277559,
Human.xlsx,h,Sychronize.jpg,Number8.jpg,8,Human,,,,,0,2,2,2,0,8,8,4,,,,,,,,,,,,,,,,,,,,,,,,,,,,,,,,,,,,,,,,,,,,,,,,,,,,,,,,,927.8829766656472,None,927.8829766656472,None,928.3330525456777,None,928.3330525456777,None,v,6.2521815308227815,928.3330525456777,None,t,7.403064905253814,928.3330525456777,None,6.2521815308227815,7.403064905253814,8,False,False,False,935.7977440326467,None,935.7977440326467,None,935.7977440326467,None,935.7977440326467,None,935.7977440326467,None,935.7977440326467,None,936.797490938824,None,936.797490938824,None,h,,,,,,,,,,,,,,,,,,,,,,,,,,,1_2,001,2021_Apr_07_1141,ComputerHuman,2020.1.3,60.00313737277559,
Human.xlsx,h,Sychronize.jpg,Number10.jpg,10,Human,,,,,0,2,2,2,0,9,9,9,,,,,,,,,,,,,,,,,,,,,,,,,,,,,,,,,,,,,,,,,,,,,,,,,,,,,,,,,937.8471621253593,None,937.8471621253593,None,938.2972171548208,None,938.2972171548208,None,v,8.319123724386372,938.2972171548208,None,t,7.450046689235023,938.2972171548208,None,8.319123724386372,7.450046689235023,10,False,False,False,946.6786186402151,None,946.6786186402151,None,946.6786186402151,None,946.6786186402151,None,946.6786186402151,None,946.6786186402151,None,947.6949667690051,None,947.6949667690051,None,h,,,,,,,,,,,,,,,,,,,,,,,,,,,1_2,001,2021_Apr_07_1141,ComputerHuman,2020.1.3,60.00313737277559,
Human.xlsx,h,,,,,,,,,0,2,2,2,,,,,,,,,,,,,,,,,,,,,,,,,,,,,,,,,,,,,,,,,,,,,,,,,,,,,,,,,,,,,,,,,,,,,,,,,,,,,,,,,,,,,,,,,,,,,,,,,,,h,948.6781984210666,None,948.6781984210666,None,a,0,3.8698975852157673,948.6781984210666,None,o,1,2.7334187458163797,948.6781984210666,None,c,h,952.6104616604553,None,None,None,None,None,None,,,,1_2,001,2021_Apr_07_1141,ComputerHuman,2020.1.3,60.00313737277559,
Computer.xlsx,c,Sychronize.jpg,Number10.jpg,10,Computer,,,,,0,3,3,9,0,0,0,9,,,,,,,,,,,,,,,,,,,,,,,,,,,,,,,,,,,,,,,,,,,,,,,,,,,,,957.6259109693556,None,957.6259109693556,None,960.6918715823103,None,960.6918715823103,None,961.1417123320844,None,961.1417123320844,None,v,7.961002379852289,961.1417123320844,None,t,7.288252051936979,961.1417123320844,None,7.961002379852289,7.288252051936979,10,False,False,False,969.1563779803882,None,969.1563779803882,None,969.1563779803882,None,969.1563779803882,None,969.1563779803882,None,969.1563779803882,None,970.1561829473785,None,970.1561829473785,None,c,,,,,,,,,,,,,,,,,,,,,,,,,,,1_2,001,2021_Apr_07_1141,ComputerHuman,2020.1.3,60.00313737277559,
Computer.xlsx,c,Sychronize.jpg,Number8.jpg,8,Computer,,,,,0,3,3,9,0,1,1,5,,,,,,,,,,,,,,,,,,,,,,,,,,,,,,,,,,,,,,,,,,,,,,,,,,,,,,,,,971.2056555723457,None,971.2056555723457,None,971.6558007404192,None,971.6558007404192,None,v,7.062172225053473,971.6558007404192,None,t,5.425187679174087,971.6558007404192,None,7.062172225053473,5.425187679174087,8,False,False,False,978.7707771905043,None,978.7707771905043,None,978.7707771905043,None,978.7707771905043,None,978.7707771905043,None,978.7707771905043,None,979.7872023060081,None,979.7872023060081,None,c,,,,,,,,,,,,,,,,,,,,,,,,,,,1_2,001,2021_Apr_07_1141,ComputerHuman,2020.1.3,60.00313737277559,
Computer.xlsx,c,Sychronize.jpg,Number9.jpg,9,Computer,,,,,0,3,3,9,0,2,2,6,,,,,,,,,,,,,,,,,,,,,,,,,,,,,,,,,,,,,,,,,,,,,,,,,,,,,,,,,980.8367108581097,None,980.8367108581097,None,981.2701778168548,None,981.2701778168548,None,v,8.291010100977473,981.2701778168548,None,t,7.194103715859455,981.2701778168548,None,8.291010100977473,7.194103715859455,9,False,False,False,989.6347028521332,None,989.6347028521332,None,989.6347028521332,None,989.6347028521332,None,989.6347028521332,None,989.6347028521332,None,990.63449723345,None,990.63449723345,None,c,,,,,,,,,,,,,,,,,,,,,,,,,,,1_2,001,2021_Apr_07_1141,ComputerHuman,2020.1.3,60.00313737277559,
Computer.xlsx,c,Sychronize.jpg,Number6.jpg,6,Computer,,,,,0,3,3,9,0,3,3,0,,,,,,,,,,,,,,,,,,,,,,,,,,,,,,,,,,,,,,,,,,,,,,,,,,,,,,,,,991.6843018636237,None,991.6843018636237,None,992.1342135053301,None,992.1342135053301,None,v,6.530274865024694,992.1342135053301,None,t,6.585052836944669,992.1342135053301,None,6.530274865024694,6.585052836944669,6,False,False,False,998.7825680265832,None,998.7825680265832,None,998.7825680265832,None,998.7825680265832,None,998.7825680265832,None,998.7825680265832,None,999.7823081964225,None,999.7823081964225,None,c,,,,,,,,,,,,,,,,,,,,,,,,,,,1_2,001,2021_Apr_07_1141,ComputerHuman,2020.1.3,60.00313737277559,
Computer.xlsx,c,Sychronize.jpg,Number7.jpg,7,Computer,,,,,0,3,3,9,0,4,4,2,,,,,,,,,,,,,,,,,,,,,,,,,,,,,,,,,,,,,,,,,,,,,,,,,,,,,,,,,1000.8484490866003,None,1000.8484490866003,None,1001.2819301595773,None,1001.2819301595773,None,v,5.4579827363713775,1001.2819301595773,None,t,5.597260684392495,1001.2819301595773,None,5.4579827363713775,5.597260684392495,7,False,False,False,1006.9472730824609,None,1006.9472730824609,None,1006.9472730824609,None,1006.9472730824609,None,1006.9472730824609,None,1006.9472730824609,None,1007.9470116484099,None,1007.9470116484099,None,c,,,,,,,,,,,,,,,,,,,,,,,,,,,1_2,001,2021_Apr_07_1141,ComputerHuman,2020.1.3,60.00313737277559,
Computer.xlsx,c,Sychronize.jpg,Number8.jpg,8,Computer,,,,,0,3,3,9,0,5,5,4,,,,,,,,,,,,,,,,,,,,,,,,,,,,,,,,,,,,,,,,,,,,,,,,,,,,,,,,,1008.9967059309602,None,1008.9967059309602,None,1009.446649008908,None,1009.446649008908,None,v,6.5245730364940755,1009.446649008908,None,t,6.196151241683765,1009.446649008908,None,6.5245730364940755,6.196151241683765,8,False,False,False,1016.0283689626776,None,1016.0283689626776,None,1016.0283689626776,None,1016.0283689626776,None,1016.0283689626776,None,1016.0283689626776,None,1017.0281206805239,None,1017.0281206805239,None,c,,,,,,,,,,,,,,,,,,,,,,,,,,,1_2,001,2021_Apr_07_1141,ComputerHuman,2020.1.3,60.00313737277559,
Computer.xlsx,c,Sychronize.jpg,Number6.jpg,6,Computer,,,,,0,3,3,9,0,6,6,1,,,,,,,,,,,,,,,,,,,,,,,,,,,,,,,,,,,,,,,,,,,,,,,,,,,,,,,,,1018.0943857117791,None,1018.0943857117791,None,1018.527772155252,None,1018.527772155252,None,v,5.182831898546283,1018.527772155252,None,t,6.638278564236316,1018.527772155252,None,5.182831898546283,6.638278564236316,6,False,False,False,1025.2260708450985,None,1025.2260708450985,None,1025.2260708450985,None,1025.2260708450985,None,1025.2260708450985,None,1025.2260708450985,None,1026.242540548742,None,1026.242540548742,None,c,,,,,,,,,,,,,,,,,,,,,,,,,,,1_2,001,2021_Apr_07_1141,ComputerHuman,2020.1.3,60.00313737277559,
Computer.xlsx,c,Sychronize.jpg,Number7.jpg,7,Computer,,,,,0,3,3,9,0,7,7,3,,,,,,,,,,,,,,,,,,,,,,,,,,,,,,,,,,,,,,,,,,,,,,,,,,,,,,,,,1027.2922717207584,None,1027.2922717207584,None,1027.7422189688205,None,1027.7422189688205,None,v,5.675691861958512,1027.7422189688205,None,t,6.295141079757741,1027.7422189688205,None,5.675691861958512,6.295141079757741,7,False,False,False,1034.0906723859234,None,1034.0906723859234,None,1034.0906723859234,None,1034.0906723859234,None,1034.0906723859234,None,1034.0906723859234,None,1035.090383685745,None,1035.090383685745,None,c,,,,,,,,,,,,,,,,,,,,,,,,,,,1_2,001,2021_Apr_07_1141,ComputerHuman,2020.1.3,60.00313737277559,
Computer.xlsx,c,Sychronize.jpg,Number10.jpg,10,Computer,,,,,0,3,3,9,0,8,8,8,,,,,,,,,,,,,,,,,,,,,,,,,,,,,,,,,,,,,,,,,,,,,,,,,,,,,,,,,1036.1565675601723,None,1036.1565675601723,None,1036.5900835979483,None,1036.5900835979483,None,v,8.76294315076484,1036.5900835979483,None,t,9.185937350136555,1036.5900835979483,None,8.76294315076484,9.185937350136555,10,False,False,False,1045.8377302905183,None,1045.8377302905183,None,1045.8377302905183,None,1045.8377302905183,None,1045.8377302905183,None,1045.8377302905183,None,1046.854176577369,None,1046.854176577369,None,c,,,,,,,,,,,,,,,,,,,,,,,,,,,1_2,001,2021_Apr_07_1141,ComputerHuman,2020.1.3,60.00313737277559,
Computer.xlsx,c,Sychronize.jpg,Number9.jpg,9,Computer,,,,,0,3,3,9,0,9,9,7,,,,,,,,,,,,,,,,,,,,,,,,,,,,,,,,,,,,,,,,,,,,,,,,,,,,,,,,,1047.887088076971,None,1047.887088076971,None,1048.3371921854632,None,1048.3371921854632,None,v,8.018938410948977,1048.3371921854632,None,t,8.986015684118684,1048.3371921854632,None,8.018938410948977,8.986015684118684,9,False,False,True,1057.4017073728564,None,1057.4017073728564,None,1057.4017073728564,None,1057.4017073728564,None,1057.4017073728564,None,1057.4017073728564,None,1058.4013779338748,None,1058.4013779338748,None,c,,,,,,,,,,,,,,,,,,,,,,,,,,,1_2,001,2021_Apr_07_1141,ComputerHuman,2020.1.3,60.00313737277559,
Computer.xlsx,c,,,,,,,,,0,3,3,9,,,,,,,,,,,,,,,,,,,,,,,,,,,,,,,,,,,,,,,,,,,,,,,,,,,,,,,,,,,,,,,,,,,,,,,,,,,,,,,,,,,,,,,,,,,,,,,,,,,c,1059.4011768060836,None,1059.4011768060836,None,a,1,4.7304393599715695,1059.4011768060836,None,l,1,3.105500989439861,1059.4011768060836,None,c,c,None,None,1064.1833188395149,None,"['space', 'space']",1065.1664529750706,None,"[21.06773034505204, 24.039227938736076]",,,1_2,001,2021_Apr_07_1141,ComputerHuman,2020.1.3,60.00313737277559,
Computer.xlsx,c,Sychronize.jpg,Number8.jpg,8,Computer,,,,,0,4,4,3,0,0,0,4,,,,,,,,,,,,,,,,,,,,,,,,,,,,,,,,,,,,,,,,,,,,,,,,,,,,,1089.2604473377187,None,1089.2604473377187,None,1092.34280580005,None,1092.34280580005,None,1092.7763009872579,None,1092.7763009872579,None,v,6.528673541366516,1092.7763009872579,None,t,6.008123381474434,1092.7763009872579,None,6.528673541366516,6.008123381474434,8,False,False,False,1099.3580132423558,None,1099.3580132423558,None,1099.3580132423558,None,1099.3580132423558,None,1099.3580132423558,None,1099.3580132423558,None,1100.3578024912258,None,1100.3578024912258,None,c,,,,,,,,,,,,,,,,,,,,,,,,,,,1_2,001,2021_Apr_07_1141,ComputerHuman,2020.1.3,60.00313737277559,
Computer.xlsx,c,Sychronize.jpg,Number7.jpg,7,Computer,,,,,0,4,4,3,0,1,1,3,,,,,,,,,,,,,,,,,,,,,,,,,,,,,,,,,,,,,,,,,,,,,,,,,,,,,,,,,1101.4239940643238,None,1101.4239940643238,None,1101.8574703256309,None,1101.8574703256309,None,v,6.898817644457267,1101.8574703256309,None,t,5.406237720218087,1101.8574703256309,None,6.898817644457267,5.406237720218087,7,False,True,False,1108.8056435110939,None,1108.8056435110939,None,1108.8056435110939,None,1108.8056435110939,None,1108.8056435110939,None,1108.8056435110939,None,1109.8221084030674,None,1109.8221084030674,None,c,,,,,,,,,,,,,,,,,,,,,,,,,,,1_2,001,2021_Apr_07_1141,ComputerHuman,2020.1.3,60.00313737277559,
Computer.xlsx,c,Sychronize.jpg,Number8.jpg,8,Computer,,,,,0,4,4,3,0,2,2,5,,,,,,,,,,,,,,,,,,,,,,,,,,,,,,,,,,,,,,,,,,,,,,,,,,,,,,,,,1110.871517513996,None,1110.871517513996,None,1111.3217553869044,None,1111.3217553869044,None,v,7.781797197106243,1111.3217553869044,None,t,7.697060807635353,1111.3217553869044,None,7.781797197106243,7.697060807635353,8,False,True,False,1119.153239809445,None,1119.153239809445,None,1119.153239809445,None,1119.153239809445,None,1119.153239809445,None,1119.153239809445,None,1120.1529244846934,None,1120.1529244846934,None,c,,,,,,,,,,,,,,,,,,,,,,,,,,,1_2,001,2021_Apr_07_1141,ComputerHuman,2020.1.3,60.00313737277559,
Computer.xlsx,c,Sychronize.jpg,Number6.jpg,6,Computer,,,,,0,4,4,3,0,3,3,1,,,,,,,,,,,,,,,,,,,,,,,,,,,,,,,,,,,,,,,,,,,,,,,,,,,,,,,,,1121.2194118150865,None,1121.2194118150865,None,1121.6526247176753,None,1121.6526247176753,None,v,6.506127019738415,1121.6526247176753,None,t,5.3012233509689395,1121.6526247176753,None,6.506127019738415,5.3012233509689395,6,False,False,False,1128.2174457668689,None,1128.2174457668689,None,1128.2174457668689,None,1128.2174457668689,None,1128.2174457668689,None,1128.2174457668689,None,1129.234152525436,None,1129.234152525436,None,c,,,,,,,,,,,,,,,,,,,,,,,,,,,1_2,001,2021_Apr_07_1141,ComputerHuman,2020.1.3,60.00313737277559,
Computer.xlsx,c,Sychronize.jpg,Number10.jpg,10,Computer,,,,,0,4,4,3,0,4,4,8,,,,,,,,,,,,,,,,,,,,,,,,,,,,,,,,,,,,,,,,,,,,,,,,,,,,,,,,,1130.2670842340503,None,1130.2670842340503,None,1130.7171562647454,None,1130.7171562647454,None,v,8.332824472536231,1130.7171562647454,None,t,8.904139351086087,1130.7171562647454,None,8.332824472536231,8.904139351086087,10,False,False,False,1139.6982958028439,None,1139.6982958028439,None,1139.6982958028439,None,1139.6982958028439,None,1139.6982958028439,None,1139.6982958028439,None,1140.6979670054188,None,1140.6979670054188,None,c,,,,,,,,,,,,,,,,,,,,,,,,,,,1_2,001,2021_Apr_07_1141,ComputerHuman,2020.1.3,60.00313737277559,
Computer.xlsx,c,Sychronize.jpg,Number9.jpg,9,Computer,,,,,0,4,4,3,0,5,5,6,,,,,,,,,,,,,,,,,,,,,,,,,,,,,,,,,,,,,,,,,,,,,,,,,,,,,,,,,1141.7475150132104,None,1141.7475150132104,None,1142.1976592189503,None,1142.1976592189503,None,v,8.019440428482085,1142.1976592189503,None,t,9.538859846007654,1142.1976592189503,None,8.019440428482085,9.538859846007654,9,False,False,False,1151.7951476557064,None,1151.7951476557064,None,1151.7951476557064,None,1151.7951476557064,None,1151.7951476557064,None,1151.7951476557064,None,1152.7950424405299,None,1152.7950424405299,None,c,,,,,,,,,,,,,,,,,,,,,,,,,,,1_2,001,2021_Apr_07_1141,ComputerHuman,2020.1.3,60.00313737277559,
Computer.xlsx,c,Sychronize.jpg,Number9.jpg,9,Computer,,,,,0,4,4,3,0,6,6,7,,,,,,,,,,,,,,,,,,,,,,,,,,,,,,,,,,,,,,,,,,,,,,,,,,,,,,,,,1153.8278666885217,None,1153.8278666885217,None,1154.2944177254203,None,1154.2944177254203,None,v,10.381660674000159,1154.2944177254203,None,t,8.613046489390399,1154.2944177254203,None,10.381660674000159,8.613046489390399,9,False,False,False,1164.7255032284693,None,1164.7255032284693,None,1164.7255032284693,None,1164.7255032284693,None,1164.7255032284693,None,1164.7255032284693,None,1165.7252209438502,None,1165.7252209438502,None,c,,,,,,,,,,,,,,,,,,,,,,,,,,,1_2,001,2021_Apr_07_1141,ComputerHuman,2020.1.3,60.00313737277559,
Computer.xlsx,c,Sychronize.jpg,Number6.jpg,6,Computer,,,,,0,4,4,3,0,7,7,0,,,,,,,,,,,,,,,,,,,,,,,,,,,,,,,,,,,,,,,,,,,,,,,,,,,,,,,,,1166.774976494993,None,1166.774976494993,None,1167.224854455012,None,1167.224854455012,None,v,5.654617069686537,1167.224854455012,None,t,6.470117446440781,1167.224854455012,None,5.654617069686537,6.470117446440781,6,False,False,False,1173.7732725223823,None,1173.7732725223823,None,1173.7732725223823,None,1173.7732725223823,None,1173.7732725223823,None,1173.7732725223823,None,1174.7730213532268,None,1174.7730213532268,None,c,,,,,,,,,,,,,,,,,,,,,,,,,,,1_2,001,2021_Apr_07_1141,ComputerHuman,2020.1.3,60.00313737277559,
Computer.xlsx,c,Sychronize.jpg,Number7.jpg,7,Computer,,,,,0,4,4,3,0,8,8,2,,,,,,,,,,,,,,,,,,,,,,,,,,,,,,,,,,,,,,,,,,,,,,,,,,,,,,,,,1175.82258828692,None,1175.82258828692,None,1176.2727087550893,None,1176.2727087550893,None,v,6.717937359117968,1176.2727087550893,None,t,5.661165752075249,1176.2727087550893,None,6.717937359117968,5.661165752075249,7,False,True,False,1183.054338185314,None,1183.054338185314,None,1183.054338185314,None,1183.054338185314,None,1183.054338185314,None,1183.054338185314,None,1184.0541097913947,None,1184.0541097913947,None,c,,,,,,,,,,,,,,,,,,,,,,,,,,,1_2,001,2021_Apr_07_1141,ComputerHuman,2020.1.3,60.00313737277559,
Computer.xlsx,c,Sychronize.jpg,Number10.jpg,10,Computer,,,,,0,4,4,3,0,9,9,9,,,,,,,,,,,,,,,,,,,,,,,,,,,,,,,,,,,,,,,,,,,,,,,,,,,,,,,,,1185.120268324361,None,1185.120268324361,None,1185.5537872491395,None,1185.5537872491395,None,v,9.959963059207439,1185.5537872491395,None,t,9.246925262901641,1185.5537872491395,None,9.959963059207439,9.246925262901641,10,False,True,False,1195.5679104618848,None,1195.5679104618848,None,1195.5679104618848,None,1195.5679104618848,None,1195.5679104618848,None,1195.5679104618848,None,1196.584399412206,None,1196.584399412206,None,c,,,,,,,,,,,,,,,,,,,,,,,,,,,1_2,001,2021_Apr_07_1141,ComputerHuman,2020.1.3,60.00313737277559,
Computer.xlsx,c,,,,,,,,,0,4,4,3,,,,,,,,,,,,,,,,,,,,,,,,,,,,,,,,,,,,,,,,,,,,,,,,,,,,,,,,,,,,,,,,,,,,,,,,,,,,,,,,,,,,,,,,,,,,,,,,,,,c,1197.5841354119311,None,1197.5841354119311,None,q,0,3.641354183473595,1197.5841354119311,None,l,1,2.8604230869041203,1197.5841354119311,None,h,c,1201.2832540102854,None,None,None,None,None,None,,,,1_2,001,2021_Apr_07_1141,ComputerHuman,2020.1.3,60.00313737277559,
Computer.xlsx,c,Sychronize.jpg,Number7.jpg,7,Computer,,,,,0,5,5,7,0,0,0,2,,,,,,,,,,,,,,,,,,,,,,,,,,,,,,,,,,,,,,,,,,,,,,,,,,,,,1206.2986770153911,None,1206.2986770153911,None,1209.3812295483986,None,1209.3812295483986,None,1209.8145325895985,None,1209.8145325895985,None,v,6.813636656711424,1209.8145325895985,None,t,6.901068864294757,1209.8145325895985,None,6.813636656711424,6.901068864294757,7,False,True,True,1216.7794940112353,None,1216.7794940112353,None,1216.7794940112353,None,1216.7794940112353,None,1216.7794940112353,None,1216.7794940112353,None,1217.778946443229,None,1217.778946443229,None,c,,,,,,,,,,,,,,,,,,,,,,,,,,,1_2,001,2021_Apr_07_1141,ComputerHuman,2020.1.3,60.00313737277559,
Computer.xlsx,c,Sychronize.jpg,Number8.jpg,8,Computer,,,,,0,5,5,7,0,1,1,5,,,,,,,,,,,,,,,,,,,,,,,,,,,,,,,,,,,,,,,,,,,,,,,,,,,,,,,,,1218.8453401064526,None,1218.8453401064526,None,1219.2785581414892,None,1219.2785581414892,None,v,7.4888364452535825,1219.2785581414892,None,t,6.86811438044424,1219.2785581414892,None,7.4888364452535825,6.86811438044424,8,False,False,False,1226.826905316927,None,1226.826905316927,None,1226.826905316927,None,1226.826905316927,None,1226.826905316927,None,1226.826905316927,None,1227.8433881724668,None,1227.8433881724668,None,c,,,,,,,,,,,,,,,,,,,,,,,,,,,1_2,001,2021_Apr_07_1141,ComputerHuman,2020.1.3,60.00313737277559,
Computer.xlsx,c,Sychronize.jpg,Number7.jpg,7,Computer,,,,,0,5,5,7,0,2,2,3,,,,,,,,,,,,,,,,,,,,,,,,,,,,,,,,,,,,,,,,,,,,,,,,,,,,,,,,,1228.8929166128019,None,1228.8929166128019,None,1229.3430550445382,None,1229.3430550445382,None,v,8.155773634681282,1229.3430550445382,None,t,7.887061452399394,1229.3430550445382,None,8.155773634681282,7.887061452399394,7,False,False,False,1237.5577270442454,None,1237.5577270442454,None,1237.5577270442454,None,1237.5577270442454,None,1237.5577270442454,None,1237.5577270442454,None,1238.5740973067159,None,1238.5740973067159,None,c,,,,,,,,,,,,,,,,,,,,,,,,,,,1_2,001,2021_Apr_07_1141,ComputerHuman,2020.1.3,60.00313737277559,
Computer.xlsx,c,Sychronize.jpg,Number10.jpg,10,Computer,,,,,0,5,5,7,0,3,3,9,,,,,,,,,,,,,,,,,,,,,,,,,,,,,,,,,,,,,,,,,,,,,,,,,,,,,,,,,1239.6236937519825,None,1239.6236937519825,None,1240.07375583856,None,1240.07375583856,None,v,9.631967257550968,1240.07375583856,None,t,8.735102830191863,1240.07375583856,None,9.631967257550968,8.735102830191863,10,False,False,False,1249.771342722077,None,1249.771342722077,None,1249.771342722077,None,1249.771342722077,None,1249.771342722077,None,1249.771342722077,None,1250.7711473682893,None,1250.7711473682893,None,c,,,,,,,,,,,,,,,,,,,,,,,,,,,1_2,001,2021_Apr_07_1141,ComputerHuman,2020.1.3,60.00313737277559,
Computer.xlsx,c,Sychronize.jpg,Number6.jpg,6,Computer,,,,,0,5,5,7,0,4,4,1,,,,,,,,,,,,,,,,,,,,,,,,,,,,,,,,,,,,,,,,,,,,,,,,,,,,,,,,,1251.8374111164321,None,1251.8374111164321,None,1252.2708411857102,None,1252.2708411857102,None,v,6.550167911231256,1252.2708411857102,None,t,4.849295619680561,1252.2708411857102,None,6.550167911231256,4.849295619680561,6,False,False,False,1258.885849873982,None,1258.885849873982,None,1258.885849873982,None,1258.885849873982,None,1258.885849873982,None,1258.885849873982,None,1259.902304180282,None,1259.902304180282,None,c,,,,,,,,,,,,,,,,,,,,,,,,,,,1_2,001,2021_Apr_07_1141,ComputerHuman,2020.1.3,60.00313737277559,
Computer.xlsx,c,Sychronize.jpg,Number6.jpg,6,Computer,,,,,0,5,5,7,0,5,5,0,,,,,,,,,,,,,,,,,,,,,,,,,,,,,,,,,,,,,,,,,,,,,,,,,,,,,,,,,1260.9353908246585,None,1260.9353908246585,None,1261.4018254191524,None,1261.4018254191524,None,v,4.378680967376567,1261.4018254191524,None,t,5.5143071789143505,1261.4018254191524,None,4.378680967376567,5.5143071789143505,6,False,False,False,1266.9672443984946,None,1266.9672443984946,None,1266.9672443984946,None,1266.9672443984946,None,1266.9672443984946,None,1266.9672443984946,None,1267.9670256279142,None,1267.9670256279142,None,c,,,,,,,,,,,,,,,,,,,,,,,,,,,1_2,001,2021_Apr_07_1141,ComputerHuman,2020.1.3,60.00313737277559,
Computer.xlsx,c,Sychronize.jpg,Number9.jpg,9,Computer,,,,,0,5,5,7,0,6,6,7,,,,,,,,,,,,,,,,,,,,,,,,,,,,,,,,,,,,,,,,,,,,,,,,,,,,,,,,,1268.9998206851105,None,1268.9998206851105,None,1269.4666485534035,None,1269.4666485534035,None,v,7.093039727390533,1269.4666485534035,None,t,9.539934452228408,1269.4666485534035,None,7.093039727390533,9.539934452228408,9,False,False,False,1279.0640834202368,None,1279.0640834202368,None,1279.0640834202368,None,1279.0640834202368,None,1279.0640834202368,None,1279.0640834202368,None,1280.0807285894325,None,1280.0807285894325,None,c,,,,,,,,,,,,,,,,,,,,,,,,,,,1_2,001,2021_Apr_07_1141,ComputerHuman,2020.1.3,60.00313737277559,
Computer.xlsx,c,Sychronize.jpg,Number9.jpg,9,Computer,,,,,0,5,5,7,0,7,7,6,,,,,,,,,,,,,,,,,,,,,,,,,,,,,,,,,,,,,,,,,,,,,,,,,,,,,,,,,1281.1135884437808,None,1281.1135884437808,None,1281.5636797211537,None,1281.5636797211537,None,v,9.070979825952236,1281.5636797211537,None,t,7.298074273574457,1281.5636797211537,None,9.070979825952236,7.298074273574457,9,False,True,False,1290.7114605309962,None,1290.7114605309962,None,1290.7114605309962,None,1290.7114605309962,None,1290.7114605309962,None,1290.7114605309962,None,1291.7110919571014,None,1291.7110919571014,None,c,,,,,,,,,,,,,,,,,,,,,,,,,,,1_2,001,2021_Apr_07_1141,ComputerHuman,2020.1.3,60.00313737277559,
Computer.xlsx,c,Sychronize.jpg,Number10.jpg,10,Computer,,,,,0,5,5,7,0,8,8,8,,,,,,,,,,,,,,,,,,,,,,,,,,,,,,,,,,,,,,,,,,,,,,,,,,,,,,,,,1292.7606916101477,None,1292.7606916101477,None,1293.2108698183529,None,1293.2108698183529,None,v,10.510782149732222,1293.2108698183529,None,t,10.797816849247283,1293.2108698183529,None,10.510782149732222,10.797816849247283,10,False,False,False,1304.058184954807,None,1304.058184954807,None,1304.058184954807,None,1304.058184954807,None,1304.058184954807,None,1304.058184954807,None,1305.057958485555,None,1305.057958485555,None,c,,,,,,,,,,,,,,,,,,,,,,,,,,,1_2,001,2021_Apr_07_1141,ComputerHuman,2020.1.3,60.00313737277559,
Computer.xlsx,c,Sychronize.jpg,Number8.jpg,8,Computer,,,,,0,5,5,7,0,9,9,4,,,,,,,,,,,,,,,,,,,,,,,,,,,,,,,,,,,,,,,,,,,,,,,,,,,,,,,,,1306.1243444501079,None,1306.1243444501079,None,1306.5742281841303,None,1306.5742281841303,None,v,7.430624865874961,1306.5742281841303,None,t,6.8261242225544265,1306.5742281841303,None,7.430624865874961,6.8261242225544265,8,False,False,False,1314.0558153678949,None,1314.0558153678949,None,1314.0558153678949,None,1314.0558153678949,None,1314.0558153678949,None,1314.0558153678949,None,1315.0555876155322,None,1315.0555876155322,None,c,,,,,,,,,,,,,,,,,,,,,,,,,,,1_2,001,2021_Apr_07_1141,ComputerHuman,2020.1.3,60.00313737277559,
Computer.xlsx,c,,,,,,,,,0,5,5,7,,,,,,,,,,,,,,,,,,,,,,,,,,,,,,,,,,,,,,,,,,,,,,,,,,,,,,,,,,,,,,,,,,,,,,,,,,,,,,,,,,,,,,,,,,,,,,,,,,,c,1316.0552995569087,None,1316.0552995569087,None,a,1,2.7652796975453384,1316.0552995569087,None,l,1,2.2084357550684217,1316.0552995569087,None,c,c,1318.8712403618247,None,None,None,None,None,None,,,,1_2,001,2021_Apr_07_1141,ComputerHuman,2020.1.3,60.00313737277559,
Computer.xlsx,c,Sychronize.jpg,Number7.jpg,7,Computer,,,,,0,6,6,5,0,0,0,2,,,,,,,,,,,,,,,,,,,,,,,,,,,,,,,,,,,,,,,,,,,,,,,,,,,,,1323.8866633669304,None,1323.8866633669304,None,1326.969271394527,None,1326.969271394527,None,1327.4025057892404,None,1327.4025057892404,None,v,6.692902883505667,1327.4025057892404,None,t,12.851693114276713,1327.4025057892404,None,6.692902883505667,12.851693114276713,7,False,False,False,1340.3327596753852,None,1340.3327596753852,None,1340.3327596753852,None,1340.3327596753852,None,1340.3327596753852,None,1340.3327596753852,None,1341.332466163537,None,1341.332466163537,None,c,,,,,,,,,,,,,,,,,,,,,,,,,,,1_2,001,2021_Apr_07_1141,ComputerHuman,2020.1.3,60.00313737277559,
Computer.xlsx,c,Sychronize.jpg,Number9.jpg,9,Computer,,,,,0,6,6,5,0,1,1,6,,,,,,,,,,,,,,,,,,,,,,,,,,,,,,,,,,,,,,,,,,,,,,,,,,,,,,,,,1342.382159162974,None,1342.382159162974,None,1342.8320955045847,None,1342.8320955045847,None,v,8.922064424407836,1342.8320955045847,None,t,8.216970694686097,1342.8320955045847,None,8.922064424407836,8.216970694686097,9,False,True,False,1351.8131301482854,None,1351.8131301482854,None,1351.8131301482854,None,1351.8131301482854,None,1351.8131301482854,None,1351.8131301482854,None,1352.8129902890878,None,1352.8129902890878,None,c,,,,,,,,,,,,,,,,,,,,,,,,,,,1_2,001,2021_Apr_07_1141,ComputerHuman,2020.1.3,60.00313737277559,
Computer.xlsx,c,Sychronize.jpg,Number10.jpg,10,Computer,,,,,0,6,6,5,0,2,2,8,,,,,,,,,,,,,,,,,,,,,,,,,,,,,,,,,,,,,,,,,,,,,,,,,,,,,,,,,1353.8623381314228,None,1353.8623381314228,None,1354.3126193093585,None,1354.3126193093585,None,v,9.084522430560355,1354.3126193093585,None,t,8.172150312710073,1354.3126193093585,None,9.084522430560355,8.172150312710073,10,False,False,False,1363.460395949087,None,1363.460395949087,None,1363.460395949087,None,1363.460395949087,None,1363.460395949087,None,1363.460395949087,None,1364.4601422137075,None,1364.4601422137075,None,c,,,,,,,,,,,,,,,,,,,,,,,,,,,1_2,001,2021_Apr_07_1141,ComputerHuman,2020.1.3,60.00313737277559,
Computer.xlsx,c,Sychronize.jpg,Number6.jpg,6,Computer,,,,,0,6,6,5,0,3,3,1,,,,,,,,,,,,,,,,,,,,,,,,,,,,,,,,,,,,,,,,,,,,,,,,,,,,,,,,,1365.5263498257045,None,1365.5263498257045,None,1365.9598976205007,None,1365.9598976205007,None,v,5.980633992007824,1365.9598976205007,None,t,6.344177767455221,1365.9598976205007,None,5.980633992007824,6.344177767455221,6,False,True,False,1372.374839971887,None,1372.374839971887,None,1372.374839971887,None,1372.374839971887,None,1372.374839971887,None,1372.374839971887,None,1373.3746962633531,None,1373.3746962633531,None,c,,,,,,,,,,,,,,,,,,,,,,,,,,,1_2,001,2021_Apr_07_1141,ComputerHuman,2020.1.3,60.00313737277559,
Computer.xlsx,c,Sychronize.jpg,Number10.jpg,10,Computer,,,,,0,6,6,5,0,4,4,9,,,,,,,,,,,,,,,,,,,,,,,,,,,,,,,,,,,,,,,,,,,,,,,,,,,,,,,,,1374.4243895835689,None,1374.4243895835689,None,1374.8743300952929,None,1374.8743300952929,None,v,11.925078454273716,1374.8743300952929,None,t,9.17294520053565,1374.8743300952929,None,11.925078454273716,9.17294520053565,10,False,False,False,1386.8547372972716,None,1386.8547372972716,None,1386.8547372972716,None,1386.8547372972716,None,1386.8547372972716,None,1386.8547372972716,None,1387.8544758632215,None,1387.8544758632215,None,c,,,,,,,,,,,,,,,,,,,,,,,,,,,1_2,001,2021_Apr_07_1141,ComputerHuman,2020.1.3,60.00313737277559,
Computer.xlsx,c,Sychronize.jpg,Number8.jpg,8,Computer,,,,,0,6,6,5,0,5,5,4,,,,,,,,,,,,,,,,,,,,,,,,,,,,,,,,,,,,,,,,,,,,,,,,,,,,,,,,,1388.920645623417,None,1388.920645623417,None,1389.3707683370321,None,1389.3707683370321,None,v,8.303835766808334,1389.3707683370321,None,t,8.366986685468873,1389.3707683370321,None,8.303835766808334,8.366986685468873,8,False,False,False,1397.802025456298,None,1397.802025456298,None,1397.802025456298,None,1397.802025456298,None,1397.802025456298,None,1397.802025456298,None,1398.8018685958677,None,1398.8018685958677,None,c,,,,,,,,,,,,,,,,,,,,,,,,,,,1_2,001,2021_Apr_07_1141,ComputerHuman,2020.1.3,60.00313737277559,
Computer.xlsx,c,Sychronize.jpg,Number6.jpg,6,Computer,,,,,0,6,6,5,0,6,6,0,,,,,,,,,,,,,,,,,,,,,,,,,,,,,,,,,,,,,,,,,,,,,,,,,,,,,,,,,1399.8681005869912,None,1399.8681005869912,None,1400.3007322398862,None,1400.3007322398862,None,v,5.593281754373493,1400.3007322398862,None,t,6.024349614633138,1400.3007322398862,None,5.593281754373493,6.024349614633138,6,False,False,True,1406.3999568874397,None,1406.3999568874397,None,1406.3999568874397,None,1406.3999568874397,None,1406.3999568874397,None,1406.3999568874397,None,1407.399664658703,None,1407.399664658703,None,c,,,,,,,,,,,,,,,,,,,,,,,,,,,1_2,001,2021_Apr_07_1141,ComputerHuman,2020.1.3,60.00313737277559,
Computer.xlsx,c,Sychronize.jpg,Number7.jpg,7,Computer,,,,,0,6,6,5,0,7,7,3,,,,,,,,,,,,,,,,,,,,,,,,,,,,,,,,,,,,,,,,,,,,,,,,,,,,,,,,,1408.4492210067228,None,1408.4492210067228,None,1408.8992879049702,None,1408.8992879049702,None,v,6.482038518378431,1408.8992879049702,None,t,7.461032051814982,1408.8992879049702,None,6.482038518378431,7.461032051814982,7,False,False,False,1416.414181786803,None,1416.414181786803,None,1416.414181786803,None,1416.414181786803,None,1416.414181786803,None,1416.414181786803,None,1417.4139469773245,None,1417.4139469773245,None,c,,,,,,,,,,,,,,,,,,,,,,,,,,,1_2,001,2021_Apr_07_1141,ComputerHuman,2020.1.3,60.00313737277559,
Computer.xlsx,c,Sychronize.jpg,Number8.jpg,8,Computer,,,,,0,6,6,5,0,8,8,5,,,,,,,,,,,,,,,,,,,,,,,,,,,,,,,,,,,,,,,,,,,,,,,,,,,,,,,,,1418.4800233911292,None,1418.4800233911292,None,1418.9136141701738,None,1418.9136141701738,None,v,7.710827956827416,1418.9136141701738,None,t,6.72216200506773,1418.9136141701738,None,7.710827956827416,6.72216200506773,8,False,True,False,1426.678348224381,None,1426.678348224381,None,1426.678348224381,None,1426.678348224381,None,1426.678348224381,None,1426.678348224381,None,1427.6948320422553,None,1427.6948320422553,None,c,,,,,,,,,,,,,,,,,,,,,,,,,,,1_2,001,2021_Apr_07_1141,ComputerHuman,2020.1.3,60.00313737277559,
Computer.xlsx,c,Sychronize.jpg,Number9.jpg,9,Computer,,,,,0,6,6,5,0,9,9,7,,,,,,,,,,,,,,,,,,,,,,,,,,,,,,,,,,,,,,,,,,,,,,,,,,,,,,,,,1428.7445009833446,None,1428.7445009833446,None,1429.1944626664153,None,1429.1944626664153,None,v,8.729141171500487,1429.1944626664153,None,t,8.020070757205758,1429.1944626664153,None,8.729141171500487,8.020070757205758,9,False,True,False,1437.9922050951727,None,1437.9922050951727,None,1437.9922050951727,None,1437.9922050951727,None,1437.9922050951727,None,1437.9922050951727,None,1438.992042139961,None,1438.992042139961,None,c,,,,,,,,,,,,,,,,,,,,,,,,,,,1_2,001,2021_Apr_07_1141,ComputerHuman,2020.1.3,60.00313737277559,
Computer.xlsx,c,,,,,,,,,0,6,6,5,,,,,,,,,,,,,,,,,,,,,,,,,,,,,,,,,,,,,,,,,,,,,,,,,,,,,,,,,,,,,,,,,,,,,,,,,,,,,,,,,,,,,,,,,,,,,,,,,,,c,1439.991875976969,None,1439.991875976969,None,a,1,3.5074675509013105,1439.991875976969,None,l,1,3.1343880085496494,1439.991875976969,None,c,c,1443.5575942421628,None,None,None,None,None,None,,,,1_2,001,2021_Apr_07_1141,ComputerHuman,2020.1.3,60.00313737277559,
Human.xlsx,h,Sychronize.jpg,Number6.jpg,6,Human,,,,,0,7,7,0,0,0,0,0,,,,,,,,,,,,,,,,,,,,,,,,,,,,,,,,,,,,,,,,,,,,,,,,,,,,,1448.5730108317093,None,1448.5730108317093,None,1451.6387921297764,None,1451.6387921297764,None,1452.0720618100659,None,1452.0720618100659,None,v,6.014017676791809,1452.0720618100659,None,t,5.641215928166275,1452.0720618100659,None,6.014017676791809,5.641215928166275,6,False,False,False,1458.154003902584,None,1458.154003902584,None,1458.154003902584,None,1458.154003902584,None,1458.154003902584,None,1458.154003902584,None,1459.1537373360861,None,1459.1537373360861,None,h,,,,,,,,,,,,,,,,,,,,,,,,,,,1_2,001,2021_Apr_07_1141,ComputerHuman,2020.1.3,60.00313737277559,
Human.xlsx,h,Sychronize.jpg,Number9.jpg,9,Human,,,,,0,7,7,0,0,1,1,7,,,,,,,,,,,,,,,,,,,,,,,,,,,,,,,,,,,,,,,,,,,,,,,,,,,,,,,,,1460.2032420388514,None,1460.2032420388514,None,1460.6533329954464,None,1460.6533329954464,None,v,8.295957138930135,1460.6533329954464,None,t,8.363058759146952,1460.6533329954464,None,8.295957138930135,8.363058759146952,9,True,False,False,1469.0680139127817,None,1469.0680139127817,None,1469.0680139127817,None,1469.0680139127817,None,1469.0680139127817,None,1469.0680139127817,None,1470.0678378056728,None,1470.0678378056728,None,h,,,,,,,,,,,,,,,,,,,,,,,,,,,1_2,001,2021_Apr_07_1141,ComputerHuman,2020.1.3,60.00313737277559,
Human.xlsx,h,Sychronize.jpg,Number7.jpg,7,Human,,,,,0,7,7,0,0,2,2,2,,,,,,,,,,,,,,,,,,,,,,,,,,,,,,,,,,,,,,,,,,,,,,,,,,,,,,,,,1471.1172828437348,None,1471.1172828437348,None,1471.5674575233816,None,1471.5674575233816,None,v,6.193140419596602,1471.5674575233816,None,t,6.0442141116009225,1471.5674575233816,None,6.193140419596602,6.0442141116009225,7,True,False,False,1477.8158708753163,None,1477.8158708753163,None,1477.8158708753163,None,1477.8158708753163,None,1477.8158708753163,None,1477.8158708753163,None,1478.8323017648236,None,1478.8323017648236,None,h,,,,,,,,,,,,,,,,,,,,,,,,,,,1_2,001,2021_Apr_07_1141,ComputerHuman,2020.1.3,60.00313737277559,
Human.xlsx,h,Sychronize.jpg,Number7.jpg,7,Human,,,,,0,7,7,0,0,3,3,3,,,,,,,,,,,,,,,,,,,,,,,,,,,,,,,,,,,,,,,,,,,,,,,,,,,,,,,,,1479.881835979163,None,1479.881835979163,None,1480.3152352537554,None,1480.3152352537554,None,v,6.244738840214268,1480.3152352537554,None,t,6.764215997774954,1480.3152352537554,None,6.244738840214268,6.764215997774954,7,False,False,False,1487.1302493310977,None,1487.1302493310977,None,1487.1302493310977,None,1487.1302493310977,None,1487.1302493310977,None,1487.1302493310977,None,1488.130121340685,None,1488.130121340685,None,h,,,,,,,,,,,,,,,,,,,,,,,,,,,1_2,001,2021_Apr_07_1141,ComputerHuman,2020.1.3,60.00313737277559,
Human.xlsx,h,Sychronize.jpg,Number9.jpg,9,Human,,,,,0,7,7,0,0,4,4,6,,,,,,,,,,,,,,,,,,,,,,,,,,,,,,,,,,,,,,,,,,,,,,,,,,,,,,,,,1489.1964348094143,None,1489.1964348094143,None,1489.6463592822392,None,1489.6463592822392,None,v,7.996747952875012,1489.6463592822392,None,t,8.080040520674629,1489.6463592822392,None,7.996747952875012,8.080040520674629,9,True,False,False,1497.7777618101627,None,1497.7777618101627,None,1497.7777618101627,None,1497.7777618101627,None,1497.7777618101627,None,1497.7777618101627,None,1498.7769107861914,None,1498.7769107861914,None,h,,,,,,,,,,,,,,,,,,,,,,,,,,,1_2,001,2021_Apr_07_1141,ComputerHuman,2020.1.3,60.00313737277559,
Human.xlsx,h,Sychronize.jpg,Number8.jpg,8,Human,,,,,0,7,7,0,0,5,5,4,,,,,,,,,,,,,,,,,,,,,,,,,,,,,,,,,,,,,,,,,,,,,,,,,,,,,,,,,1499.8268998637013,None,1499.8268998637013,None,1500.2770004436352,None,1500.2770004436352,None,v,7.1214763742200375,1500.2770004436352,None,t,7.189343691467911,1500.2770004436352,None,7.1214763742200375,7.189343691467911,8,True,False,False,1507.5252732948156,None,1507.5252732948156,None,1507.5252732948156,None,1507.5252732948156,None,1507.5252732948156,None,1507.5252732948156,None,1508.5416756350842,None,1508.5416756350842,None,h,,,,,,,,,,,,,,,,,,,,,,,,,,,1_2,001,2021_Apr_07_1141,ComputerHuman,2020.1.3,60.00313737277559,
Human.xlsx,h,Sychronize.jpg,Number8.jpg,8,Human,,,,,0,7,7,0,0,6,6,5,,,,,,,,,,,,,,,,,,,,,,,,,,,,,,,,,,,,,,,,,,,,,,,,,,,,,,,,,1509.57455313222,None,1509.57455313222,None,1510.0414287964313,None,1510.0414287964313,None,v,9.612084797015996,1510.0414287964313,None,t,7.027097398779006,1510.0414287964313,None,9.612084797015996,7.027097398779006,8,False,False,False,1519.70563744839,None,1519.70563744839,None,1519.70563744839,None,1519.70563744839,None,1519.70563744839,None,1519.70563744839,None,1520.704771668632,None,1520.704771668632,None,h,,,,,,,,,,,,,,,,,,,,,,,,,,,1_2,001,2021_Apr_07_1141,ComputerHuman,2020.1.3,60.00313737277559,
Human.xlsx,h,Sychronize.jpg,Number10.jpg,10,Human,,,,,0,7,7,0,0,7,7,8,,,,,,,,,,,,,,,,,,,,,,,,,,,,,,,,,,,,,,,,,,,,,,,,,,,,,,,,,1521.771826455265,None,1521.771826455265,None,1522.2216797153797,None,1522.2216797153797,None,v,7.059069981244647,1522.2216797153797,None,t,10.321845204737656,1522.2216797153797,None,7.059069981244647,10.321845204737656,10,False,False,False,1532.6025204808711,None,1532.6025204808711,None,1532.6025204808711,None,1532.6025204808711,None,1532.6025204808711,None,1532.6025204808711,None,1533.6022741233855,None,1533.6022741233855,None,h,,,,,,,,,,,,,,,,,,,,,,,,,,,1_2,001,2021_Apr_07_1141,ComputerHuman,2020.1.3,60.00313737277559,
Human.xlsx,h,Sychronize.jpg,Number10.jpg,10,Human,,,,,0,7,7,0,0,8,8,9,,,,,,,,,,,,,,,,,,,,,,,,,,,,,,,,,,,,,,,,,,,,,,,,,,,,,,,,,1534.6517467483536,None,1534.6517467483536,None,1535.1019833381497,None,1535.1019833381497,None,v,9.405638186180113,1535.1019833381497,None,t,9.336961546098792,1535.1019833381497,None,9.405638186180113,9.336961546098792,10,True,False,False,1544.5663556510326,None,1544.5663556510326,None,1544.5663556510326,None,1544.5663556510326,None,1544.5663556510326,None,1544.5663556510326,None,1545.5826717020254,None,1545.5826717020254,None,h,,,,,,,,,,,,,,,,,,,,,,,,,,,1_2,001,2021_Apr_07_1141,ComputerHuman,2020.1.3,60.00313737277559,
Human.xlsx,h,Sychronize.jpg,Number6.jpg,6,Human,,,,,0,7,7,0,0,9,9,1,,,,,,,,,,,,,,,,,,,,,,,,,,,,,,,,,,,,,,,,,,,,,,,,,,,,,,,,,1546.6322748836292,None,1546.6322748836292,None,1547.0823648778905,None,1547.0823648778905,None,v,6.1125462361360405,1547.0823648778905,None,t,5.928209888879792,1547.0823648778905,None,6.1125462361360405,5.928209888879792,6,True,False,False,1553.2475000970344,None,1553.2475000970344,None,1553.2475000970344,None,1553.2475000970344,None,1553.2475000970344,None,1553.2475000970344,None,1554.2472877420141,None,1554.2472877420141,None,h,,,,,,,,,,,,,,,,,,,,,,,,,,,1_2,001,2021_Apr_07_1141,ComputerHuman,2020.1.3,60.00313737277559,
Human.xlsx,h,,,,,,,,,0,7,7,0,,,,,,,,,,,,,,,,,,,,,,,,,,,,,,,,,,,,,,,,,,,,,,,,,,,,,,,,,,,,,,,,,,,,,,,,,,,,,,,,,,,,,,,,,,,,,,,,,,,h,1555.2637452560948,None,1555.2637452560948,None,q,1,3.206990650283842,1555.2637452560948,None,l,0,1.6345078191225184,1555.2637452560948,None,h,c,None,None,1558.5295524730218,None,"['space', 'space']",1559.5126769852386,None,"[1.4656919934768666, 2.921635223474368]",,,1_2,001,2021_Apr_07_1141,ComputerHuman,2020.1.3,60.00313737277559,
Computer.xlsx,c,Sychronize.jpg,Number6.jpg,6,Computer,,,,,0,8,8,1,0,0,0,1,,,,,,,,,,,,,,,,,,,,,,,,,,,,,,,,,,,,,,,,,,,,,,,,,,,,,1562.4952856864684,None,1562.4952856864684,None,1565.5609181435548,None,1565.5609181435548,None,1565.9943860646335,None,1565.9943860646335,None,v,5.85118468118344,1565.9943860646335,None,t,5.570246687886538,1565.9943860646335,None,5.85118468118344,5.570246687886538,6,False,True,False,1571.9262791262381,None,1571.9262791262381,None,1571.9262791262381,None,1571.9262791262381,None,1571.9262791262381,None,1571.9262791262381,None,1572.92599684162,None,1572.92599684162,None,c,,,,,,,,,,,,,,,,,,,,,,,,,,,1_2,001,2021_Apr_07_1141,ComputerHuman,2020.1.3,60.00313737277559,
Computer.xlsx,c,Sychronize.jpg,Number6.jpg,6,Computer,,,,,0,8,8,1,0,1,1,0,,,,,,,,,,,,,,,,,,,,,,,,,,,,,,,,,,,,,,,,,,,,,,,,,,,,,,,,,1573.9757607329893,None,1573.9757607329893,None,1574.4256970746,None,1574.4256970746,None,v,5.0473381683113985,1574.4256970746,None,t,5.270244538674888,1574.4256970746,None,5.0473381683113985,5.270244538674888,6,False,False,False,1579.7577260177559,None,1579.7577260177559,None,1579.7577260177559,None,1579.7577260177559,None,1579.7577260177559,None,1579.7577260177559,None,1580.7741707007162,None,1580.7741707007162,None,c,,,,,,,,,,,,,,,,,,,,,,,,,,,1_2,001,2021_Apr_07_1141,ComputerHuman,2020.1.3,60.00313737277559,
Computer.xlsx,c,Sychronize.jpg,Number10.jpg,10,Computer,,,,,0,8,8,1,0,2,2,9,,,,,,,,,,,,,,,,,,,,,,,,,,,,,,,,,,,,,,,,,,,,,,,,,,,,,,,,,1581.8070106668301,None,1581.8070106668301,None,1582.2571356258895,None,1582.2571356258895,None,v,9.131000272340316,1582.2571356258895,None,t,8.945944420083833,1582.2571356258895,None,9.131000272340316,8.945944420083833,10,False,False,False,1591.4548760016687,None,1591.4548760016687,None,1591.4548760016687,None,1591.4548760016687,None,1591.4548760016687,None,1591.4548760016687,None,1592.4546520986414,None,1592.4546520986414,None,c,,,,,,,,,,,,,,,,,,,,,,,,,,,1_2,001,2021_Apr_07_1141,ComputerHuman,2020.1.3,60.00313737277559,
Computer.xlsx,c,Sychronize.jpg,Number7.jpg,7,Computer,,,,,0,8,8,1,0,3,3,2,,,,,,,,,,,,,,,,,,,,,,,,,,,,,,,,,,,,,,,,,,,,,,,,,,,,,,,,,1593.5041545559607,None,1593.5041545559607,None,1593.9543125551527,None,1593.9543125551527,None,v,7.94499010560321,1593.9543125551527,None,t,7.240085955665563,1593.9543125551527,None,7.94499010560321,7.240085955665563,7,False,False,True,1601.9523153914715,None,1601.9523153914715,None,1601.9523153914715,None,1601.9523153914715,None,1601.9523153914715,None,1601.9523153914715,None,1602.9520507496409,None,1602.9520507496409,None,c,,,,,,,,,,,,,,,,,,,,,,,,,,,1_2,001,2021_Apr_07_1141,ComputerHuman,2020.1.3,60.00313737277559,
Computer.xlsx,c,Sychronize.jpg,Number9.jpg,9,Computer,,,,,0,8,8,1,0,4,4,7,,,,,,,,,,,,,,,,,,,,,,,,,,,,,,,,,,,,,,,,,,,,,,,,,,,,,,,,,1604.0015496784044,None,1604.0015496784044,None,1604.451773437081,None,1604.451773437081,None,v,7.906766522712132,1604.451773437081,None,t,9.225969800036182,1604.451773437081,None,7.906766522712132,9.225969800036182,9,False,False,True,1613.7327919456502,None,1613.7327919456502,None,1613.7327919456502,None,1613.7327919456502,None,1613.7327919456502,None,1613.7327919456502,None,1614.7318616895182,None,1614.7318616895182,None,c,,,,,,,,,,,,,,,,,,,,,,,,,,,1_2,001,2021_Apr_07_1141,ComputerHuman,2020.1.3,60.00313737277559,
Computer.xlsx,c,Sychronize.jpg,Number7.jpg,7,Computer,,,,,0,8,8,1,0,5,5,3,,,,,,,,,,,,,,,,,,,,,,,,,,,,,,,,,,,,,,,,,,,,,,,,,,,,,,,,,1615.7988953048052,None,1615.7988953048052,None,1616.2321970628918,None,1616.2321970628918,None,v,7.421523753127985,1616.2321970628918,None,t,7.42507733155071,1616.2321970628918,None,7.421523753127985,7.42507733155071,7,False,False,False,1623.7303254837889,None,1623.7303254837889,None,1623.7303254837889,None,1623.7303254837889,None,1623.7303254837889,None,1623.7303254837889,None,1624.729989629247,None,1624.729989629247,None,c,,,,,,,,,,,,,,,,,,,,,,,,,,,1_2,001,2021_Apr_07_1141,ComputerHuman,2020.1.3,60.00313737277559,
Computer.xlsx,c,Sychronize.jpg,Number8.jpg,8,Computer,,,,,0,8,8,1,0,6,6,4,,,,,,,,,,,,,,,,,,,,,,,,,,,,,,,,,,,,,,,,,,,,,,,,,,,,,,,,,1625.7798577734602,None,1625.7798577734602,None,1626.2297690943897,None,1626.2297690943897,None,v,6.475262725181892,1626.2297690943897,None,t,7.582065752427297,1626.2297690943897,None,6.475262725181892,7.582065752427297,8,False,False,False,1633.8612070682784,None,1633.8612070682784,None,1633.8612070682784,None,1633.8612070682784,None,1633.8612070682784,None,1633.8612070682784,None,1634.8609504458973,None,1634.8609504458973,None,c,,,,,,,,,,,,,,,,,,,,,,,,,,,1_2,001,2021_Apr_07_1141,ComputerHuman,2020.1.3,60.00313737277559,
Computer.xlsx,c,Sychronize.jpg,Number8.jpg,8,Computer,,,,,0,8,8,1,0,7,7,5,,,,,,,,,,,,,,,,,,,,,,,,,,,,,,,,,,,,,,,,,,,,,,,,,,,,,,,,,1635.910678410134,None,1635.910678410134,None,1636.3605801077238,None,1636.3605801077238,None,v,8.035510763545972,1636.3605801077238,None,t,7.131190493681061,1636.3605801077238,None,8.035510763545972,7.131190493681061,8,False,True,False,1644.458580666519,None,1644.458580666519,None,1644.458580666519,None,1644.458580666519,None,1644.458580666519,None,1644.458580666519,None,1645.4750606350563,None,1645.4750606350563,None,c,,,,,,,,,,,,,,,,,,,,,,,,,,,1_2,001,2021_Apr_07_1141,ComputerHuman,2020.1.3,60.00313737277559,
Computer.xlsx,c,Sychronize.jpg,Number10.jpg,10,Computer,,,,,0,8,8,1,0,8,8,8,,,,,,,,,,,,,,,,,,,,,,,,,,,,,,,,,,,,,,,,,,,,,,,,,,,,,,,,,1646.5246015857329,None,1646.5246015857329,None,1646.9747618303709,None,1646.9747618303709,None,v,8.70050018909933,1646.9747618303709,None,t,9.77993828873332,1646.9747618303709,None,8.70050018909933,9.77993828873332,10,False,False,True,1656.8222752076153,None,1656.8222752076153,None,1656.8222752076153,None,1656.8222752076153,None,1656.8222752076153,None,1656.8222752076153,None,1657.8220426435828,None,1657.8220426435828,None,c,,,,,,,,,,,,,,,,,,,,,,,,,,,1_2,001,2021_Apr_07_1141,ComputerHuman,2020.1.3,60.00313737277559,
Computer.xlsx,c,Sychronize.jpg,Number9.jpg,9,Computer,,,,,0,8,8,1,0,9,9,6,,,,,,,,,,,,,,,,,,,,,,,,,,,,,,,,,,,,,,,,,,,,,,,,,,,,,,,,,1658.8714767751926,None,1658.8714767751926,None,1659.3216559457314,None,1659.3216559457314,None,v,7.612778639779208,1659.3216559457314,None,t,11.35177090293655,1659.3216559457314,None,7.612778639779208,11.35177090293655,9,False,False,False,1670.7355705244818,None,1670.7355705244818,None,1670.7355705244818,None,1670.7355705244818,None,1670.7355705244818,None,1670.7355705244818,None,1671.7519632414105,None,1671.7519632414105,None,c,,,,,,,,,,,,,,,,,,,,,,,,,,,1_2,001,2021_Apr_07_1141,ComputerHuman,2020.1.3,60.00313737277559,
Computer.xlsx,c,,,,,,,,,0,8,8,1,,,,,,,,,,,,,,,,,,,,,,,,,,,,,,,,,,,,,,,,,,,,,,,,,,,,,,,,,,,,,,,,,,,,,,,,,,,,,,,,,,,,,,,,,,,,,,,,,,,c,1672.7517277903744,None,1672.7517277903744,None,a,1,3.0582629038563027,1672.7517277903744,None,l,1,4.521270627226841,1672.7517277903744,None,c,c,1677.333905815095,None,None,None,None,None,None,,,,1_2,001,2021_Apr_07_1141,ComputerHuman,2020.1.3,60.00313737277559,
Human.xlsx,h,Sychronize.jpg,Number7.jpg,7,Human,,,,,0,9,9,6,0,0,0,2,,,,,,,,,,,,,,,,,,,,,,,,,,,,,,,,,,,,,,,,,,,,,,,,,,,,,1682.3327192573606,None,1682.3327192573606,None,1685.4151948036533,None,1685.4151948036533,None,1685.8485462823273,None,1685.8485462823273,None,v,6.723976004523138,1685.8485462823273,None,t,7.41111418701621,1685.8485462823273,None,6.723976004523138,7.41111418701621,7,False,False,False,1693.3134616723246,None,1693.3134616723246,None,1693.3134616723246,None,1693.3134616723246,None,1693.3134616723246,None,1693.3134616723246,None,1694.3298290477933,None,1694.3298290477933,None,h,,,,,,,,,,,,,,,,,,,,,,,,,,,1_2,001,2021_Apr_07_1141,ComputerHuman,2020.1.3,60.00313737277559,
Human.xlsx,h,Sychronize.jpg,Number10.jpg,10,Human,,,,,0,9,9,6,0,1,1,9,,,,,,,,,,,,,,,,,,,,,,,,,,,,,,,,,,,,,,,,,,,,,,,,,,,,,,,,,1695.3794120203847,None,1695.3794120203847,None,1695.8123153722254,None,1695.8123153722254,None,v,8.28333805411603,1695.8123153722254,None,t,10.218912042999364,1695.8123153722254,None,8.28333805411603,10.218912042999364,10,False,False,False,1706.11032933954,None,1706.11032933954,None,1706.11032933954,None,1706.11032933954,None,1706.11032933954,None,1706.11032933954,None,1707.1100688678225,None,1707.1100688678225,None,h,,,,,,,,,,,,,,,,,,,,,,,,,,,1_2,001,2021_Apr_07_1141,ComputerHuman,2020.1.3,60.00313737277559,
Human.xlsx,h,Sychronize.jpg,Number9.jpg,9,Human,,,,,0,9,9,6,0,2,2,6,,,,,,,,,,,,,,,,,,,,,,,,,,,,,,,,,,,,,,,,,,,,,,,,,,,,,,,,,1708.1596117431682,None,1708.1596117431682,None,1708.609656828513,None,1708.609656828513,None,v,8.83705216587623,1708.609656828513,None,t,7.084052811604124,1708.609656828513,None,8.83705216587623,7.084052811604124,9,False,False,False,1717.5075252909364,None,1717.5075252909364,None,1717.5075252909364,None,1717.5075252909364,None,1717.5075252909364,None,1717.5075252909364,None,1718.5072670646668,None,1718.5072670646668,None,h,,,,,,,,,,,,,,,,,,,,,,,,,,,1_2,001,2021_Apr_07_1141,ComputerHuman,2020.1.3,60.00313737277559,
Human.xlsx,h,Sychronize.jpg,Number8.jpg,8,Human,,,,,0,9,9,6,0,3,3,4,,,,,,,,,,,,,,,,,,,,,,,,,,,,,,,,,,,,,,,,,,,,,,,,,,,,,,,,,1719.5568166763487,None,1719.5568166763487,None,1720.006899934272,None,1720.006899934272,None,v,7.482994115969632,1720.006899934272,None,t,7.614374189433875,1720.006899934272,None,7.482994115969632,7.614374189433875,8,True,False,False,1727.6717276877253,None,1727.6717276877253,None,1727.6717276877253,None,1727.6717276877253,None,1727.6717276877253,None,1727.6717276877253,None,1728.6880729295144,None,1728.6880729295144,None,h,,,,,,,,,,,,,,,,,,,,,,,,,,,1_2,001,2021_Apr_07_1141,ComputerHuman,2020.1.3,60.00313737277559,
Human.xlsx,h,Sychronize.jpg,Number9.jpg,9,Human,,,,,0,9,9,6,0,4,4,7,,,,,,,,,,,,,,,,,,,,,,,,,,,,,,,,,,,,,,,,,,,,,,,,,,,,,,,,,1729.7376052191858,None,1729.7376052191858,None,1730.1877738040503,None,1730.1877738040503,None,v,7.445368463226259,1730.1877738040503,None,t,7.785051168899372,1730.1877738040503,None,7.445368463226259,7.785051168899372,9,False,False,False,1738.052828924935,None,1738.052828924935,None,1738.052828924935,None,1738.052828924935,None,1738.052828924935,None,1738.052828924935,None,1739.0522733374792,None,1739.0522733374792,None,h,,,,,,,,,,,,,,,,,,,,,,,,,,,1_2,001,2021_Apr_07_1141,ComputerHuman,2020.1.3,60.00313737277559,
Human.xlsx,h,Sychronize.jpg,Number8.jpg,8,Human,,,,,0,9,9,6,0,5,5,5,,,,,,,,,,,,,,,,,,,,,,,,,,,,,,,,,,,,,,,,,,,,,,,,,,,,,,,,,1740.10202439773,None,1740.10202439773,None,1740.5519706834593,None,1740.5519706834593,None,v,6.820450943263495,1740.5519706834593,None,t,6.9881828601264715,1740.5519706834593,None,6.820450943263495,6.9881828601264715,8,True,False,False,1747.6001403082873,None,1747.6001403082873,None,1747.6001403082873,None,1747.6001403082873,None,1747.6001403082873,None,1747.6001403082873,None,1748.6166023132582,None,1748.6166023132582,None,h,,,,,,,,,,,,,,,,,,,,,,,,,,,1_2,001,2021_Apr_07_1141,ComputerHuman,2020.1.3,60.00313737277559,
Human.xlsx,h,Sychronize.jpg,Number6.jpg,6,Human,,,,,0,9,9,6,0,6,6,1,,,,,,,,,,,,,,,,,,,,,,,,,,,,,,,,,,,,,,,,,,,,,,,,,,,,,,,,,1749.6663152009305,None,1749.6663152009305,None,1750.0995714085448,None,1750.0995714085448,None,v,6.4081684828579455,1750.0995714085448,None,t,5.7191800529981265,1750.0995714085448,None,6.4081684828579455,5.7191800529981265,6,False,False,False,1756.5812804879415,None,1756.5812804879415,None,1756.5812804879415,None,1756.5812804879415,None,1756.5812804879415,None,1756.5812804879415,None,1757.5810671705867,None,1757.5810671705867,None,h,,,,,,,,,,,,,,,,,,,,,,,,,,,1_2,001,2021_Apr_07_1141,ComputerHuman,2020.1.3,60.00313737277559,
Human.xlsx,h,Sychronize.jpg,Number10.jpg,10,Human,,,,,0,9,9,6,0,7,7,8,,,,,,,,,,,,,,,,,,,,,,,,,,,,,,,,,,,,,,,,,,,,,,,,,,,,,,,,,1758.6307989841598,None,1758.6307989841598,None,1759.0807513646696,None,1759.0807513646696,None,v,8.510153424896998,1759.0807513646696,None,t,9.648894390587884,1759.0807513646696,None,8.510153424896998,9.648894390587884,10,False,False,False,1768.7950318548565,None,1768.7950318548565,None,1768.7950318548565,None,1768.7950318548565,None,1768.7950318548565,None,1768.7950318548565,None,1769.794743796233,None,1769.794743796233,None,h,,,,,,,,,,,,,,,,,,,,,,,,,,,1_2,001,2021_Apr_07_1141,ComputerHuman,2020.1.3,60.00313737277559,
Human.xlsx,h,Sychronize.jpg,Number7.jpg,7,Human,,,,,0,9,9,6,0,8,8,3,,,,,,,,,,,,,,,,,,,,,,,,,,,,,,,,,,,,,,,,,,,,,,,,,,,,,,,,,1770.8609058577576,None,1770.8609058577576,None,1771.2943737788382,None,1771.2943737788382,None,v,6.291835783487841,1771.2943737788382,None,t,5.819173926138319,1771.2943737788382,None,6.291835783487841,5.819173926138319,7,False,False,False,1777.642690865302,None,1777.642690865302,None,1777.642690865302,None,1777.642690865302,None,1777.642690865302,None,1777.642690865302,None,1778.6423874093352,None,1778.6423874093352,None,h,,,,,,,,,,,,,,,,,,,,,,,,,,,1_2,001,2021_Apr_07_1141,ComputerHuman,2020.1.3,60.00313737277559,
Human.xlsx,h,Sychronize.jpg,Number6.jpg,6,Human,,,,,0,9,9,6,0,9,9,0,,,,,,,,,,,,,,,,,,,,,,,,,,,,,,,,,,,,,,,,,,,,,,,,,,,,,,,,,1779.7087836387827,None,1779.7087836387827,None,1780.158938750973,None,1780.158938750973,None,v,6.226546558838891,1780.158938750973,None,t,4.614325751957949,1780.158938750973,None,6.226546558838891,4.614325751957949,6,False,False,False,1786.4407104462307,None,1786.4407104462307,None,1786.4407104462307,None,1786.4407104462307,None,1786.4407104462307,None,1786.4407104462307,None,1787.4404451628443,None,1787.4404451628443,None,h,,,,,,,,,,,,,,,,,,,,,,,,,,,1_2,001,2021_Apr_07_1141,ComputerHuman,2020.1.3,60.00313737277559,
Human.xlsx,h,,,,,,,,,0,9,9,6,,,,,,,,,,,,,,,,,,,,,,,,,,,,,,,,,,,,,,,,,,,,,,,,,,,,,,,,,,,,,,,,,,,,,,,,,,,,,,,,,,,,,,,,,,,,,,,,,,,h,1788.4569094132612,None,1788.4569094132612,None,a,0,2.2642748605339875,1788.4569094132612,None,l,0,2.091462462080017,1788.4569094132612,None,c,c,1790.7729706703076,None,None,None,None,None,None,,,,1_2,001,2021_Apr_07_1141,ComputerHuman,2020.1.3,60.00313737277559,
Human.xlsx,h,Sychronize.jpg,Number7.jpg,7,Human,,,,,1,0,10,2,0,0,0,3,,,,,,,,,,,,,,,,,,,,,,,,,,,,,,,,,,,,,,,,,,,,,,,,,,,,,1795.7885004944792,None,1795.7885004944792,None,1798.8541618215813,None,1798.8541618215813,None,1799.2875216404836,None,1799.2875216404836,None,v,5.908596240289626,1799.2875216404836,None,t,5.736111356149195,1799.2875216404836,None,5.908596240289626,5.736111356149195,7,True,False,False,1805.2694685767501,None,1805.2694685767501,None,1805.2694685767501,None,1805.2694685767501,None,1805.2694685767501,None,1805.2694685767501,None,1806.269232804937,None,1806.269232804937,None,h,,,,,,,,,,,,,,,,,,,,,,,,,,,1_2,001,2021_Apr_07_1141,ComputerHuman,2020.1.3,60.00313737277559,
Human.xlsx,h,Sychronize.jpg,Number10.jpg,10,Human,,,,,1,0,10,2,0,1,1,9,,,,,,,,,,,,,,,,,,,,,,,,,,,,,,,,,,,,,,,,,,,,,,,,,,,,,,,,,1807.3189527497243,None,1807.3189527497243,None,1807.7688794679952,None,1807.7688794679952,None,v,9.486298449905007,1807.7688794679952,None,t,8.306015132380708,1807.7688794679952,None,9.486298449905007,8.306015132380708,10,False,False,False,1817.3165039306523,None,1817.3165039306523,None,1817.3165039306523,None,1817.3165039306523,None,1817.3165039306523,None,1817.3165039306523,None,1818.3162941418568,None,1818.3162941418568,None,h,,,,,,,,,,,,,,,,,,,,,,,,,,,1_2,001,2021_Apr_07_1141,ComputerHuman,2020.1.3,60.00313737277559,
Human.xlsx,h,Sychronize.jpg,Number10.jpg,10,Human,,,,,1,0,10,2,0,2,2,8,,,,,,,,,,,,,,,,,,,,,,,,,,,,,,,,,,,,,,,,,,,,,,,,,,,,,,,,,1819.3658517729882,None,1819.3658517729882,None,1819.8159125764532,None,1819.8159125764532,None,v,7.0864811008850666,1819.8159125764532,None,None,,1819.8159125764532,None,7.0864811008850666,13,10,False,False,False,1832.8628221853896,None,1832.8628221853896,None,1832.8628221853896,None,1832.8628221853896,None,1832.8628221853896,None,1832.8628221853896,None,1833.8624853685133,None,1833.8624853685133,None,h,,,,,,,,,,,,,,,,,,,,,,,,,,,1_2,001,2021_Apr_07_1141,ComputerHuman,2020.1.3,60.00313737277559,
Human.xlsx,h,Sychronize.jpg,Number8.jpg,8,Human,,,,,1,0,10,2,0,3,3,5,,,,,,,,,,,,,,,,,,,,,,,,,,,,,,,,,,,,,,,,,,,,,,,,,,,,,,,,,1834.9120622463242,None,1834.9120622463242,None,1835.3622016403942,None,1835.3622016403942,None,v,8.382967202696818,1835.3622016403942,None,t,6.122186255883207,1835.3622016403942,None,8.382967202696818,6.122186255883207,8,False,False,False,1843.8100984756302,None,1843.8100984756302,None,1843.8100984756302,None,1843.8100984756302,None,1843.8100984756302,None,1843.8100984756302,None,1844.826470341991,None,1844.826470341991,None,h,,,,,,,,,,,,,,,,,,,,,,,,,,,1_2,001,2021_Apr_07_1141,ComputerHuman,2020.1.3,60.00313737277559,
Human.xlsx,h,Sychronize.jpg,Number7.jpg,7,Human,,,,,1,0,10,2,0,4,4,2,,,,,,,,,,,,,,,,,,,,,,,,,,,,,,,,,,,,,,,,,,,,,,,,,,,,,,,,,1845.859339819678,None,1845.859339819678,None,1846.3261596685197,None,1846.3261596685197,None,v,6.998381033552505,1846.3261596685197,None,t,5.833145731679906,1846.3261596685197,None,6.998381033552505,5.833145731679906,7,False,False,False,1853.3744037138395,None,1853.3744037138395,None,1853.3744037138395,None,1853.3744037138395,None,1853.3744037138395,None,1853.3744037138395,None,1854.3742577598596,None,1854.3742577598596,None,h,,,,,,,,,,,,,,,,,,,,,,,,,,,1_2,001,2021_Apr_07_1141,ComputerHuman,2020.1.3,60.00313737277559,
Human.xlsx,h,Sychronize.jpg,Number6.jpg,6,Human,,,,,1,0,10,2,0,5,5,0,,,,,,,,,,,,,,,,,,,,,,,,,,,,,,,,,,,,,,,,,,,,,,,,,,,,,,,,,1855.4405782857039,None,1855.4405782857039,None,1855.8905184766509,None,1855.8905184766509,None,v,6.2612444709920965,1855.8905184766509,None,t,6.1361644769840495,1855.8905184766509,None,6.2612444709920965,6.1361644769840495,6,True,False,False,1862.205555489617,None,1862.205555489617,None,1862.205555489617,None,1862.205555489617,None,1862.205555489617,None,1862.205555489617,None,1863.2220726684,None,1863.2220726684,None,h,,,,,,,,,,,,,,,,,,,,,,,,,,,1_2,001,2021_Apr_07_1141,ComputerHuman,2020.1.3,60.00313737277559,
Human.xlsx,h,Sychronize.jpg,Number9.jpg,9,Human,,,,,1,0,10,2,0,6,6,7,,,,,,,,,,,,,,,,,,,,,,,,,,,,,,,,,,,,,,,,,,,,,,,,,,,,,,,,,1864.2715837867263,None,1864.2715837867263,None,1864.705026366345,None,1864.705026366345,None,v,8.629921014839056,1864.705026366345,None,t,8.372988762184832,1864.705026366345,None,8.629921014839056,8.372988762184832,9,True,False,False,1873.4028939305908,None,1873.4028939305908,None,1873.4028939305908,None,1873.4028939305908,None,1873.4028939305908,None,1873.4028939305908,None,1874.4026190238665,None,1874.4026190238665,None,h,,,,,,,,,,,,,,,,,,,,,,,,,,,1_2,001,2021_Apr_07_1141,ComputerHuman,2020.1.3,60.00313737277559,
Human.xlsx,h,Sychronize.jpg,Number9.jpg,9,Human,,,,,1,0,10,2,0,7,7,6,,,,,,,,,,,,,,,,,,,,,,,,,,,,,,,,,,,,,,,,,,,,,,,,,,,,,,,,,1875.452278020838,None,1875.452278020838,None,1875.902516856081,None,1875.902516856081,None,v,9.011591312177188,1875.902516856081,None,t,7.991020462106462,1875.902516856081,None,9.011591312177188,7.991020462106462,9,False,False,False,1884.9667212096147,None,1884.9667212096147,None,1884.9667212096147,None,1884.9667212096147,None,1884.9667212096147,None,1884.9667212096147,None,1885.966449510669,None,1885.966449510669,None,h,,,,,,,,,,,,,,,,,,,,,,,,,,,1_2,001,2021_Apr_07_1141,ComputerHuman,2020.1.3,60.00313737277559,
Human.xlsx,h,Sychronize.jpg,Number8.jpg,8,Human,,,,,1,0,10,2,0,8,8,4,,,,,,,,,,,,,,,,,,,,,,,,,,,,,,,,,,,,,,,,,,,,,,,,,,,,,,,,,1887.016033445595,None,1887.016033445595,None,1887.4661045139555,None,1887.4661045139555,None,v,8.739158105370734,1887.4661045139555,None,t,7.202060934343535,1887.4661045139555,None,8.739158105370734,7.202060934343535,8,False,False,False,1896.2639906512459,None,1896.2639906512459,None,1896.2639906512459,None,1896.2639906512459,None,1896.2639906512459,None,1896.2639906512459,None,1897.2804154459727,None,1897.2804154459727,None,h,,,,,,,,,,,,,,,,,,,,,,,,,,,1_2,001,2021_Apr_07_1141,ComputerHuman,2020.1.3,60.00313737277559,
Human.xlsx,h,Sychronize.jpg,Number6.jpg,6,Human,,,,,1,0,10,2,0,9,9,1,,,,,,,,,,,,,,,,,,,,,,,,,,,,,,,,,,,,,,,,,,,,,,,,,,,,,,,,,1898.3132024837187,None,1898.3132024837187,None,1898.763454470859,None,1898.763454470859,None,v,5.409228333292049,1898.763454470859,None,t,6.624130972364583,1898.763454470859,None,5.409228333292049,6.624130972364583,6,False,False,False,1905.4617489905913,None,1905.4617489905913,None,1905.4617489905913,None,1905.4617489905913,None,1905.4617489905913,None,1905.4617489905913,None,1906.4614939721005,None,1906.4614939721005,None,h,,,,,,,,,,,,,,,,,,,,,,,,,,,1_2,001,2021_Apr_07_1141,ComputerHuman,2020.1.3,60.00313737277559,
Human.xlsx,h,,,,,,,,,1,0,10,2,,,,,,,,,,,,,,,,,,,,,,,,,,,,,,,,,,,,,,,,,,,,,,,,,,,,,,,,,,,,,,,,,,,,,,,,,,,,,,,,,,,,,,,,,,,,,,,,,,,h,1907.4612039888098,None,1907.4612039888098,None,a,0,2.07133364406036,1907.4612039888098,None,o,1,1.8504805735246919,1907.4612039888098,None,c,h,1909.5940131281595,None,None,None,None,None,None,,,,1_2,001,2021_Apr_07_1141,ComputerHuman,2020.1.3,60.00313737277559,
Computer.xlsx,c,Sychronize.jpg,Number7.jpg,7,Computer,,,,,1,1,11,3,0,0,0,3,,,,,,,,,,,,,,,,,,,,,,,,,,,,,,,,,,,,,,,,,,,,,,,,,,,,,1914.6095670106797,None,1914.6095670106797,None,1917.675176692529,None,1917.675176692529,None,1918.1086593693954,None,1918.1086593693954,None,v,6.15449020199776,1918.1086593693954,None,t,7.226120244908088,1918.1086593693954,None,6.15449020199776,7.226120244908088,7,False,False,True,1925.4068103089057,None,1925.4068103089057,None,1925.4068103089057,None,1925.4068103089057,None,1925.4068103089057,None,1925.4068103089057,None,1926.4065703669794,None,1926.4065703669794,None,c,,,,,,,,,,,,,,,,,,,,,,,,,,,1_2,001,2021_Apr_07_1141,ComputerHuman,2020.1.3,60.00313737277559,
Computer.xlsx,c,Sychronize.jpg,Number6.jpg,6,Computer,,,,,1,1,11,3,0,1,1,0,,,,,,,,,,,,,,,,,,,,,,,,,,,,,,,,,,,,,,,,,,,,,,,,,,,,,,,,,1927.4563284843452,None,1927.4563284843452,None,1927.9062657882905,None,1927.9062657882905,None,v,5.7601863848358335,1927.9062657882905,None,t,5.567195126997831,1927.9062657882905,None,5.7601863848358335,5.567195126997831,6,False,True,False,1933.7215390542378,None,1933.7215390542378,None,1933.7215390542378,None,1933.7215390542378,None,1933.7215390542378,None,1933.7215390542378,None,1934.7212651098444,None,1934.7212651098444,None,c,,,,,,,,,,,,,,,,,,,,,,,,,,,1_2,001,2021_Apr_07_1141,ComputerHuman,2020.1.3,60.00313737277559,
Computer.xlsx,c,Sychronize.jpg,Number8.jpg,8,Computer,,,,,1,1,11,3,0,2,2,4,,,,,,,,,,,,,,,,,,,,,,,,,,,,,,,,,,,,,,,,,,,,,,,,,,,,,,,,,1935.787401509132,None,1935.787401509132,None,1936.2209326234724,None,1936.2209326234724,None,v,6.752788923922708,1936.2209326234724,None,t,7.8400533646236,1936.2209326234724,None,6.752788923922708,7.8400533646236,8,False,False,True,1944.119004459134,None,1944.119004459134,None,1944.119004459134,None,1944.119004459134,None,1944.119004459134,None,1944.119004459134,None,1945.1353606073726,None,1945.1353606073726,None,c,,,,,,,,,,,,,,,,,,,,,,,,,,,1_2,001,2021_Apr_07_1141,ComputerHuman,2020.1.3,60.00313737277559,
Computer.xlsx,c,Sychronize.jpg,Number9.jpg,9,Computer,,,,,1,1,11,3,0,3,3,7,,,,,,,,,,,,,,,,,,,,,,,,,,,,,,,,,,,,,,,,,,,,,,,,,,,,,,,,,1946.1850860053864,None,1946.1850860053864,None,1946.6349216227127,None,1946.6349216227127,None,v,7.265997759044694,1946.6349216227127,None,t,8.493018748509712,1946.6349216227127,None,7.265997759044694,8.493018748509712,9,False,False,False,1955.199595114037,None,1955.199595114037,None,1955.199595114037,None,1955.199595114037,None,1955.199595114037,None,1955.199595114037,None,1956.1993939862468,None,1956.1993939862468,None,c,,,,,,,,,,,,,,,,,,,,,,,,,,,1_2,001,2021_Apr_07_1141,ComputerHuman,2020.1.3,60.00313737277559,
Computer.xlsx,c,Sychronize.jpg,Number9.jpg,9,Computer,,,,,1,1,11,3,0,4,4,6,,,,,,,,,,,,,,,,,,,,,,,,,,,,,,,,,,,,,,,,,,,,,,,,,,,,,,,,,1957.2320835074888,None,1957.2320835074888,None,1957.699024289629,None,1957.699024289629,None,v,8.068981699938377,1957.699024289629,None,t,8.212018524287487,1957.699024289629,None,8.068981699938377,8.212018524287487,9,False,False,False,1965.9635689244415,None,1965.9635689244415,None,1965.9635689244415,None,1965.9635689244415,None,1965.9635689244415,None,1965.9635689244415,None,1966.9634075731183,None,1966.9634075731183,None,c,,,,,,,,,,,,,,,,,,,,,,,,,,,1_2,001,2021_Apr_07_1141,ComputerHuman,2020.1.3,60.00313737277559,
Computer.xlsx,c,Sychronize.jpg,Number7.jpg,7,Computer,,,,,1,1,11,3,0,5,5,2,,,,,,,,,,,,,,,,,,,,,,,,,,,,,,,,,,,,,,,,,,,,,,,,,,,,,,,,,1968.0295539165227,None,1968.0295539165227,None,1968.4630904840897,None,1968.4630904840897,None,v,7.128276867320892,1968.4630904840897,None,t,8.223035002331017,1968.4630904840897,None,7.128276867320892,8.223035002331017,7,False,True,False,1976.7443877487194,None,1976.7443877487194,None,1976.7443877487194,None,1976.7443877487194,None,1976.7443877487194,None,1976.7443877487194,None,1977.7607535202978,None,1977.7607535202978,None,c,,,,,,,,,,,,,,,,,,,,,,,,,,,1_2,001,2021_Apr_07_1141,ComputerHuman,2020.1.3,60.00313737277559,
Computer.xlsx,c,Sychronize.jpg,Number6.jpg,6,Computer,,,,,1,1,11,3,0,6,6,1,,,,,,,,,,,,,,,,,,,,,,,,,,,,,,,,,,,,,,,,,,,,,,,,,,,,,,,,,1978.8102707334046,None,1978.8102707334046,None,1979.260407240471,None,1979.260407240471,None,v,7.078107512586939,1979.260407240471,None,t,6.321397398682166,1979.260407240471,None,7.078107512586939,6.321397398682166,6,False,False,False,1986.3919717612725,None,1986.3919717612725,None,1986.3919717612725,None,1986.3919717612725,None,1986.3919717612725,None,1986.3919717612725,None,1987.3917911632716,None,1987.3917911632716,None,c,,,,,,,,,,,,,,,,,,,,,,,,,,,1_2,001,2021_Apr_07_1141,ComputerHuman,2020.1.3,60.00313737277559,
Computer.xlsx,c,Sychronize.jpg,Number10.jpg,10,Computer,,,,,1,1,11,3,0,7,7,8,,,,,,,,,,,,,,,,,,,,,,,,,,,,,,,,,,,,,,,,,,,,,,,,,,,,,,,,,1988.4580196258385,None,1988.4580196258385,None,1988.9079816296862,None,1988.9079816296862,None,v,8.593702615076836,1988.9079816296862,None,t,9.132924298643047,1988.9079816296862,None,8.593702615076836,9.132924298643047,10,False,False,False,1998.1058702048895,None,1998.1058702048895,None,1998.1058702048895,None,1998.1058702048895,None,1998.1058702048895,None,1998.1058702048895,None,1999.1056020345013,None,1999.1056020345013,None,c,,,,,,,,,,,,,,,,,,,,,,,,,,,1_2,001,2021_Apr_07_1141,ComputerHuman,2020.1.3,60.00313737277559,
Computer.xlsx,c,Sychronize.jpg,Number10.jpg,10,Computer,,,,,1,1,11,3,0,8,8,9,,,,,,,,,,,,,,,,,,,,,,,,,,,,,,,,,,,,,,,,,,,,,,,,,,,,,,,,,2000.1548728901225,None,2000.1548728901225,None,2000.605203147089,None,2000.605203147089,None,v,8.975599381668872,2000.605203147089,None,t,9.47891863177938,2000.605203147089,None,8.975599381668872,9.47891863177938,10,False,False,False,2010.136204253452,None,2010.136204253452,None,2010.136204253452,None,2010.136204253452,None,2010.136204253452,None,2010.136204253452,None,2011.15266818309,None,2011.15266818309,None,c,,,,,,,,,,,,,,,,,,,,,,,,,,,1_2,001,2021_Apr_07_1141,ComputerHuman,2020.1.3,60.00313737277559,
Computer.xlsx,c,Sychronize.jpg,Number8.jpg,8,Computer,,,,,1,1,11,3,0,9,9,5,,,,,,,,,,,,,,,,,,,,,,,,,,,,,,,,,,,,,,,,,,,,,,,,,,,,,,,,,2012.1856156098265,None,2012.1856156098265,None,2012.6523122799254,None,2012.6523122799254,None,v,7.243715237691504,2012.6523122799254,None,t,8.418994098006806,2012.6523122799254,None,7.243715237691504,8.418994098006806,8,False,False,False,2021.1503030870708,None,2021.1503030870708,None,2021.1503030870708,None,2021.1503030870708,None,2021.1503030870708,None,2021.1503030870708,None,2022.1500230478969,None,2022.1500230478969,None,c,,,,,,,,,,,,,,,,,,,,,,,,,,,1_2,001,2021_Apr_07_1141,ComputerHuman,2020.1.3,60.00313737277559,
Computer.xlsx,c,,,,,,,,,1,1,11,3,,,,,,,,,,,,,,,,,,,,,,,,,,,,,,,,,,,,,,,,,,,,,,,,,,,,,,,,,,,,,,,,,,,,,,,,,,,,,,,,,,,,,,,,,,,,,,,,,,,c,2023.1497019491426,None,2023.1497019491426,None,q,0,2.233890770607104,2023.1497019491426,None,o,0,2.0536164348668535,2023.1497019491426,None,h,h,None,None,2025.4491334343356,None,"['space', 'space']",2026.4322605127754,None,"[0.07125152489788888, 0.8632231578594656]",,,1_2,001,2021_Apr_07_1141,ComputerHuman,2020.1.3,60.00313737277559,
Computer.xlsx,c,Sychronize.jpg,Number8.jpg,8,Computer,,,,,1,2,12,1,0,0,0,5,,,,,,,,,,,,,,,,,,,,,,,,,,,,,,,,,,,,,,,,,,,,,,,,,,,,,2027.3486539033374,None,2027.3486539033374,None,2030.4145987981728,None,2030.4145987981728,None,2030.864552782573,None,2030.864552782573,None,v,7.106552820423531,2030.864552782573,None,t,10.476853463167572,2030.864552782573,None,7.106552820423531,10.476853463167572,8,False,False,False,2041.4119469266416,None,2041.4119469266416,None,2041.4119469266416,None,2041.4119469266416,None,2041.4119469266416,None,2041.4119469266416,None,2042.41105484309,None,2042.41105484309,None,c,,,,,,,,,,,,,,,,,,,,,,,,,,,1_2,001,2021_Apr_07_1141,ComputerHuman,2020.1.3,60.00313737277559,
Computer.xlsx,c,Sychronize.jpg,Number7.jpg,7,Computer,,,,,1,2,12,1,0,1,1,3,,,,,,,,,,,,,,,,,,,,,,,,,,,,,,,,,,,,,,,,,,,,,,,,,,,,,,,,,2043.4445212885903,None,2043.4445212885903,None,2043.9114181241484,None,2043.9114181241484,None,v,6.486241030646852,2043.9114181241484,None,t,6.097251221441184,2043.9114181241484,None,6.486241030646852,6.097251221441184,7,False,False,False,2050.4596677830805,None,2050.4596677830805,None,2050.4596677830805,None,2050.4596677830805,None,2050.4596677830805,None,2050.4596677830805,None,2051.4594833357432,None,2051.4594833357432,None,c,,,,,,,,,,,,,,,,,,,,,,,,,,,1_2,001,2021_Apr_07_1141,ComputerHuman,2020.1.3,60.00313737277559,
Computer.xlsx,c,Sychronize.jpg,Number7.jpg,7,Computer,,,,,1,2,12,1,0,2,2,2,,,,,,,,,,,,,,,,,,,,,,,,,,,,,,,,,,,,,,,,,,,,,,,,,,,,,,,,,2052.5089764905033,None,2052.5089764905033,None,2052.9590578237576,None,2052.9590578237576,None,v,7.133936673937569,2052.9590578237576,None,t,6.537109360589966,2052.9590578237576,None,7.133936673937569,6.537109360589966,7,False,True,False,2060.1574057530242,None,2060.1574057530242,None,2060.1574057530242,None,2060.1574057530242,None,2060.1574057530242,None,2060.1574057530242,None,2061.173828302305,None,2061.173828302305,None,c,,,,,,,,,,,,,,,,,,,,,,,,,,,1_2,001,2021_Apr_07_1141,ComputerHuman,2020.1.3,60.00313737277559,
Computer.xlsx,c,Sychronize.jpg,Number10.jpg,10,Computer,,,,,1,2,12,1,0,3,3,8,,,,,,,,,,,,,,,,,,,,,,,,,,,,,,,,,,,,,,,,,,,,,,,,,,,,,,,,,2062.223262433915,None,2062.223262433915,None,2062.6734098474344,None,2062.6734098474344,None,v,9.366656925709322,2062.6734098474344,None,t,10.065881380794963,2062.6734098474344,None,9.366656925709322,10.065881380794963,10,False,False,True,2072.8209487906834,None,2072.8209487906834,None,2072.8209487906834,None,2072.8209487906834,None,2072.8209487906834,None,2072.8209487906834,None,2073.8207149435375,None,2073.8207149435375,None,c,,,,,,,,,,,,,,,,,,,,,,,,,,,1_2,001,2021_Apr_07_1141,ComputerHuman,2020.1.3,60.00313737277559,
Computer.xlsx,c,Sychronize.jpg,Number8.jpg,8,Computer,,,,,1,2,12,1,0,4,4,4,,,,,,,,,,,,,,,,,,,,,,,,,,,,,,,,,,,,,,,,,,,,,,,,,,,,,,,,,2074.870427189654,None,2074.870427189654,None,2075.320365455932,None,2075.320365455932,None,v,7.450916959884125,2075.320365455932,None,t,8.310000157182003,2075.320365455932,None,7.450916959884125,8.310000157182003,8,False,False,False,2083.685034520521,None,2083.685034520521,None,2083.685034520521,None,2083.685034520521,None,2083.685034520521,None,2083.685034520521,None,2084.6847416502287,None,2084.6847416502287,None,c,,,,,,,,,,,,,,,,,,,,,,,,,,,1_2,001,2021_Apr_07_1141,ComputerHuman,2020.1.3,60.00313737277559,
Computer.xlsx,c,Sychronize.jpg,Number6.jpg,6,Computer,,,,,1,2,12,1,0,5,5,1,,,,,,,,,,,,,,,,,,,,,,,,,,,,,,,,,,,,,,,,,,,,,,,,,,,,,,,,,2085.7509338648842,None,2085.7509338648842,None,2086.184447977991,None,2086.184447977991,None,v,6.5860985731469555,2086.184447977991,None,t,6.401130934833418,2086.184447977991,None,6.5860985731469555,6.401130934833418,6,False,False,False,2092.832712681412,None,2092.832712681412,None,2092.832712681412,None,2092.832712681412,None,2092.832712681412,None,2092.832712681412,None,2093.84920195251,None,2093.84920195251,None,c,,,,,,,,,,,,,,,,,,,,,,,,,,,1_2,001,2021_Apr_07_1141,ComputerHuman,2020.1.3,60.00313737277559,
Computer.xlsx,c,Sychronize.jpg,Number9.jpg,9,Computer,,,,,1,2,12,1,0,6,6,6,,,,,,,,,,,,,,,,,,,,,,,,,,,,,,,,,,,,,,,,,,,,,,,,,,,,,,,,,2094.898689012488,None,2094.898689012488,None,2095.34878670542,None,2095.34878670542,None,v,7.097024752190919,2095.34878670542,None,t,8.560026060002201,2095.34878670542,None,7.097024752190919,8.560026060002201,9,False,False,False,2103.963268676255,None,2103.963268676255,None,2103.963268676255,None,2103.963268676255,None,2103.963268676255,None,2103.963268676255,None,2104.9797925913763,None,2104.9797925913763,None,c,,,,,,,,,,,,,,,,,,,,,,,,,,,1_2,001,2021_Apr_07_1141,ComputerHuman,2020.1.3,60.00313737277559,
Computer.xlsx,c,Sychronize.jpg,Number9.jpg,9,Computer,,,,,1,2,12,1,0,7,7,7,,,,,,,,,,,,,,,,,,,,,,,,,,,,,,,,,,,,,,,,,,,,,,,,,,,,,,,,,2106.0293319381626,None,2106.0293319381626,None,2106.4794318765407,None,2106.4794318765407,None,v,7.913472386308058,2106.4794318765407,None,t,8.896992096992108,2106.4794318765407,None,7.913472386308058,8.896992096992108,9,False,False,True,2115.4272448283364,None,2115.4272448283364,None,2115.4272448283364,None,2115.4272448283364,None,2115.4272448283364,None,2115.4272448283364,None,2116.4270844393495,None,2116.4270844393495,None,c,,,,,,,,,,,,,,,,,,,,,,,,,,,1_2,001,2021_Apr_07_1141,ComputerHuman,2020.1.3,60.00313737277559,
Computer.xlsx,c,Sychronize.jpg,Number6.jpg,6,Computer,,,,,1,2,12,1,0,8,8,0,,,,,,,,,,,,,,,,,,,,,,,,,,,,,,,,,,,,,,,,,,,,,,,,,,,,,,,,,2117.4764852100498,None,2117.4764852100498,None,2117.9266550780276,None,2117.9266550780276,None,v,7.377496334309399,2117.9266550780276,None,t,5.849198423953567,2117.9266550780276,None,7.377496334309399,5.849198423953567,6,False,False,True,2125.3581810092373,None,2125.3581810092373,None,2125.3581810092373,None,2125.3581810092373,None,2125.3581810092373,None,2125.3581810092373,None,2126.3745467808158,None,2126.3745467808158,None,c,,,,,,,,,,,,,,,,,,,,,,,,,,,1_2,001,2021_Apr_07_1141,ComputerHuman,2020.1.3,60.00313737277559,
Computer.xlsx,c,Sychronize.jpg,Number10.jpg,10,Computer,,,,,1,2,12,1,0,9,9,9,,,,,,,,,,,,,,,,,,,,,,,,,,,,,,,,,,,,,,,,,,,,,,,,,,,,,,,,,2127.424312596854,None,2127.424312596854,None,2127.874239315125,None,2127.874239315125,None,v,9.505072622529042,2127.874239315125,None,t,9.783889311069288,2127.874239315125,None,9.505072622529042,9.783889311069288,10,False,False,True,2137.721797922063,None,2137.721797922063,None,2137.721797922063,None,2137.721797922063,None,2137.721797922063,None,2137.721797922063,None,2138.7382422842466,None,2138.7382422842466,None,c,,,,,,,,,,,,,,,,,,,,,,,,,,,1_2,001,2021_Apr_07_1141,ComputerHuman,2020.1.3,60.00313737277559,
Computer.xlsx,c,,,,,,,,,1,2,12,1,,,,,,,,,,,,,,,,,,,,,,,,,,,,,,,,,,,,,,,,,,,,,,,,,,,,,,,,,,,,,,,,,,,,,,,,,,,,,,,,,,,,,,,,,,,,,,,,,,,c,2139.738019343554,None,2139.738019343554,None,a,1,2.7447771731822286,2139.738019343554,None,o,0,1.7406808384239412,2139.738019343554,None,c,h,2142.5373162623846,None,None,None,None,None,None,,,,1_2,001,2021_Apr_07_1141,ComputerHuman,2020.1.3,60.00313737277559,
Computer.xlsx,c,Sychronize.jpg,Number9.jpg,9,Computer,,,,,1,3,13,7,0,0,0,6,,,,,,,,,,,,,,,,,,,,,,,,,,,,,,,,,,,,,,,,,,,,,,,,,,,,,2147.553101746603,None,2147.553101746603,None,2150.618491374761,None,2150.618491374761,None,2151.051932992047,None,2151.051932992047,None,v,8.369593648083537,2151.051932992047,None,t,8.980930711637484,2151.051932992047,None,8.369593648083537,8.980930711637484,9,False,False,True,2160.0830269636344,None,2160.0830269636344,None,2160.0830269636344,None,2160.0830269636344,None,2160.0830269636344,None,2160.0830269636344,None,2161.0994536830285,None,2161.0994536830285,None,c,,,,,,,,,,,,,,,,,,,,,,,,,,,1_2,001,2021_Apr_07_1141,ComputerHuman,2020.1.3,60.00313737277559,
Computer.xlsx,c,Sychronize.jpg,Number8.jpg,8,Computer,,,,,1,3,13,7,0,1,1,4,,,,,,,,,,,,,,,,,,,,,,,,,,,,,,,,,,,,,,,,,,,,,,,,,,,,,,,,,2162.1487781085716,None,2162.1487781085716,None,2162.599053191724,None,2162.599053191724,None,v,7.617686542818774,2162.599053191724,None,t,7.733023226572186,2162.599053191724,None,7.617686542818774,7.733023226572186,8,False,False,True,2170.3971747800506,None,2170.3971747800506,None,2170.3971747800506,None,2170.3971747800506,None,2170.3971747800506,None,2170.3971747800506,None,2171.396921044671,None,2171.396921044671,None,c,,,,,,,,,,,,,,,,,,,,,,,,,,,1_2,001,2021_Apr_07_1141,ComputerHuman,2020.1.3,60.00313737277559,
Computer.xlsx,c,Sychronize.jpg,Number10.jpg,10,Computer,,,,,1,3,13,7,0,2,2,9,,,,,,,,,,,,,,,,,,,,,,,,,,,,,,,,,,,,,,,,,,,,,,,,,,,,,,,,,2172.462994571474,None,2172.462994571474,None,2172.9132905051965,None,2172.9132905051965,None,v,8.038762169113397,2172.9132905051965,None,t,9.497915745097998,2172.9132905051965,None,8.038762169113397,9.497915745097998,10,False,False,False,2182.460893154951,None,2182.460893154951,None,2182.460893154951,None,2182.460893154951,None,2182.460893154951,None,2182.460893154951,None,2183.460427706107,None,2183.460427706107,None,c,,,,,,,,,,,,,,,,,,,,,,,,,,,1_2,001,2021_Apr_07_1141,ComputerHuman,2020.1.3,60.00313737277559,
Computer.xlsx,c,Sychronize.jpg,Number9.jpg,9,Computer,,,,,1,3,13,7,0,3,3,7,,,,,,,,,,,,,,,,,,,,,,,,,,,,,,,,,,,,,,,,,,,,,,,,,,,,,,,,,2184.526961870083,None,2184.526961870083,None,2184.9601965855754,None,2184.9601965855754,None,v,9.122757882238147,2184.9601965855754,None,t,8.40604172487474,2184.9601965855754,None,9.122757882238147,8.40604172487474,9,False,True,False,2194.141391233329,None,2194.141391233329,None,2194.141391233329,None,2194.141391233329,None,2194.141391233329,None,2194.141391233329,None,2195.1578503513,None,2195.1578503513,None,c,,,,,,,,,,,,,,,,,,,,,,,,,,,1_2,001,2021_Apr_07_1141,ComputerHuman,2020.1.3,60.00313737277559,
Computer.xlsx,c,Sychronize.jpg,Number8.jpg,8,Computer,,,,,1,3,13,7,0,4,4,5,,,,,,,,,,,,,,,,,,,,,,,,,,,,,,,,,,,,,,,,,,,,,,,,,,,,,,,,,2196.207635734795,None,2196.207635734795,None,2196.6574896364646,None,2196.6574896364646,None,v,8.34861829698275,2196.6574896364646,None,t,7.792013975655209,2196.6574896364646,None,8.34861829698275,7.792013975655209,8,False,False,True,2205.0720922839746,None,2205.0720922839746,None,2205.0720922839746,None,2205.0720922839746,None,2205.0720922839746,None,2205.0720922839746,None,2206.0717933189,None,2206.0717933189,None,c,,,,,,,,,,,,,,,,,,,,,,,,,,,1_2,001,2021_Apr_07_1141,ComputerHuman,2020.1.3,60.00313737277559,
Computer.xlsx,c,Sychronize.jpg,Number10.jpg,10,Computer,,,,,1,3,13,7,0,5,5,8,,,,,,,,,,,,,,,,,,,,,,,,,,,,,,,,,,,,,,,,,,,,,,,,,,,,,,,,,2207.138287706409,None,2207.138287706409,None,2207.571412715831,None,2207.571412715831,None,v,10.501744230245095,2207.571412715831,None,t,10.204862929966112,2207.571412715831,None,10.501744230245095,10.204862929966112,10,False,False,True,2218.135558848163,None,2218.135558848163,None,2218.135558848163,None,2218.135558848163,None,2218.135558848163,None,2218.135558848163,None,2219.135356758038,None,2219.135356758038,None,c,,,,,,,,,,,,,,,,,,,,,,,,,,,1_2,001,2021_Apr_07_1141,ComputerHuman,2020.1.3,60.00313737277559,
Computer.xlsx,c,Sychronize.jpg,Number6.jpg,6,Computer,,,,,1,3,13,7,0,6,6,1,,,,,,,,,,,,,,,,,,,,,,,,,,,,,,,,,,,,,,,,,,,,,,,,,,,,,,,,,2220.1848200804443,None,2220.1848200804443,None,2220.634993156201,None,2220.634993156201,None,v,6.813495835178401,2220.634993156201,None,t,6.753122533016722,2220.634993156201,None,6.813495835178401,6.753122533016722,6,False,False,False,2227.4999334385693,None,2227.4999334385693,None,2227.4999334385693,None,2227.4999334385693,None,2227.4999334385693,None,2227.4999334385693,None,2228.516369781303,None,2228.516369781303,None,c,,,,,,,,,,,,,,,,,,,,,,,,,,,1_2,001,2021_Apr_07_1141,ComputerHuman,2020.1.3,60.00313737277559,
Computer.xlsx,c,Sychronize.jpg,Number6.jpg,6,Computer,,,,,1,3,13,7,0,7,7,0,,,,,,,,,,,,,,,,,,,,,,,,,,,,,,,,,,,,,,,,,,,,,,,,,,,,,,,,,2229.5491439879306,None,2229.5491439879306,None,2230.0160042547986,None,2230.0160042547986,None,v,5.715834659482425,2230.0160042547986,None,t,5.847212166723693,2230.0160042547986,None,5.715834659482425,5.847212166723693,6,False,True,True,2235.914574579435,None,2235.914574579435,None,2235.914574579435,None,2235.914574579435,None,2235.914574579435,None,2235.914574579435,None,2236.914363828305,None,2236.914363828305,None,c,,,,,,,,,,,,,,,,,,,,,,,,,,,1_2,001,2021_Apr_07_1141,ComputerHuman,2020.1.3,60.00313737277559,
Computer.xlsx,c,Sychronize.jpg,Number7.jpg,7,Computer,,,,,1,3,13,7,0,8,8,2,,,,,,,,,,,,,,,,,,,,,,,,,,,,,,,,,,,,,,,,,,,,,,,,,,,,,,,,,2237.9805265313853,None,2237.9805265313853,None,2238.4306611137863,None,2238.4306611137863,None,v,7.092427683010101,2238.4306611137863,None,t,7.176108712939822,2238.4306611137863,None,7.092427683010101,7.176108712939822,7,False,True,True,2245.6622692283136,None,2245.6622692283136,None,2245.6622692283136,None,2245.6622692283136,None,2245.6622692283136,None,2245.6622692283136,None,2246.6786571335733,None,2246.6786571335733,None,c,,,,,,,,,,,,,,,,,,,,,,,,,,,1_2,001,2021_Apr_07_1141,ComputerHuman,2020.1.3,60.00313737277559,
