Condition,CorrectTuringReply,Sychronize,NumberImage,Number,Partner,trials.thisRepN,trials.thisTrialN,trials.thisN,trials.thisIndex,Block.thisRepN,Block.thisTrialN,Block.thisN,Block.thisIndex,trials_loop.thisRepN,trials_loop.thisTrialN,trials_loop.thisN,trials_loop.thisIndex,textLeft.started,textLeft.stopped,textRight.started,textRight.stopped,key_resp_Istr.keys,key_resp_Istr.rt,key_resp_Istr.started,key_resp_Istr.stopped,SychroLeftPr.started,SychroLeftPr.stopped,SychroRightPr.started,SychroRightPr.stopped,NumberLeftPr.started,NumberLeftPr.stopped,NumberRightPr.started,NumberRightPr.stopped,CrossLeftPr.started,CrossLeftPr.stopped,CrossRightPr.started,CrossRightPr.stopped,key_respPrLeft.keys,key_respPrLeft.rt,key_respPrLeft.started,key_respPrLeft.stopped,key_respPrRight.keys,key_respPrRight.rt,key_respPrRight.started,key_respPrRight.stopped,RTPrLeft,RTPrRight,CompPr,SychronizedRTsPr,SychronizedRTsLeftCPr,SychronizedRTsRightCPr,FeedbackLeftLeftPr.started,FeedbackLeftLeftPr.stopped,FeedbackRightRightPr.started,FeedbackRightRightPr.stopped,LineLeftPr.started,LineLeftPr.stopped,LineRightPr.started,LineRightPr.stopped,CreditLeftPr.started,CreditLeftPr.stopped,CreditRightPr.started,CreditRightPr.stopped,text_StartExp.started,text_StartExp.stopped,key_startExp.keys,key_startExp.rt,key_startExp.started,key_startExp.stopped,SychroLeft.started,SychroLeft.stopped,SychroRight.started,SychroRight.stopped,NumberLeft.started,NumberLeft.stopped,NumberRight.started,NumberRight.stopped,CrossLeft.started,CrossLeft.stopped,CrossRight.started,CrossRight.stopped,key_respLeft.keys,key_respLeft.rt,key_respLeft.started,key_respLeft.stopped,key_respRight.keys,key_respRight.rt,key_respRight.started,key_respRight.stopped,RTLeft,RTRight,Comp,SychronizedRTs,SychronizedRTsLeftC,SychronizedRTsRightC,FeedbackLeftLeft.started,FeedbackLeftLeft.stopped,FeedbackLeftRight.started,FeedbackLeftRight.stopped,FeedbackRightLeft.started,FeedbackRightLeft.stopped,FeedbackRightRight.started,FeedbackRightRight.stopped,LineLeft.started,LineLeft.stopped,LineRight.started,LineRight.stopped,CreditLeft.started,CreditLeft.stopped,CreditRight.started,CreditRight.stopped,CorrectTuringReply,TuringtextLeft.started,TuringtextLeft.stopped,TuringtextRight.started,TuringtextRight.stopped,keyTuringLeft.keys,keyTuringLeft.corr,keyTuringLeft.rt,keyTuringLeft.started,keyTuringLeft.stopped,keyTuringRight.keys,keyTuringRight.corr,keyTuringRight.rt,keyTuringRight.started,keyTuringRight.stopped,RespTuringLeft,RespTuringRight,BlockText.started,BlockText.stopped,text_Pause.started,text_Pause.stopped,key_respPause.keys,key_respPause.started,key_respPause.stopped,key_respPause.rt,EndText.started,EndText.stopped,participant,session,date,expName,psychopyVersion,frameRate,
,,,,,,,,,,,,,,,,,,13.754416551371833,None,13.754416551371833,None,"['t', 'v']","[182.81452681559676, 182.91832254931433]",14.60429759086037,None,,,,,,,,,,,,,,,,,,,,,,,,,,,,,,,,,,,,,,,,,,,,,,,,,,,,,,,,,,,,,,,,,,,,,,,,,,,,,,,,,,,,,,,,,,,,,,,,,,,,,,,,,,,,,,,,,,3_4,001,2021_Apr_07_1428,ComputerHuman,2020.1.3,59.97416284053056,
,,,,,,,,,,,,,,,,,,,,,,,,,,197.57633473310125,None,197.57633473310125,None,253.02927933057435,None,253.02927933057435,None,253.49589741007003,None,253.49589741007003,None,v,6.469988172913872,253.49589741007003,None,t,11.396941253682598,253.49589741007003,None,6.469988172913872,11.396941253682598,10,False,False,False,264.9432870953242,None,264.9432870953242,None,264.9432870953242,None,264.9432870953242,None,265.9430981570986,None,265.9430981570986,None,266.9428049660273,None,"['space', 'space']","[39.192509128537495, 55.395342496249214]",267.9258521707525,None,,,,,,,,,,,,,,,,,,,,,,,,,,,,,,,,,,,,,,,,,,,,,,,,,,,,,,,,,,,,,,,,,,,,,,3_4,001,2021_Apr_07_1428,ComputerHuman,2020.1.3,59.97416284053056,
Computer.xlsx,c,Sychronize.jpg,Number9.jpg,9,Computer,,,,,0,0,0,3,0,0,0,7,,,,,,,,,,,,,,,,,,,,,,,,,,,,,,,,,,,,,,,,,,,,,,,,,,,,,323.39565717944424,None,323.39565717944424,None,326.44477053307855,None,326.44477053307855,None,326.8948284495418,None,326.8948284495418,None,v,5.593662838611635,326.8948284495418,None,t,9.444969415424566,326.8948284495418,None,5.593662838611635,9.444969415424566,9,False,False,False,336.4092527124194,None,336.4092527124194,None,336.4092527124194,None,336.4092527124194,None,336.4092527124194,None,336.4092527124194,None,337.4089123669837,None,337.4089123669837,None,c,,,,,,,,,,,,,,,,,,,,,,,,,,,3_4,001,2021_Apr_07_1428,ComputerHuman,2020.1.3,59.97416284053056,
Computer.xlsx,c,Sychronize.jpg,Number6.jpg,6,Computer,,,,,0,0,0,3,0,1,1,0,,,,,,,,,,,,,,,,,,,,,,,,,,,,,,,,,,,,,,,,,,,,,,,,,,,,,,,,,338.4586598986789,None,338.4586598986789,None,338.9085455573695,None,338.9085455573695,None,v,6.502950996993604,338.9085455573695,None,t,5.990226215839357,338.9085455573695,None,6.502950996993604,5.990226215839357,6,False,False,True,345.4736424756229,None,345.4736424756229,None,345.4736424756229,None,345.4736424756229,None,345.4736424756229,None,345.4736424756229,None,346.47341953493014,None,346.47341953493014,None,c,,,,,,,,,,,,,,,,,,,,,,,,,,,3_4,001,2021_Apr_07_1428,ComputerHuman,2020.1.3,59.97416284053056,
Computer.xlsx,c,Sychronize.jpg,Number8.jpg,8,Computer,,,,,0,0,0,3,0,2,2,5,,,,,,,,,,,,,,,,,,,,,,,,,,,,,,,,,,,,,,,,,,,,,,,,,,,,,,,,,347.52286489377,None,347.52286489377,None,347.97304149808406,None,347.97304149808406,None,v,6.137821616008296,347.97304149808406,None,t,7.593125856277766,347.97304149808406,None,6.137821616008296,7.593125856277766,8,False,False,False,355.62116602152673,None,355.62116602152673,None,355.62116602152673,None,355.62116602152673,None,355.62116602152673,None,355.62116602152673,None,356.6376264226092,None,356.6376264226092,None,c,,,,,,,,,,,,,,,,,,,,,,,,,,,3_4,001,2021_Apr_07_1428,ComputerHuman,2020.1.3,59.97416284053056,
Computer.xlsx,c,Sychronize.jpg,Number7.jpg,7,Computer,,,,,0,0,0,3,0,3,3,3,,,,,,,,,,,,,,,,,,,,,,,,,,,,,,,,,,,,,,,,,,,,,,,,,,,,,,,,,357.6704952587388,None,357.6704952587388,None,358.1372920115682,None,358.1372920115682,None,v,7.428720086249086,358.1372920115682,None,t,6.052163631411531,358.1372920115682,None,7.428720086249086,6.052163631411531,7,False,False,False,365.6187037297823,None,365.6187037297823,None,365.6187037297823,None,365.6187037297823,None,365.6187037297823,None,365.6187037297823,None,366.61850003576546,None,366.61850003576546,None,c,,,,,,,,,,,,,,,,,,,,,,,,,,,3_4,001,2021_Apr_07_1428,ComputerHuman,2020.1.3,59.97416284053056,
Computer.xlsx,c,Sychronize.jpg,Number6.jpg,6,Computer,,,,,0,0,0,3,0,4,4,1,,,,,,,,,,,,,,,,,,,,,,,,,,,,,,,,,,,,,,,,,,,,,,,,,,,,,,,,,367.68467492840864,None,367.68467492840864,None,368.11818615451557,None,368.11818615451557,None,v,7.155123738499242,368.11818615451557,None,t,5.042103392515855,368.11818615451557,None,7.155123738499242,5.042103392515855,6,False,False,False,375.33302912888394,None,375.33302912888394,None,375.33302912888394,None,375.33302912888394,None,375.33302912888394,None,375.33302912888394,None,376.3494680378426,None,376.3494680378426,None,c,,,,,,,,,,,,,,,,,,,,,,,,,,,3_4,001,2021_Apr_07_1428,ComputerHuman,2020.1.3,59.97416284053056,
Computer.xlsx,c,Sychronize.jpg,Number9.jpg,9,Computer,,,,,0,0,0,3,0,5,5,6,,,,,,,,,,,,,,,,,,,,,,,,,,,,,,,,,,,,,,,,,,,,,,,,,,,,,,,,,377.39905325587824,None,377.39905325587824,None,377.849299789792,None,377.849299789792,None,v,6.479309660135186,377.849299789792,None,t,9.193995292906038,377.849299789792,None,6.479309660135186,9.193995292906038,9,False,False,True,387.1135287790785,None,387.1135287790785,None,387.1135287790785,None,387.1135287790785,None,387.1135287790785,None,387.1135287790785,None,388.1132557970195,None,388.1132557970195,None,c,,,,,,,,,,,,,,,,,,,,,,,,,,,3_4,001,2021_Apr_07_1428,ComputerHuman,2020.1.3,59.97416284053056,
Computer.xlsx,c,Sychronize.jpg,Number7.jpg,7,Computer,,,,,0,0,0,3,0,6,6,2,,,,,,,,,,,,,,,,,,,,,,,,,,,,,,,,,,,,,,,,,,,,,,,,,,,,,,,,,389.16291832254865,None,389.16291832254865,None,389.612913687306,None,389.612913687306,None,v,7.270699081065686,389.612913687306,None,t,7.186109607908293,389.612913687306,None,7.270699081065686,7.186109607908293,7,False,True,True,396.9444338765934,None,396.9444338765934,None,396.9444338765934,None,396.9444338765934,None,396.9444338765934,None,396.9444338765934,None,397.94413426996107,None,397.94413426996107,None,c,,,,,,,,,,,,,,,,,,,,,,,,,,,3_4,001,2021_Apr_07_1428,ComputerHuman,2020.1.3,59.97416284053056,
Computer.xlsx,c,Sychronize.jpg,Number10.jpg,10,Computer,,,,,0,0,0,3,0,7,7,9,,,,,,,,,,,,,,,,,,,,,,,,,,,,,,,,,,,,,,,,,,,,,,,,,,,,,,,,,399.01036690263936,None,399.01036690263936,None,399.443811086152,None,399.443811086152,None,v,8.011085445308709,399.443811086152,None,t,9.705930318683386,399.443811086152,None,8.011085445308709,9.705930318683386,10,False,False,True,409.20811658097955,None,409.20811658097955,None,409.20811658097955,None,409.20811658097955,None,409.20811658097955,None,409.20811658097955,None,410.22455998083024,None,410.22455998083024,None,c,,,,,,,,,,,,,,,,,,,,,,,,,,,3_4,001,2021_Apr_07_1428,ComputerHuman,2020.1.3,59.97416284053056,
Computer.xlsx,c,Sychronize.jpg,Number10.jpg,10,Computer,,,,,0,0,0,3,0,8,8,8,,,,,,,,,,,,,,,,,,,,,,,,,,,,,,,,,,,,,,,,,,,,,,,,,,,,,,,,,411.27396941253755,None,411.27396941253755,None,411.70753517089906,None,411.70753517089906,None,v,6.562523958102247,411.70753517089906,None,t,9.76192403913592,411.70753517089906,None,6.562523958102247,9.76192403913592,10,False,False,True,421.52172998129026,None,421.52172998129026,None,421.52172998129026,None,421.52172998129026,None,421.52172998129026,None,421.52172998129026,None,422.53815766301705,None,422.53815766301705,None,c,,,,,,,,,,,,,,,,,,,,,,,,,,,3_4,001,2021_Apr_07_1428,ComputerHuman,2020.1.3,59.97416284053056,
Computer.xlsx,c,Sychronize.jpg,Number8.jpg,8,Computer,,,,,0,0,0,3,0,9,9,4,,,,,,,,,,,,,,,,,,,,,,,,,,,,,,,,,,,,,,,,,,,,,,,,,,,,,,,,,423.5879857099826,None,423.5879857099826,None,424.03789606857754,None,424.03789606857754,None,v,7.875158344028023,424.03789606857754,None,t,6.862152721754683,424.03789606857754,None,7.875158344028023,6.862152721754683,8,False,True,False,431.9693130956657,None,431.9693130956657,None,431.9693130956657,None,431.9693130956657,None,431.9693130956657,None,431.9693130956657,None,432.96900579036446,None,432.96900579036446,None,c,,,,,,,,,,,,,,,,,,,,,,,,,,,3_4,001,2021_Apr_07_1428,ComputerHuman,2020.1.3,59.97416284053056,
Computer.xlsx,c,,,,,,,,,0,0,0,3,,,,,,,,,,,,,,,,,,,,,,,,,,,,,,,,,,,,,,,,,,,,,,,,,,,,,,,,,,,,,,,,,,,,,,,,,,,,,,,,,,,,,,,,,,,,,,,,,,,c,433.96879503923265,None,433.96879503923265,None,q,0,8.515469036745344,433.96879503923265,None,l,1,51.679787555163784,433.96879503923265,None,h,c,485.72287669839716,None,None,None,None,None,None,,,,3_4,001,2021_Apr_07_1428,ComputerHuman,2020.1.3,59.97416284053056,
Computer.xlsx,c,Sychronize.jpg,Number7.jpg,7,Computer,,,,,0,1,1,5,0,0,0,3,,,,,,,,,,,,,,,,,,,,,,,,,,,,,,,,,,,,,,,,,,,,,,,,,,,,,490.72164523174797,None,490.72164523174797,None,493.753531524937,None,493.753531524937,None,494.2374186867928,None,494.2374186867928,None,v,7.186399911977787,494.2374186867928,None,t,6.190195998551644,494.2374186867928,None,7.186399911977787,6.190195998551644,7,False,True,False,501.4856257784886,None,501.4856257784886,None,501.4856257784886,None,501.4856257784886,None,501.4856257784886,None,501.4856257784886,None,502.5018651635437,None,502.5018651635437,None,c,,,,,,,,,,,,,,,,,,,,,,,,,,,3_4,001,2021_Apr_07_1428,ComputerHuman,2020.1.3,59.97416284053056,
Computer.xlsx,c,Sychronize.jpg,Number6.jpg,6,Computer,,,,,0,1,1,5,0,1,1,1,,,,,,,,,,,,,,,,,,,,,,,,,,,,,,,,,,,,,,,,,,,,,,,,,,,,,,,,,503.55160082645307,None,503.55160082645307,None,504.00170942583645,None,504.00170942583645,None,v,6.189540328367002,504.00170942583645,None,t,5.913219613263209,504.00170942583645,None,6.189540328367002,5.913219613263209,6,False,True,True,510.25021804883,None,510.25021804883,None,510.25021804883,None,510.25021804883,None,510.25021804883,None,510.25021804883,None,511.2666681850169,None,511.2666681850169,None,c,,,,,,,,,,,,,,,,,,,,,,,,,,,3_4,001,2021_Apr_07_1428,ComputerHuman,2020.1.3,59.97416284053056,
Computer.xlsx,c,Sychronize.jpg,Number7.jpg,7,Computer,,,,,0,1,1,5,0,2,2,2,,,,,,,,,,,,,,,,,,,,,,,,,,,,,,,,,,,,,,,,,,,,,,,,,,,,,,,,,512.2994010112852,None,512.2994010112852,None,512.7496343933017,None,512.7496343933017,None,v,6.816801131448301,512.7496343933017,None,t,6.584123543147143,512.7496343933017,None,6.816801131448301,6.584123543147143,7,False,True,False,519.6478890724102,None,519.6478890724102,None,519.6478890724102,None,519.6478890724102,None,519.6478890724102,None,519.6478890724102,None,520.6477530625452,None,520.6477530625452,None,c,,,,,,,,,,,,,,,,,,,,,,,,,,,3_4,001,2021_Apr_07_1428,ComputerHuman,2020.1.3,59.97416284053056,
Computer.xlsx,c,Sychronize.jpg,Number10.jpg,10,Computer,,,,,0,1,1,5,0,3,3,8,,,,,,,,,,,,,,,,,,,,,,,,,,,,,,,,,,,,,,,,,,,,,,,,,,,,,,,,,521.6971772500401,None,521.6971772500401,None,522.1473169648889,None,522.1473169648889,None,v,11.286073327923077,522.1473169648889,None,t,9.661946204891137,522.1473169648889,None,11.286073327923077,9.661946204891137,10,False,False,False,533.4945129323241,None,533.4945129323241,None,533.4945129323241,None,533.4945129323241,None,533.4945129323241,None,533.4945129323241,None,534.494240271044,None,534.494240271044,None,c,,,,,,,,,,,,,,,,,,,,,,,,,,,3_4,001,2021_Apr_07_1428,ComputerHuman,2020.1.3,59.97416284053056,
Computer.xlsx,c,Sychronize.jpg,Number9.jpg,9,Computer,,,,,0,1,1,5,0,4,4,7,,,,,,,,,,,,,,,,,,,,,,,,,,,,,,,,,,,,,,,,,,,,,,,,,,,,,,,,,535.5604138805757,None,535.5604138805757,None,536.0106183925745,None,536.0106183925745,None,v,7.066062299571058,536.0106183925745,None,t,9.297007686800498,536.0106183925745,None,7.066062299571058,9.297007686800498,9,False,False,True,545.3582669777352,None,545.3582669777352,None,545.3582669777352,None,545.3582669777352,None,545.3582669777352,None,545.3582669777352,None,546.3580591136051,None,546.3580591136051,None,c,,,,,,,,,,,,,,,,,,,,,,,,,,,3_4,001,2021_Apr_07_1428,ComputerHuman,2020.1.3,59.97416284053056,
Computer.xlsx,c,Sychronize.jpg,Number9.jpg,9,Computer,,,,,0,1,1,5,0,5,5,6,,,,,,,,,,,,,,,,,,,,,,,,,,,,,,,,,,,,,,,,,,,,,,,,,,,,,,,,,547.4076276511878,None,547.4076276511878,None,547.8577651205924,None,547.8577651205924,None,v,7.99806699191322,547.8577651205924,None,t,9.492970952593168,547.8577651205924,None,7.99806699191322,9.492970952593168,9,False,False,False,557.4053700157929,None,557.4053700157929,None,557.4053700157929,None,557.4053700157929,None,557.4053700157929,None,557.4053700157929,None,558.4217826209533,None,558.4217826209533,None,c,,,,,,,,,,,,,,,,,,,,,,,,,,,3_4,001,2021_Apr_07_1428,ComputerHuman,2020.1.3,59.97416284053056,
Computer.xlsx,c,Sychronize.jpg,Number8.jpg,8,Computer,,,,,0,1,1,5,0,6,6,5,,,,,,,,,,,,,,,,,,,,,,,,,,,,,,,,,,,,,,,,,,,,,,,,,,,,,,,,,559.4545917923824,None,559.4545917923824,None,559.9215293667403,None,559.9215293667403,None,v,8.10933556937016,559.9215293667403,None,t,7.205224125969835,559.9215293667403,None,8.10933556937016,7.205224125969835,8,False,True,False,568.0860891101984,None,568.0860891101984,None,568.0860891101984,None,568.0860891101984,None,568.0860891101984,None,568.0860891101984,None,569.1025693995143,None,569.1025693995143,None,c,,,,,,,,,,,,,,,,,,,,,,,,,,,3_4,001,2021_Apr_07_1428,ComputerHuman,2020.1.3,59.97416284053056,
Computer.xlsx,c,Sychronize.jpg,Number8.jpg,8,Computer,,,,,0,1,1,5,0,7,7,4,,,,,,,,,,,,,,,,,,,,,,,,,,,,,,,,,,,,,,,,,,,,,,,,,,,,,,,,,570.152256304169,None,570.152256304169,None,570.6022064392309,None,570.6022064392309,None,v,8.703750953111012,570.6022064392309,None,t,6.459185974559659,570.6022064392309,None,8.703750953111012,6.459185974559659,8,False,False,False,579.3665603715381,None,579.3665603715381,None,579.3665603715381,None,579.3665603715381,None,579.3665603715381,None,579.3665603715381,None,580.3664198707847,None,580.3664198707847,None,c,,,,,,,,,,,,,,,,,,,,,,,,,,,3_4,001,2021_Apr_07_1428,ComputerHuman,2020.1.3,59.97416284053056,
Computer.xlsx,c,Sychronize.jpg,Number6.jpg,6,Computer,,,,,0,1,1,5,0,8,8,0,,,,,,,,,,,,,,,,,,,,,,,,,,,,,,,,,,,,,,,,,,,,,,,,,,,,,,,,,581.4159935408134,None,581.4159935408134,None,581.8661290855489,None,581.8661290855489,None,v,9.002995103968715,581.8661290855489,None,t,5.190255663255812,581.8661290855489,None,9.002995103968715,5.190255663255812,6,False,False,False,590.9305714563416,None,590.9305714563416,None,590.9305714563416,None,590.9305714563416,None,590.9305714563416,None,590.9305714563416,None,591.9469545499305,None,591.9469545499305,None,c,,,,,,,,,,,,,,,,,,,,,,,,,,,3_4,001,2021_Apr_07_1428,ComputerHuman,2020.1.3,59.97416284053056,
Computer.xlsx,c,Sychronize.jpg,Number10.jpg,10,Computer,,,,,0,1,1,5,0,9,9,9,,,,,,,,,,,,,,,,,,,,,,,,,,,,,,,,,,,,,,,,,,,,,,,,,,,,,,,,,592.979846802853,None,592.979846802853,None,593.4466499712435,None,593.4466499712435,None,v,8.28563835298337,593.4466499712435,None,t,11.424827124727017,593.4466499712435,None,8.28563835298337,11.424827124727017,10,False,False,False,604.9270489933806,None,604.9270489933806,None,604.9270489933806,None,604.9270489933806,None,604.9270489933806,None,604.9270489933806,None,605.943476675111,None,605.943476675111,None,c,,,,,,,,,,,,,,,,,,,,,,,,,,,3_4,001,2021_Apr_07_1428,ComputerHuman,2020.1.3,59.97416284053056,
Computer.xlsx,c,,,,,,,,,0,1,1,5,,,,,,,,,,,,,,,,,,,,,,,,,,,,,,,,,,,,,,,,,,,,,,,,,,,,,,,,,,,,,,,,,,,,,,,,,,,,,,,,,,,,,,,,,,,,,,,,,,,c,606.9433278341276,None,606.9433278341276,None,q,0,2.9123791749625525,606.9433278341276,None,o,0,3.3993371443866636,606.9433278341276,None,h,h,610.3921818708477,None,None,None,None,None,None,,,,3_4,001,2021_Apr_07_1428,ComputerHuman,2020.1.3,59.97416284053056,
Human.xlsx,h,Sychronize.jpg,Number7.jpg,7,Human,,,,,0,2,2,0,0,0,0,3,,,,,,,,,,,,,,,,,,,,,,,,,,,,,,,,,,,,,,,,,,,,,,,,,,,,,615.3912561056059,None,615.3912561056059,None,618.490469525932,None,618.490469525932,None,618.9237568490098,None,618.9237568490098,None,v,7.950660497892386,618.9237568490098,None,t,6.506186684440763,618.9237568490098,None,7.950660497892386,6.506186684440763,7,False,False,False,626.9384532920012,None,626.9384532920012,None,626.9384532920012,None,626.9384532920012,None,626.9384532920012,None,626.9384532920012,None,627.9548357440326,None,627.9548357440326,None,h,,,,,,,,,,,,,,,,,,,,,,,,,,,3_4,001,2021_Apr_07_1428,ComputerHuman,2020.1.3,59.97416284053056,
Human.xlsx,h,Sychronize.jpg,Number9.jpg,9,Human,,,,,0,2,2,0,0,1,1,6,,,,,,,,,,,,,,,,,,,,,,,,,,,,,,,,,,,,,,,,,,,,,,,,,,,,,,,,,628.9876603128032,None,628.9876603128032,None,629.4376925670294,None,629.4376925670294,None,v,7.899976936063467,629.4376925670294,None,t,7.855161044979468,629.4376925670294,None,7.899976936063467,7.855161044979468,9,True,False,False,637.4191548077724,None,637.4191548077724,None,637.4191548077724,None,637.4191548077724,None,637.4191548077724,None,637.4191548077724,None,638.4189854370015,None,638.4189854370015,None,h,,,,,,,,,,,,,,,,,,,,,,,,,,,3_4,001,2021_Apr_07_1428,ComputerHuman,2020.1.3,59.97416284053056,
Human.xlsx,h,Sychronize.jpg,Number6.jpg,6,Human,,,,,0,2,2,0,0,2,2,1,,,,,,,,,,,,,,,,,,,,,,,,,,,,,,,,,,,,,,,,,,,,,,,,,,,,,,,,,639.4684955929915,None,639.4684955929915,None,639.9186728388631,None,639.9186728388631,None,v,7.382205996556877,639.9186728388631,None,t,5.485188878883491,639.9186728388631,None,7.382205996556877,5.485188878883491,6,False,False,False,647.3501875428447,None,647.3501875428447,None,647.3501875428447,None,647.3501875428447,None,647.3501875428447,None,647.3501875428447,None,648.3498670856461,None,648.3498670856461,None,h,,,,,,,,,,,,,,,,,,,,,,,,,,,3_4,001,2021_Apr_07_1428,ComputerHuman,2020.1.3,59.97416284053056,
Human.xlsx,h,Sychronize.jpg,Number10.jpg,10,Human,,,,,0,2,2,0,0,3,3,9,,,,,,,,,,,,,,,,,,,,,,,,,,,,,,,,,,,,,,,,,,,,,,,,,,,,,,,,,649.416181837485,None,649.416181837485,None,649.8494739722337,None,649.8494739722337,None,v,7.302663964859676,649.8494739722337,None,t,10.493862073810305,649.8494739722337,None,7.302663964859676,10.493862073810305,10,False,False,False,660.3969598588046,None,660.3969598588046,None,660.3969598588046,None,660.3969598588046,None,660.3969598588046,None,660.3969598588046,None,661.4134006924323,None,661.4134006924323,None,h,,,,,,,,,,,,,,,,,,,,,,,,,,,3_4,001,2021_Apr_07_1428,ComputerHuman,2020.1.3,59.97416284053056,
Human.xlsx,h,Sychronize.jpg,Number6.jpg,6,Human,,,,,0,2,2,0,0,4,4,0,,,,,,,,,,,,,,,,,,,,,,,,,,,,,,,,,,,,,,,,,,,,,,,,,,,,,,,,,662.4461832392844,None,662.4461832392844,None,662.896258798537,None,662.896258798537,None,v,9.326792563468189,662.896258798537,None,t,6.498141252013738,662.896258798537,None,9.326792563468189,6.498141252013738,6,False,False,False,672.2773783200901,None,672.2773783200901,None,672.2773783200901,None,672.2773783200901,None,672.2773783200901,None,672.2773783200901,None,673.2938191537178,None,673.2938191537178,None,h,,,,,,,,,,,,,,,,,,,,,,,,,,,3_4,001,2021_Apr_07_1428,ComputerHuman,2020.1.3,59.97416284053056,
Human.xlsx,h,Sychronize.jpg,Number8.jpg,8,Human,,,,,0,2,2,0,0,5,5,5,,,,,,,,,,,,,,,,,,,,,,,,,,,,,,,,,,,,,,,,,,,,,,,,,,,,,,,,,674.3428609738621,None,674.3428609738621,None,674.7934456077637,None,674.7934456077637,None,v,7.920805050074705,674.7934456077637,None,t,6.964131889788405,674.7934456077637,None,7.920805050074705,6.964131889788405,8,False,False,False,682.7747003051554,None,682.7747003051554,None,682.7747003051554,None,682.7747003051554,None,682.7747003051554,None,682.7747003051554,None,683.7745598044021,None,683.7745598044021,None,h,,,,,,,,,,,,,,,,,,,,,,,,,,,3_4,001,2021_Apr_07_1428,ComputerHuman,2020.1.3,59.97416284053056,
Human.xlsx,h,Sychronize.jpg,Number8.jpg,8,Human,,,,,0,2,2,0,0,6,6,4,,,,,,,,,,,,,,,,,,,,,,,,,,,,,,,,,,,,,,,,,,,,,,,,,,,,,,,,,684.8240988304096,None,684.8240988304096,None,685.2908901300143,None,685.2908901300143,None,v,7.034584998302307,685.2908901300143,None,t,7.314232501801598,685.2908901300143,None,7.034584998302307,7.314232501801598,8,True,False,False,692.6557760405158,None,692.6557760405158,None,692.6557760405158,None,692.6557760405158,None,692.6557760405158,None,692.6557760405158,None,693.6722361208194,None,693.6722361208194,None,h,,,,,,,,,,,,,,,,,,,,,,,,,,,3_4,001,2021_Apr_07_1428,ComputerHuman,2020.1.3,59.97416284053056,
Human.xlsx,h,Sychronize.jpg,Number7.jpg,7,Human,,,,,0,2,2,0,0,7,7,2,,,,,,,,,,,,,,,,,,,,,,,,,,,,,,,,,,,,,,,,,,,,,,,,,,,,,,,,,694.721633683741,None,694.721633683741,None,695.1545594900381,None,695.1545594900381,None,v,7.346241652954632,695.1545594900381,None,t,6.629259570650902,695.1545594900381,None,7.346241652954632,6.629259570650902,7,False,False,False,702.5700086706274,None,702.5700086706274,None,702.5700086706274,None,702.5700086706274,None,702.5700086706274,None,702.5700086706274,None,703.5697581430286,None,703.5697581430286,None,h,,,,,,,,,,,,,,,,,,,,,,,,,,,3_4,001,2021_Apr_07_1428,ComputerHuman,2020.1.3,59.97416284053056,
Human.xlsx,h,Sychronize.jpg,Number10.jpg,10,Human,,,,,0,2,2,0,0,8,8,8,,,,,,,,,,,,,,,,,,,,,,,,,,,,,,,,,,,,,,,,,,,,,,,,,,,,,,,,,704.6192593172345,None,704.6192593172345,None,705.0694378462176,None,705.0694378462176,None,v,7.042606372382579,705.0694378462176,None,t,10.697862431799877,705.0694378462176,None,7.042606372382579,10.697862431799877,10,False,False,False,715.8167918288855,None,715.8167918288855,None,715.8167918288855,None,715.8167918288855,None,715.8167918288855,None,715.8167918288855,None,716.8165573401857,None,716.8165573401857,None,h,,,,,,,,,,,,,,,,,,,,,,,,,,,3_4,001,2021_Apr_07_1428,ComputerHuman,2020.1.3,59.97416284053056,
Human.xlsx,h,Sychronize.jpg,Number9.jpg,9,Human,,,,,0,2,2,0,0,9,9,7,,,,,,,,,,,,,,,,,,,,,,,,,,,,,,,,,,,,,,,,,,,,,,,,,,,,,,,,,717.8827492340606,None,717.8827492340606,None,718.3161558865468,None,718.3161558865468,None,v,8.718775551969884,718.3161558865468,None,t,8.881971668248298,718.3161558865468,None,8.718775551969884,8.881971668248298,9,True,False,False,727.2473608793916,None,727.2473608793916,None,727.2473608793916,None,727.2473608793916,None,727.2473608793916,None,727.2473608793916,None,728.263765465108,None,728.263765465108,None,h,,,,,,,,,,,,,,,,,,,,,,,,,,,3_4,001,2021_Apr_07_1428,ComputerHuman,2020.1.3,59.97416284053056,
Human.xlsx,h,,,,,,,,,0,2,2,0,,,,,,,,,,,,,,,,,,,,,,,,,,,,,,,,,,,,,,,,,,,,,,,,,,,,,,,,,,,,,,,,,,,,,,,,,,,,,,,,,,,,,,,,,,,,,,,,,,,h,729.246864315086,None,729.246864315086,None,a,0,2.3477310251000745,729.246864315086,None,o,1,2.047512350756733,729.246864315086,None,c,h,731.6463211096598,None,None,None,None,None,None,,,,3_4,001,2021_Apr_07_1428,ComputerHuman,2020.1.3,59.97416284053056,
Human.xlsx,h,Sychronize.jpg,Number9.jpg,9,Human,,,,,0,3,3,4,0,0,0,7,,,,,,,,,,,,,,,,,,,,,,,,,,,,,,,,,,,,,,,,,,,,,,,,,,,,,736.6616514099296,None,736.6616514099296,None,739.7278378505835,None,739.7278378505835,None,740.1775640826163,None,740.1775640826163,None,v,7.635814347820997,740.1775640826163,None,t,8.950940216287563,740.1775640826163,None,7.635814347820997,8.950940216287563,9,False,False,False,749.1919676553152,None,749.1919676553152,None,749.1919676553152,None,749.1919676553152,None,749.1919676553152,None,749.1919676553152,None,750.1917482431782,None,750.1917482431782,None,h,,,,,,,,,,,,,,,,,,,,,,,,,,,3_4,001,2021_Apr_07_1428,ComputerHuman,2020.1.3,59.97416284053056,
Human.xlsx,h,Sychronize.jpg,Number6.jpg,6,Human,,,,,0,3,3,4,0,1,1,1,,,,,,,,,,,,,,,,,,,,,,,,,,,,,,,,,,,,,,,,,,,,,,,,,,,,,,,,,751.2581364531761,None,751.2581364531761,None,751.691385924456,None,751.691385924456,None,v,7.157137903413968,751.691385924456,None,t,6.344224280259368,751.691385924456,None,7.157137903413968,6.344224280259368,6,False,False,False,758.9062292195995,None,758.9062292195995,None,758.9062292195995,None,758.9062292195995,None,758.9062292195995,None,758.9062292195995,None,759.9227383789366,None,759.9227383789366,None,h,,,,,,,,,,,,,,,,,,,,,,,,,,,3_4,001,2021_Apr_07_1428,ComputerHuman,2020.1.3,59.97416284053056,
Human.xlsx,h,Sychronize.jpg,Number8.jpg,8,Human,,,,,0,3,3,4,0,2,2,4,,,,,,,,,,,,,,,,,,,,,,,,,,,,,,,,,,,,,,,,,,,,,,,,,,,,,,,,,760.9724804574034,None,760.9724804574034,None,761.4057427597982,None,761.4057427597982,None,v,7.042090882176126,761.4057427597982,None,t,8.033028904341336,761.4057427597982,None,7.042090882176126,8.033028904341336,8,False,False,False,769.5204362837103,None,769.5204362837103,None,769.5204362837103,None,769.5204362837103,None,769.5204362837103,None,769.5204362837103,None,770.5200978629437,None,770.5200978629437,None,h,,,,,,,,,,,,,,,,,,,,,,,,,,,3_4,001,2021_Apr_07_1428,ComputerHuman,2020.1.3,59.97416284053056,
Human.xlsx,h,Sychronize.jpg,Number7.jpg,7,Human,,,,,0,3,3,4,0,3,3,3,,,,,,,,,,,,,,,,,,,,,,,,,,,,,,,,,,,,,,,,,,,,,,,,,,,,,,,,,771.569910191789,None,771.569910191789,None,772.0197839816938,None,772.0197839816938,None,v,7.287191559946223,772.0197839816938,None,t,6.602124320073926,772.0197839816938,None,7.287191559946223,6.602124320073926,7,False,False,False,779.3678540691144,None,779.3678540691144,None,779.3678540691144,None,779.3678540691144,None,779.3678540691144,None,779.3678540691144,None,780.3677199839221,None,780.3677199839221,None,h,,,,,,,,,,,,,,,,,,,,,,,,,,,3_4,001,2021_Apr_07_1428,ComputerHuman,2020.1.3,59.97416284053056,
Human.xlsx,h,Sychronize.jpg,Number9.jpg,9,Human,,,,,0,3,3,4,0,4,4,6,,,,,,,,,,,,,,,,,,,,,,,,,,,,,,,,,,,,,,,,,,,,,,,,,,,,,,,,,781.4172134594592,None,781.4172134594592,None,781.8673932715537,None,781.8673932715537,None,v,7.374874295132031,781.8673932715537,None,t,8.39801393523885,781.8673932715537,None,7.374874295132031,8.39801393523885,9,False,False,False,790.3153661311699,None,790.3153661311699,None,790.3153661311699,None,790.3153661311699,None,790.3153661311699,None,790.3153661311699,None,791.3317171469607,None,791.3317171469607,None,h,,,,,,,,,,,,,,,,,,,,,,,,,,,3_4,001,2021_Apr_07_1428,ComputerHuman,2020.1.3,59.97416284053056,
Human.xlsx,h,Sychronize.jpg,Number10.jpg,10,Human,,,,,0,3,3,4,0,5,5,8,,,,,,,,,,,,,,,,,,,,,,,,,,,,,,,,,,,,,,,,,,,,,,,,,,,,,,,,,792.3814303554136,None,792.3814303554136,None,792.8313477711235,None,792.8313477711235,None,v,9.829888872885931,792.8313477711235,None,t,6.901114093991055,792.8313477711235,None,9.829888872885931,6.901114093991055,10,False,False,False,802.7289698760615,None,802.7289698760615,None,802.7289698760615,None,802.7289698760615,None,802.7289698760615,None,802.7289698760615,None,803.7287171030148,None,803.7287171030148,None,h,,,,,,,,,,,,,,,,,,,,,,,,,,,3_4,001,2021_Apr_07_1428,ComputerHuman,2020.1.3,59.97416284053056,
Human.xlsx,h,Sychronize.jpg,Number10.jpg,10,Human,,,,,0,3,3,4,0,6,6,9,,,,,,,,,,,,,,,,,,,,,,,,,,,,,,,,,,,,,,,,,,,,,,,,,,,,,,,,,804.7784534074781,None,804.7784534074781,None,805.228368256965,None,805.228368256965,None,v,8.468050032384781,805.228368256965,None,t,10.27891901671319,805.228368256965,None,8.468050032384781,10.27891901671319,10,False,False,False,815.5591660542486,None,815.5591660542486,None,815.5591660542486,None,815.5591660542486,None,815.5591660542486,None,815.5591660542486,None,816.5589286785435,None,816.5589286785435,None,h,,,,,,,,,,,,,,,,,,,,,,,,,,,3_4,001,2021_Apr_07_1428,ComputerHuman,2020.1.3,59.97416284053056,
Human.xlsx,h,Sychronize.jpg,Number8.jpg,8,Human,,,,,0,3,3,4,0,7,7,5,,,,,,,,,,,,,,,,,,,,,,,,,,,,,,,,,,,,,,,,,,,,,,,,,,,,,,,,,817.6251096659689,None,817.6251096659689,None,818.0586452712014,None,818.0586452712014,None,v,8.448829336812196,818.0586452712014,None,t,7.22012554608591,818.0586452712014,None,8.448829336812196,7.22012554608591,8,False,False,False,826.5565039178218,None,826.5565039178218,None,826.5565039178218,None,826.5565039178218,None,826.5565039178218,None,826.5565039178218,None,827.572875142625,None,827.572875142625,None,h,,,,,,,,,,,,,,,,,,,,,,,,,,,3_4,001,2021_Apr_07_1428,ComputerHuman,2020.1.3,59.97416284053056,
Human.xlsx,h,Sychronize.jpg,Number6.jpg,6,Human,,,,,0,3,3,4,0,8,8,0,,,,,,,,,,,,,,,,,,,,,,,,,,,,,,,,,,,,,,,,,,,,,,,,,,,,,,,,,828.6057260151902,None,828.6057260151902,None,829.055898449391,None,829.055898449391,None,v,8.47477642576996,829.055898449391,None,t,5.418203059518419,829.055898449391,None,8.47477642576996,5.418203059518419,6,False,False,False,837.603825726459,None,837.603825726459,None,837.603825726459,None,837.603825726459,None,837.603825726459,None,837.603825726459,None,838.6035751988566,None,838.6035751988566,None,h,,,,,,,,,,,,,,,,,,,,,,,,,,,3_4,001,2021_Apr_07_1428,ComputerHuman,2020.1.3,59.97416284053056,
Human.xlsx,h,Sychronize.jpg,Number7.jpg,7,Human,,,,,0,3,3,4,0,9,9,2,,,,,,,,,,,,,,,,,,,,,,,,,,,,,,,,,,,,,,,,,,,,,,,,,,,,,,,,,839.6532467061697,None,839.6532467061697,None,840.1031872178937,None,840.1031872178937,None,v,7.422800770251342,840.1031872178937,None,t,7.15009490216471,840.1031872178937,None,7.422800770251342,7.15009490216471,7,True,False,False,847.5846614878137,None,847.5846614878137,None,847.5846614878137,None,847.5846614878137,None,847.5846614878137,None,847.5846614878137,None,848.584487946926,None,848.584487946926,None,h,,,,,,,,,,,,,,,,,,,,,,,,,,,3_4,001,2021_Apr_07_1428,ComputerHuman,2020.1.3,59.97416284053056,
Human.xlsx,h,,,,,,,,,0,3,3,4,,,,,,,,,,,,,,,,,,,,,,,,,,,,,,,,,,,,,,,,,,,,,,,,,,,,,,,,,,,,,,,,,,,,,,,,,,,,,,,,,,,,,,,,,,,,,,,,,,,h,849.584172622177,None,849.584172622177,None,q,1,3.9892796000276576,849.584172622177,None,l,0,3.572514267401857,849.584172622177,None,h,c,None,None,853.6332333682221,None,"['space', 'space']",854.6162937248446,None,"[1.512977874979697, 3.8328031408018433]",,,3_4,001,2021_Apr_07_1428,ComputerHuman,2020.1.3,59.97416284053056,
Human.xlsx,h,Sychronize.jpg,Number9.jpg,9,Human,,,,,0,4,4,6,0,0,0,7,,,,,,,,,,,,,,,,,,,,,,,,,,,,,,,,,,,,,,,,,,,,,,,,,,,,,858.4987010095829,None,858.4987010095829,None,861.5643989053751,None,861.5643989053751,None,861.9978655433442,None,861.9978655433442,None,v,7.730387393941783,861.9978655433442,None,t,9.022125660925667,861.9978655433442,None,7.730387393941783,9.022125660925667,9,False,False,False,871.0955806097409,None,871.0955806097409,None,871.0955806097409,None,871.0955806097409,None,871.0955806097409,None,871.0955806097409,None,872.0953958416248,None,872.0953958416248,None,h,,,,,,,,,,,,,,,,,,,,,,,,,,,3_4,001,2021_Apr_07_1428,ComputerHuman,2020.1.3,59.97416284053056,
Human.xlsx,h,Sychronize.jpg,Number10.jpg,10,Human,,,,,0,4,4,6,0,1,1,9,,,,,,,,,,,,,,,,,,,,,,,,,,,,,,,,,,,,,,,,,,,,,,,,,,,,,,,,,873.1449464156431,None,873.1449464156431,None,873.5950450709097,None,873.5950450709097,None,v,7.872434297452855,873.5950450709097,None,t,9.6039646233221,873.5950450709097,None,7.872434297452855,9.6039646233221,10,False,False,False,883.2593377666999,None,883.2593377666999,None,883.2593377666999,None,883.2593377666999,None,883.2593377666999,None,883.2593377666999,None,884.2590843520957,None,884.2590843520957,None,h,,,,,,,,,,,,,,,,,,,,,,,,,,,3_4,001,2021_Apr_07_1428,ComputerHuman,2020.1.3,59.97416284053056,
Human.xlsx,h,Sychronize.jpg,Number6.jpg,6,Human,,,,,0,4,4,6,0,2,2,0,,,,,,,,,,,,,,,,,,,,,,,,,,,,,,,,,,,,,,,,,,,,,,,,,,,,,,,,,885.3253407223456,None,885.3253407223456,None,885.7753960725859,None,885.7753960725859,None,v,9.734895928395417,885.7753960725859,None,t,5.206279164733132,885.7753960725859,None,9.734895928395417,5.206279164733132,6,False,False,False,895.5729081827558,None,895.5729081827558,None,895.5729081827558,None,895.5729081827558,None,895.5729081827558,None,895.5729081827558,None,896.5727615872202,None,896.5727615872202,None,h,,,,,,,,,,,,,,,,,,,,,,,,,,,3_4,001,2021_Apr_07_1428,ComputerHuman,2020.1.3,59.97416284053056,
Human.xlsx,h,Sychronize.jpg,Number6.jpg,6,Human,,,,,0,4,4,6,0,3,3,1,,,,,,,,,,,,,,,,,,,,,,,,,,,,,,,,,,,,,,,,,,,,,,,,,,,,,,,,,897.6222306836316,None,897.6222306836316,None,898.0724541215313,None,898.0724541215313,None,v,9.132991662016138,898.0724541215313,None,t,5.704256819979491,898.0724541215313,None,9.132991662016138,5.704256819979491,6,False,False,False,907.2701361157197,None,907.2701361157197,None,907.2701361157197,None,907.2701361157197,None,907.2701361157197,None,907.2701361157197,None,908.2866029323595,None,908.2866029323595,None,h,,,,,,,,,,,,,,,,,,,,,,,,,,,3_4,001,2021_Apr_07_1428,ComputerHuman,2020.1.3,59.97416284053056,
Human.xlsx,h,Sychronize.jpg,Number10.jpg,10,Human,,,,,0,4,4,6,0,4,4,8,,,,,,,,,,,,,,,,,,,,,,,,,,,,,,,,,,,,,,,,,,,,,,,,,,,,,,,,,909.3193553260862,None,909.3193553260862,None,909.7862136682852,None,909.7862136682852,None,v,7.510455597752298,909.7862136682852,None,t,8.917932483294862,909.7862136682852,None,7.510455597752298,8.917932483294862,10,False,False,False,918.7841523490097,None,918.7841523490097,None,918.7841523490097,None,918.7841523490097,None,918.7841523490097,None,918.7841523490097,None,919.7835014904958,None,919.7835014904958,None,h,,,,,,,,,,,,,,,,,,,,,,,,,,,3_4,001,2021_Apr_07_1428,ComputerHuman,2020.1.3,59.97416284053056,
Human.xlsx,h,Sychronize.jpg,Number8.jpg,8,Human,,,,,0,4,4,6,0,5,5,5,,,,,,,,,,,,,,,,,,,,,,,,,,,,,,,,,,,,,,,,,,,,,,,,,,,,,,,,,920.8334966627845,None,920.8334966627845,None,921.2834362121757,None,921.2834362121757,None,v,8.21631053361125,921.2834362121757,None,t,6.8722630020129145,921.2834362121757,None,8.21631053361125,6.8722630020129145,8,False,False,False,929.5646892094446,None,929.5646892094446,None,929.5646892094446,None,929.5646892094446,None,929.5646892094446,None,929.5646892094446,None,930.5645034789959,None,930.5645034789959,None,h,,,,,,,,,,,,,,,,,,,,,,,,,,,3_4,001,2021_Apr_07_1428,ComputerHuman,2020.1.3,59.97416284053056,
Human.xlsx,h,Sychronize.jpg,Number7.jpg,7,Human,,,,,0,4,4,6,0,6,6,2,,,,,,,,,,,,,,,,,,,,,,,,,,,,,,,,,,,,,,,,,,,,,,,,,,,,,,,,,931.6139664806251,None,931.6139664806251,None,932.0641058746951,None,932.0641058746951,None,v,8.138980266059662,932.0641058746951,None,t,6.118207325860567,932.0641058746951,None,8.138980266059662,6.118207325860567,7,False,False,False,940.2622379203822,None,940.2622379203822,None,940.2622379203822,None,940.2622379203822,None,940.2622379203822,None,940.2622379203822,None,941.2785639154936,None,941.2785639154936,None,h,,,,,,,,,,,,,,,,,,,,,,,,,,,3_4,001,2021_Apr_07_1428,ComputerHuman,2020.1.3,59.97416284053056,
Human.xlsx,h,Sychronize.jpg,Number8.jpg,8,Human,,,,,0,4,4,6,0,7,7,4,,,,,,,,,,,,,,,,,,,,,,,,,,,,,,,,,,,,,,,,,,,,,,,,,,,,,,,,,942.3279903484326,None,942.3279903484326,None,942.7781631034122,None,942.7781631034122,None,v,7.628023933888471,942.7781631034122,None,t,7.531088678748347,942.7781631034122,None,7.628023933888471,7.531088678748347,8,True,False,False,950.459618062494,None,950.459618062494,None,950.459618062494,None,950.459618062494,None,950.459618062494,None,950.459618062494,None,951.4594268788205,None,951.4594268788205,None,h,,,,,,,,,,,,,,,,,,,,,,,,,,,3_4,001,2021_Apr_07_1428,ComputerHuman,2020.1.3,59.97416284053056,
Human.xlsx,h,Sychronize.jpg,Number9.jpg,9,Human,,,,,0,4,4,6,0,8,8,6,,,,,,,,,,,,,,,,,,,,,,,,,,,,,,,,,,,,,,,,,,,,,,,,,,,,,,,,,952.5255170860764,None,952.5255170860764,None,952.9757504680965,None,952.9757504680965,None,v,8.529623364953295,952.9757504680965,None,t,8.605120065592928,952.9757504680965,None,8.529623364953295,8.605120065592928,9,True,False,False,961.64024012156,None,961.64024012156,None,961.64024012156,None,961.64024012156,None,961.64024012156,None,961.64024012156,None,962.6566508020551,None,962.6566508020551,None,h,,,,,,,,,,,,,,,,,,,,,,,,,,,3_4,001,2021_Apr_07_1428,ComputerHuman,2020.1.3,59.97416284053056,
Human.xlsx,h,Sychronize.jpg,Number7.jpg,7,Human,,,,,0,4,4,6,0,9,9,3,,,,,,,,,,,,,,,,,,,,,,,,,,,,,,,,,,,,,,,,,,,,,,,,,,,,,,,,,963.6895513952077,None,963.6895513952077,None,964.139549326188,None,964.139549326188,None,v,8.436920775217004,964.139549326188,None,t,5.536201558919856,964.139549326188,None,8.436920775217004,5.536201558919856,7,False,False,False,972.6375179996539,None,972.6375179996539,None,972.6375179996539,None,972.6375179996539,None,972.6375179996539,None,972.6375179996539,None,973.6539944396354,None,973.6539944396354,None,h,,,,,,,,,,,,,,,,,,,,,,,,,,,3_4,001,2021_Apr_07_1428,ComputerHuman,2020.1.3,59.97416284053056,
Human.xlsx,h,,,,,,,,,0,4,4,6,,,,,,,,,,,,,,,,,,,,,,,,,,,,,,,,,,,,,,,,,,,,,,,,,,,,,,,,,,,,,,,,,,,,,,,,,,,,,,,,,,,,,,,,,,,,,,,,,,,h,974.6537330055835,None,974.6537330055835,None,q,1,3.694368518077681,974.6537330055835,None,l,0,1.6577193134980917,974.6537330055835,None,h,c,978.4028685891317,None,None,None,None,None,None,,,,3_4,001,2021_Apr_07_1428,ComputerHuman,2020.1.3,59.97416284053056,
Computer.xlsx,c,Sychronize.jpg,Number7.jpg,7,Computer,,,,,0,5,5,1,0,0,0,2,,,,,,,,,,,,,,,,,,,,,,,,,,,,,,,,,,,,,,,,,,,,,,,,,,,,,983.4015918927835,None,983.4015918927835,None,986.5008643362562,None,986.5008643362562,None,986.9340490103823,None,986.9340490103823,None,v,6.912911345625616,986.9340490103823,None,t,6.588296543839533,986.9340490103823,None,6.912911345625616,6.588296543839533,7,False,True,False,993.8991069861913,None,993.8991069861913,None,993.8991069861913,None,993.8991069861913,None,993.8991069861913,None,993.8991069861913,None,994.915400903501,None,994.915400903501,None,c,,,,,,,,,,,,,,,,,,,,,,,,,,,3_4,001,2021_Apr_07_1428,ComputerHuman,2020.1.3,59.97416284053056,
Computer.xlsx,c,Sychronize.jpg,Number8.jpg,8,Computer,,,,,0,5,5,1,0,1,1,5,,,,,,,,,,,,,,,,,,,,,,,,,,,,,,,,,,,,,,,,,,,,,,,,,,,,,,,,,995.9650024812181,None,995.9650024812181,None,996.3984582127341,None,996.3984582127341,None,v,7.127747904436546,996.3984582127341,None,t,7.715070245565585,996.3984582127341,None,7.127747904436546,7.715070245565585,8,False,False,True,1004.1799012709525,None,1004.1799012709525,None,1004.1799012709525,None,1004.1799012709525,None,1004.1799012709525,None,1004.1799012709525,None,1005.1795971734318,None,1005.1795971734318,None,c,,,,,,,,,,,,,,,,,,,,,,,,,,,3_4,001,2021_Apr_07_1428,ComputerHuman,2020.1.3,59.97416284053056,
Computer.xlsx,c,Sychronize.jpg,Number6.jpg,6,Computer,,,,,0,5,5,1,0,2,2,0,,,,,,,,,,,,,,,,,,,,,,,,,,,,,,,,,,,,,,,,,,,,,,,,,,,,,,,,,1006.2293815945923,None,1006.2293815945923,None,1006.6793262764295,None,1006.6793262764295,None,v,7.306118102111213,1006.6793262764295,None,t,5.7811973422903975,1006.6793262764295,None,7.306118102111213,5.7811973422903975,6,False,False,True,1014.0441451443367,None,1014.0441451443367,None,1014.0441451443367,None,1014.0441451443367,None,1014.0441451443367,None,1014.0441451443367,None,1015.0438522740442,None,1015.0438522740442,None,c,,,,,,,,,,,,,,,,,,,,,,,,,,,3_4,001,2021_Apr_07_1428,ComputerHuman,2020.1.3,59.97416284053056,
Computer.xlsx,c,Sychronize.jpg,Number10.jpg,10,Computer,,,,,0,5,5,1,0,3,3,9,,,,,,,,,,,,,,,,,,,,,,,,,,,,,,,,,,,,,,,,,,,,,,,,,,,,,,,,,1016.0934496816444,None,1016.0934496816444,None,1016.5435245993394,None,1016.5435245993394,None,v,7.537120267039427,1016.5435245993394,None,t,9.655964657966251,1016.5435245993394,None,7.537120267039427,9.655964657966251,10,False,False,False,1026.2578615464517,None,1026.2578615464517,None,1026.2578615464517,None,1026.2578615464517,None,1026.2578615464517,None,1026.2578615464517,None,1027.2743225890881,None,1027.2743225890881,None,c,,,,,,,,,,,,,,,,,,,,,,,,,,,3_4,001,2021_Apr_07_1428,ComputerHuman,2020.1.3,59.97416284053056,
Computer.xlsx,c,Sychronize.jpg,Number9.jpg,9,Computer,,,,,0,5,5,1,0,4,4,6,,,,,,,,,,,,,,,,,,,,,,,,,,,,,,,,,,,,,,,,,,,,,,,,,,,,,,,,,1028.3071237410659,None,1028.3071237410659,None,1028.757307402495,None,1028.757307402495,None,v,7.5104886378831,1028.757307402495,None,t,8.542050303760334,1028.757307402495,None,7.5104886378831,8.542050303760334,9,False,False,False,1037.3718002797832,None,1037.3718002797832,None,1037.3718002797832,None,1037.3718002797832,None,1037.3718002797832,None,1037.3718002797832,None,1038.3715760559753,None,1038.3715760559753,None,c,,,,,,,,,,,,,,,,,,,,,,,,,,,3_4,001,2021_Apr_07_1428,ComputerHuman,2020.1.3,59.97416284053056,
Computer.xlsx,c,Sychronize.jpg,Number7.jpg,7,Computer,,,,,0,5,5,1,0,5,5,3,,,,,,,,,,,,,,,,,,,,,,,,,,,,,,,,,,,,,,,,,,,,,,,,,,,,,,,,,1039.4044737621261,None,1039.4044737621261,None,1039.8712105294726,None,1039.8712105294726,None,v,8.231621266426373,1039.8712105294726,None,t,6.215206095039321,1039.8712105294726,None,8.231621266426373,6.215206095039321,7,False,False,False,1048.1524680176335,None,1048.1524680176335,None,1048.1524680176335,None,1048.1524680176335,None,1048.1524680176335,None,1048.1524680176335,None,1049.1522133199214,None,1049.1522133199214,None,c,,,,,,,,,,,,,,,,,,,,,,,,,,,3_4,001,2021_Apr_07_1428,ComputerHuman,2020.1.3,59.97416284053056,
Computer.xlsx,c,Sychronize.jpg,Number6.jpg,6,Computer,,,,,0,5,5,1,0,6,6,1,,,,,,,,,,,,,,,,,,,,,,,,,,,,,,,,,,,,,,,,,,,,,,,,,,,,,,,,,1050.2018065574084,None,1050.2018065574084,None,1050.6518971932237,None,1050.6518971932237,None,v,8.202150110621005,1050.6518971932237,None,t,5.69725872764684,1050.6518971932237,None,8.202150110621005,5.69725872764684,6,False,False,False,1058.9165290796445,None,1058.9165290796445,None,1058.9165290796445,None,1058.9165290796445,None,1058.9165290796445,None,1058.9165290796445,None,1059.9330128975198,None,1059.9330128975198,None,c,,,,,,,,,,,,,,,,,,,,,,,,,,,3_4,001,2021_Apr_07_1428,ComputerHuman,2020.1.3,59.97416284053056,
Computer.xlsx,c,Sychronize.jpg,Number9.jpg,9,Computer,,,,,0,5,5,1,0,7,7,7,,,,,,,,,,,,,,,,,,,,,,,,,,,,,,,,,,,,,,,,,,,,,,,,,,,,,,,,,1060.9658233520604,None,1060.9658233520604,None,1061.4159816720276,None,1061.4159816720276,None,v,7.497378441988985,1061.4159816720276,None,t,8.293042229459388,1061.4159816720276,None,7.497378441988985,8.293042229459388,9,False,False,False,1069.7805718252348,None,1069.7805718252348,None,1069.7805718252348,None,1069.7805718252348,None,1069.7805718252348,None,1069.7805718252348,None,1070.7801018854989,None,1070.7801018854989,None,c,,,,,,,,,,,,,,,,,,,,,,,,,,,3_4,001,2021_Apr_07_1428,ComputerHuman,2020.1.3,59.97416284053056,
Computer.xlsx,c,Sychronize.jpg,Number10.jpg,10,Computer,,,,,0,5,5,1,0,8,8,8,,,,,,,,,,,,,,,,,,,,,,,,,,,,,,,,,,,,,,,,,,,,,,,,,,,,,,,,,1071.8298638522028,None,1071.8298638522028,None,1072.2800346825134,None,1072.2800346825134,None,v,8.308414551644091,1072.2800346825134,None,t,9.823903155844164,1072.2800346825134,None,8.308414551644091,9.823903155844164,10,False,False,True,1082.16083198259,None,1082.16083198259,None,1082.16083198259,None,1082.16083198259,None,1082.16083198259,None,1082.16083198259,None,1083.160656196258,None,1083.160656196258,None,c,,,,,,,,,,,,,,,,,,,,,,,,,,,3_4,001,2021_Apr_07_1428,ComputerHuman,2020.1.3,59.97416284053056,
Computer.xlsx,c,Sychronize.jpg,Number8.jpg,8,Computer,,,,,0,5,5,1,0,9,9,4,,,,,,,,,,,,,,,,,,,,,,,,,,,,,,,,,,,,,,,,,,,,,,,,,,,,,,,,,1084.2102003547152,None,1084.2102003547152,None,1084.660349051348,None,1084.660349051348,None,v,8.807155016918841,1084.660349051348,None,t,7.614062072465458,1084.660349051348,None,8.807155016918841,7.614062072465458,8,False,False,False,1093.5248165069788,None,1093.5248165069788,None,1093.5248165069788,None,1093.5248165069788,None,1093.5248165069788,None,1093.5248165069788,None,1094.5412047330137,None,1094.5412047330137,None,c,,,,,,,,,,,,,,,,,,,,,,,,,,,3_4,001,2021_Apr_07_1428,ComputerHuman,2020.1.3,59.97416284053056,
Computer.xlsx,c,,,,,,,,,0,5,5,1,,,,,,,,,,,,,,,,,,,,,,,,,,,,,,,,,,,,,,,,,,,,,,,,,,,,,,,,,,,,,,,,,,,,,,,,,,,,,,,,,,,,,,,,,,,,,,,,,,,c,1095.5243311698978,None,1095.5243311698978,None,a,1,2.3548391442782304,1095.5243311698978,None,o,0,2.126478585985751,1095.5243311698978,None,c,h,1097.940465532247,None,None,None,None,None,None,,,,3_4,001,2021_Apr_07_1428,ComputerHuman,2020.1.3,59.97416284053056,
Human.xlsx,h,Sychronize.jpg,Number7.jpg,7,Human,,,,,0,6,6,8,0,0,0,2,,,,,,,,,,,,,,,,,,,,,,,,,,,,,,,,,,,,,,,,,,,,,,,,,,,,,1102.9558099467467,None,1102.9558099467467,None,1106.021521315215,None,1106.021521315215,None,1106.4717014480884,None,1106.4717014480884,None,v,6.602270274051989,1106.4717014480884,None,t,6.257175081580499,1106.4717014480884,None,6.602270274051989,6.257175081580499,7,False,False,False,1113.136676438633,None,1113.136676438633,None,1113.136676438633,None,1113.136676438633,None,1113.136676438633,None,1113.136676438633,None,1114.1364284772571,None,1114.1364284772571,None,h,,,,,,,,,,,,,,,,,,,,,,,,,,,3_4,001,2021_Apr_07_1428,ComputerHuman,2020.1.3,59.97416284053056,
Human.xlsx,h,Sychronize.jpg,Number9.jpg,9,Human,,,,,0,6,6,8,0,1,1,6,,,,,,,,,,,,,,,,,,,,,,,,,,,,,,,,,,,,,,,,,,,,,,,,,,,,,,,,,1115.2026309568064,None,1115.2026309568064,None,1115.636118124563,None,1115.636118124563,None,v,6.2212566092275665,1115.636118124563,None,t,8.0,1115.636118124563,None,6.2212566092275665,8.0,9,False,False,False,1123.7007170350116,None,1123.7007170350116,None,1123.7007170350116,None,1123.7007170350116,None,1123.7007170350116,None,1123.7007170350116,None,1124.7172120801115,None,1124.7172120801115,None,h,,,,,,,,,,,,,,,,,,,,,,,,,,,3_4,001,2021_Apr_07_1428,ComputerHuman,2020.1.3,59.97416284053056,
Human.xlsx,h,Sychronize.jpg,Number6.jpg,6,Human,,,,,0,6,6,8,0,2,2,0,,,,,,,,,,,,,,,,,,,,,,,,,,,,,,,,,,,,,,,,,,,,,,,,,,,,,,,,,1125.749994947746,None,1125.749994947746,None,1126.216834684823,None,1126.216834684823,None,v,6.787637601722963,1126.216834684823,None,t,5.499246973700792,1126.216834684823,None,6.787637601722963,5.499246973700792,6,False,False,False,1133.0650961163083,None,1133.0650961163083,None,1133.0650961163083,None,1133.0650961163083,None,1133.0650961163083,None,1133.0650961163083,None,1134.064881515842,None,1134.064881515842,None,h,,,,,,,,,,,,,,,,,,,,,,,,,,,3_4,001,2021_Apr_07_1428,ComputerHuman,2020.1.3,59.97416284053056,
Human.xlsx,h,Sychronize.jpg,Number6.jpg,6,Human,,,,,0,6,6,8,0,3,3,1,,,,,,,,,,,,,,,,,,,,,,,,,,,,,,,,,,,,,,,,,,,,,,,,,,,,,,,,,1135.11439552117,None,1135.11439552117,None,1135.5812144076772,None,1135.5812144076772,None,v,6.7666019443640835,1135.5812144076772,None,t,5.842242353533948,1135.5812144076772,None,6.7666019443640835,5.842242353533948,6,False,False,False,1142.4129134306859,None,1142.4129134306859,None,1142.4129134306859,None,1142.4129134306859,None,1142.4129134306859,None,1142.4129134306859,None,1143.4292888256023,None,1143.4292888256023,None,h,,,,,,,,,,,,,,,,,,,,,,,,,,,3_4,001,2021_Apr_07_1428,ComputerHuman,2020.1.3,59.97416284053056,
Human.xlsx,h,Sychronize.jpg,Number9.jpg,9,Human,,,,,0,6,6,8,0,4,4,7,,,,,,,,,,,,,,,,,,,,,,,,,,,,,,,,,,,,,,,,,,,,,,,,,,,,,,,,,1144.478803793263,None,1144.478803793263,None,1144.9122280885385,None,1144.9122280885385,None,v,6.486876491821022,1144.9122280885385,None,t,9.049983303506451,1144.9122280885385,None,6.486876491821022,9.049983303506451,9,False,False,False,1154.0433630876287,None,1154.0433630876287,None,1154.0433630876287,None,1154.0433630876287,None,1154.0433630876287,None,1154.0433630876287,None,1155.0431523364969,None,1155.0431523364969,None,h,,,,,,,,,,,,,,,,,,,,,,,,,,,3_4,001,2021_Apr_07_1428,ComputerHuman,2020.1.3,59.97416284053056,
Human.xlsx,h,Sychronize.jpg,Number10.jpg,10,Human,,,,,0,6,6,8,0,5,5,9,,,,,,,,,,,,,,,,,,,,,,,,,,,,,,,,,,,,,,,,,,,,,,,,,,,,,,,,,1156.0926740404975,None,1156.0926740404975,None,1156.5427858476614,None,1156.5427858476614,None,v,8.979280308947637,1156.5427858476614,None,t,9.67491974937002,1156.5427858476614,None,8.979280308947637,9.67491974937002,10,False,False,False,1166.2736579371194,None,1166.2736579371194,None,1166.2736579371194,None,1166.2736579371194,None,1166.2736579371194,None,1166.2736579371194,None,1167.2734632248903,None,1167.2734632248903,None,h,,,,,,,,,,,,,,,,,,,,,,,,,,,3_4,001,2021_Apr_07_1428,ComputerHuman,2020.1.3,59.97416284053056,
Human.xlsx,h,Sychronize.jpg,Number8.jpg,8,Human,,,,,0,6,6,8,0,6,6,5,,,,,,,,,,,,,,,,,,,,,,,,,,,,,,,,,,,,,,,,,,,,,,,,,,,,,,,,,1168.3398857581305,None,1168.3398857581305,None,1168.7897906635008,None,1168.7897906635008,None,v,8.763388069815846,1168.7897906635008,None,t,7.491110761107848,1168.7897906635008,None,8.763388069815846,7.491110761107848,8,False,False,False,1177.6043434621097,None,1177.6043434621097,None,1177.6043434621097,None,1177.6043434621097,None,1177.6043434621097,None,1177.6043434621097,None,1178.6040608567127,None,1178.6040608567127,None,h,,,,,,,,,,,,,,,,,,,,,,,,,,,3_4,001,2021_Apr_07_1428,ComputerHuman,2020.1.3,59.97416284053056,
Human.xlsx,h,Sychronize.jpg,Number8.jpg,8,Human,,,,,0,6,6,8,0,7,7,4,,,,,,,,,,,,,,,,,,,,,,,,,,,,,,,,,,,,,,,,,,,,,,,,,,,,,,,,,1179.6535318777933,None,1179.6535318777933,None,1180.1036966133215,None,1180.1036966133215,None,v,8.452657501184149,1180.1036966133215,None,t,7.564133621992369,1180.1036966133215,None,8.452657501184149,7.564133621992369,8,False,False,False,1188.6183162299858,None,1188.6183162299858,None,1188.6183162299858,None,1188.6183162299858,None,1188.6183162299858,None,1188.6183162299858,None,1189.6347188910331,None,1189.6347188910331,None,h,,,,,,,,,,,,,,,,,,,,,,,,,,,3_4,001,2021_Apr_07_1428,ComputerHuman,2020.1.3,59.97416284053056,
Human.xlsx,h,Sychronize.jpg,Number7.jpg,7,Human,,,,,0,6,6,8,0,8,8,3,,,,,,,,,,,,,,,,,,,,,,,,,,,,,,,,,,,,,,,,,,,,,,,,,,,,,,,,,1190.684474442176,None,1190.684474442176,None,1191.1343540060843,None,1191.1343540060843,None,v,8.185128027304017,1191.1343540060843,None,t,6.064311493377318,1191.1343540060843,None,8.185128027304017,6.064311493377318,7,False,False,False,1199.3823012676185,None,1199.3823012676185,None,1199.3823012676185,None,1199.3823012676185,None,1199.3823012676185,None,1199.3823012676185,None,1200.3820183414427,None,1200.3820183414427,None,h,,,,,,,,,,,,,,,,,,,,,,,,,,,3_4,001,2021_Apr_07_1428,ComputerHuman,2020.1.3,59.97416284053056,
Human.xlsx,h,Sychronize.jpg,Number10.jpg,10,Human,,,,,0,6,6,8,0,9,9,8,,,,,,,,,,,,,,,,,,,,,,,,,,,,,,,,,,,,,,,,,,,,,,,,,,,,,,,,,1201.431574047907,None,1201.431574047907,None,1201.8817214614246,None,1201.8817214614246,None,v,7.949029662660905,1201.8817214614246,None,t,9.423997272104316,1201.8817214614246,None,7.949029662660905,9.423997272104316,10,False,False,False,1211.3626821658036,None,1211.3626821658036,None,1211.3626821658036,None,1211.3626821658036,None,1211.3626821658036,None,1211.3626821658036,None,1212.3625131158078,None,1212.3625131158078,None,h,,,,,,,,,,,,,,,,,,,,,,,,,,,3_4,001,2021_Apr_07_1428,ComputerHuman,2020.1.3,59.97416284053056,
Human.xlsx,h,,,,,,,,,0,6,6,8,,,,,,,,,,,,,,,,,,,,,,,,,,,,,,,,,,,,,,,,,,,,,,,,,,,,,,,,,,,,,,,,,,,,,,,,,,,,,,,,,,,,,,,,,,,,,,,,,,,h,1213.362242058418,None,1213.362242058418,None,a,0,2.2242058419469686,1213.362242058418,None,o,1,2.2435006372252246,1213.362242058418,None,c,h,1215.6616661657172,None,None,None,None,None,None,,,,3_4,001,2021_Apr_07_1428,ComputerHuman,2020.1.3,59.97416284053056,
Human.xlsx,h,Sychronize.jpg,Number8.jpg,8,Human,,,,,0,7,7,2,0,0,0,5,,,,,,,,,,,,,,,,,,,,,,,,,,,,,,,,,,,,,,,,,,,,,,,,,,,,,1220.677146590082,None,1220.677146590082,None,1223.7430555577812,None,1223.7430555577812,None,1224.1930226940785,None,1224.1930226940785,None,v,8.07608212044579,1224.1930226940785,None,t,7.055251760990359,1224.1930226940785,None,8.07608212044579,7.055251760990359,8,False,False,False,1232.3243514430687,None,1232.3243514430687,None,1232.3243514430687,None,1232.3243514430687,None,1232.3243514430687,None,1232.3243514430687,None,1233.3240800649,None,1233.3240800649,None,h,,,,,,,,,,,,,,,,,,,,,,,,,,,3_4,001,2021_Apr_07_1428,ComputerHuman,2020.1.3,59.97416284053056,
Human.xlsx,h,Sychronize.jpg,Number10.jpg,10,Human,,,,,0,7,7,2,0,1,1,8,,,,,,,,,,,,,,,,,,,,,,,,,,,,,,,,,,,,,,,,,,,,,,,,,,,,,,,,,1234.3905083721438,None,1234.3905083721438,None,1234.8238069224535,None,1234.8238069224535,None,v,8.356449770501058,1234.8238069224535,None,t,8.967939845148067,1234.8238069224535,None,8.356449770501058,8.967939845148067,10,False,False,False,1243.8548059437599,None,1243.8548059437599,None,1243.8548059437599,None,1243.8548059437599,None,1243.8548059437599,None,1243.8548059437599,None,1244.8546288743164,None,1244.8546288743164,None,h,,,,,,,,,,,,,,,,,,,,,,,,,,,3_4,001,2021_Apr_07_1428,ComputerHuman,2020.1.3,59.97416284053056,
Human.xlsx,h,Sychronize.jpg,Number6.jpg,6,Human,,,,,0,7,7,2,0,2,2,1,,,,,,,,,,,,,,,,,,,,,,,,,,,,,,,,,,,,,,,,,,,,,,,,,,,,,,,,,1245.9041772028868,None,1245.9041772028868,None,1246.354256290695,None,1246.354256290695,None,v,7.797190690638672,1246.354256290695,None,t,5.304241871726845,1246.354256290695,None,7.797190690638672,5.304241871726845,6,False,False,False,1254.2022841958133,None,1254.2022841958133,None,1254.2022841958133,None,1254.2022841958133,None,1254.2022841958133,None,1254.2022841958133,None,1255.2187423514479,None,1255.2187423514479,None,h,,,,,,,,,,,,,,,,,,,,,,,,,,,3_4,001,2021_Apr_07_1428,ComputerHuman,2020.1.3,59.97416284053056,
Human.xlsx,h,Sychronize.jpg,Number6.jpg,6,Human,,,,,0,7,7,2,0,3,3,0,,,,,,,,,,,,,,,,,,,,,,,,,,,,,,,,,,,,,,,,,,,,,,,,,,,,,,,,,1256.2684751273555,None,1256.2684751273555,None,1256.7184111481874,None,1256.7184111481874,None,v,9.044165032570163,1256.7184111481874,None,t,5.803202390696242,1256.7184111481874,None,9.044165032570163,5.803202390696242,6,False,False,False,1265.8161785013945,None,1265.8161785013945,None,1265.8161785013945,None,1265.8161785013945,None,1265.8161785013945,None,1265.8161785013945,None,1266.8159096894524,None,1266.8159096894524,None,h,,,,,,,,,,,,,,,,,,,,,,,,,,,3_4,001,2021_Apr_07_1428,ComputerHuman,2020.1.3,59.97416284053056,
Human.xlsx,h,Sychronize.jpg,Number8.jpg,8,Human,,,,,0,7,7,2,0,4,4,4,,,,,,,,,,,,,,,,,,,,,,,,,,,,,,,,,,,,,,,,,,,,,,,,,,,,,,,,,1267.8822831436628,None,1267.8822831436628,None,1268.3156397547828,None,1268.3156397547828,None,v,7.6541875479742885,1268.3156397547828,None,t,7.173122590756975,1268.3156397547828,None,7.6541875479742885,7.173122590756975,8,False,False,False,1276.030365484803,None,1276.030365484803,None,1276.030365484803,None,1276.030365484803,None,1276.030365484803,None,1276.030365484803,None,1277.0467909210856,None,1277.0467909210856,None,h,,,,,,,,,,,,,,,,,,,,,,,,,,,3_4,001,2021_Apr_07_1428,ComputerHuman,2020.1.3,59.97416284053056,
Human.xlsx,h,Sychronize.jpg,Number9.jpg,9,Human,,,,,0,7,7,2,0,5,5,7,,,,,,,,,,,,,,,,,,,,,,,,,,,,,,,,,,,,,,,,,,,,,,,,,,,,,,,,,1278.0796158106314,None,1278.0796158106314,None,1278.5297455813634,None,1278.5297455813634,None,v,7.035280765736388,1278.5297455813634,None,t,7.930091572488891,1278.5297455813634,None,7.035280765736388,7.930091572488891,9,False,False,False,1286.5278427264057,None,1286.5278427264057,None,1286.5278427264057,None,1286.5278427264057,None,1286.5278427264057,None,1286.5278427264057,None,1287.5275309302124,None,1287.5275309302124,None,h,,,,,,,,,,,,,,,,,,,,,,,,,,,3_4,001,2021_Apr_07_1428,ComputerHuman,2020.1.3,59.97416284053056,
Human.xlsx,h,Sychronize.jpg,Number7.jpg,7,Human,,,,,0,7,7,2,0,6,6,3,,,,,,,,,,,,,,,,,,,,,,,,,,,,,,,,,,,,,,,,,,,,,,,,,,,,,,,,,1288.577284235911,None,1288.577284235911,None,1289.0272404657553,None,1289.0272404657553,None,v,7.721154120667052,1289.0272404657553,None,t,6.088280665331695,1289.0272404657553,None,7.721154120667052,6.088280665331695,7,False,False,False,1296.8085648361266,None,1296.8085648361266,None,1296.8085648361266,None,1296.8085648361266,None,1296.8085648361266,None,1296.8085648361266,None,1297.8083893705734,None,1297.8083893705734,None,h,,,,,,,,,,,,,,,,,,,,,,,,,,,3_4,001,2021_Apr_07_1428,ComputerHuman,2020.1.3,59.97416284053056,
Human.xlsx,h,Sychronize.jpg,Number9.jpg,9,Human,,,,,0,7,7,2,0,7,7,6,,,,,,,,,,,,,,,,,,,,,,,,,,,,,,,,,,,,,,,,,,,,,,,,,,,,,,,,,1298.8579040174554,None,1298.8579040174554,None,1299.3080174285096,None,1299.3080174285096,None,v,6.203516304020013,1299.3080174285096,None,t,8.127038343554887,1299.3080174285096,None,6.203516304020013,8.127038343554887,9,False,False,False,1307.4893779184786,None,1307.4893779184786,None,1307.4893779184786,None,1307.4893779184786,None,1307.4893779184786,None,1307.4893779184786,None,1308.5057690315152,None,1308.5057690315152,None,h,,,,,,,,,,,,,,,,,,,,,,,,,,,3_4,001,2021_Apr_07_1428,ComputerHuman,2020.1.3,59.97416284053056,
Human.xlsx,h,Sychronize.jpg,Number7.jpg,7,Human,,,,,0,7,7,2,0,8,8,2,,,,,,,,,,,,,,,,,,,,,,,,,,,,,,,,,,,,,,,,,,,,,,,,,,,,,,,,,1309.5721886777574,None,1309.5721886777574,None,1310.0054272425841,None,1310.0054272425841,None,v,6.94136820147105,1310.0054272425841,None,t,6.44419120805469,1310.0054272425841,None,6.94136820147105,6.44419120805469,7,False,False,False,1317.003694079176,None,1317.003694079176,None,1317.003694079176,None,1317.003694079176,None,1317.003694079176,None,1317.003694079176,None,1318.0035394641927,None,1318.0035394641927,None,h,,,,,,,,,,,,,,,,,,,,,,,,,,,3_4,001,2021_Apr_07_1428,ComputerHuman,2020.1.3,59.97416284053056,
Human.xlsx,h,Sychronize.jpg,Number10.jpg,10,Human,,,,,0,7,7,2,0,9,9,9,,,,,,,,,,,,,,,,,,,,,,,,,,,,,,,,,,,,,,,,,,,,,,,,,,,,,,,,,1319.0695530055127,None,1319.0695530055127,None,1319.5197626499576,None,1319.5197626499576,None,v,8.050054836992786,1319.5197626499576,None,t,9.296896697625925,1319.5197626499576,None,8.050054836992786,9.296896697625925,10,False,False,False,1328.8674420298048,None,1328.8674420298048,None,1328.8674420298048,None,1328.8674420298048,None,1328.8674420298048,None,1328.8674420298048,None,1329.8672155605527,None,1329.8672155605527,None,h,,,,,,,,,,,,,,,,,,,,,,,,,,,3_4,001,2021_Apr_07_1428,ComputerHuman,2020.1.3,59.97416284053056,
Human.xlsx,h,,,,,,,,,0,7,7,2,,,,,,,,,,,,,,,,,,,,,,,,,,,,,,,,,,,,,,,,,,,,,,,,,,,,,,,,,,,,,,,,,,,,,,,,,,,,,,,,,,,,,,,,,,,,,,,,,,,h,1330.867006092536,None,1330.867006092536,None,q,1,2.2664802091239835,1330.867006092536,None,l,0,2.1056446979746397,1330.867006092536,None,h,c,None,None,1333.1830920494867,None,"['space', 'space']",1334.1661684450046,None,"[3.862996047053457, 7.638711614501517]",,,3_4,001,2021_Apr_07_1428,ComputerHuman,2020.1.3,59.97416284053056,
Computer.xlsx,c,Sychronize.jpg,Number8.jpg,8,Computer,,,,,0,8,8,7,0,0,0,4,,,,,,,,,,,,,,,,,,,,,,,,,,,,,,,,,,,,,,,,,,,,,,,,,,,,,1341.8643012926368,None,1341.8643012926368,None,1344.9299703184115,None,1344.9299703184115,None,1345.3635171508759,None,1345.3635171508759,None,v,7.220565011914005,1345.3635171508759,None,t,7.892070400499506,1345.3635171508759,None,7.220565011914005,7.892070400499506,8,False,False,True,1353.3282347812492,None,1353.3282347812492,None,1353.3282347812492,None,1353.3282347812492,None,1353.3282347812492,None,1353.3282347812492,None,1354.3279374200647,None,1354.3279374200647,None,c,,,,,,,,,,,,,,,,,,,,,,,,,,,3_4,001,2021_Apr_07_1428,ComputerHuman,2020.1.3,59.97416284053056,
Computer.xlsx,c,Sychronize.jpg,Number7.jpg,7,Computer,,,,,0,8,8,7,0,1,1,3,,,,,,,,,,,,,,,,,,,,,,,,,,,,,,,,,,,,,,,,,,,,,,,,,,,,,,,,,1355.377693933544,None,1355.377693933544,None,1355.8275282677569,None,1355.8275282677569,None,v,7.651718519889982,1355.8275282677569,None,t,6.415160159631341,1355.8275282677569,None,7.651718519889982,6.415160159631341,7,False,False,False,1363.5423078884742,None,1363.5423078884742,None,1363.5423078884742,None,1363.5423078884742,None,1363.5423078884742,None,1363.5423078884742,None,1364.54213434759,None,1364.54213434759,None,c,,,,,,,,,,,,,,,,,,,,,,,,,,,3_4,001,2021_Apr_07_1428,ComputerHuman,2020.1.3,59.97416284053056,
Computer.xlsx,c,Sychronize.jpg,Number10.jpg,10,Computer,,,,,0,8,8,7,0,2,2,9,,,,,,,,,,,,,,,,,,,,,,,,,,,,,,,,,,,,,,,,,,,,,,,,,,,,,,,,,1365.608534105595,None,1365.608534105595,None,1366.0417855015403,None,1366.0417855015403,None,v,8.984559352102224,1366.0417855015403,None,t,9.335934094240656,1366.0417855015403,None,8.984559352102224,9.335934094240656,10,False,False,False,1375.4394902068088,None,1375.4394902068088,None,1375.4394902068088,None,1375.4394902068088,None,1375.4394902068088,None,1375.4394902068088,None,1376.455916926203,None,1376.455916926203,None,c,,,,,,,,,,,,,,,,,,,,,,,,,,,3_4,001,2021_Apr_07_1428,ComputerHuman,2020.1.3,59.97416284053056,
Computer.xlsx,c,Sychronize.jpg,Number7.jpg,7,Computer,,,,,0,8,8,7,0,3,3,2,,,,,,,,,,,,,,,,,,,,,,,,,,,,,,,,,,,,,,,,,,,,,,,,,,,,,,,,,1377.5053269994642,None,1377.5053269994642,None,1377.9389216278432,None,1377.9389216278432,None,v,8.218666327069513,1377.9389216278432,None,t,6.874145006400795,1377.9389216278432,None,8.218666327069513,6.874145006400795,7,False,False,True,1386.2368290968698,None,1386.2368290968698,None,1386.2368290968698,None,1386.2368290968698,None,1386.2368290968698,None,1386.2368290968698,None,1387.2365750407153,None,1387.2365750407153,None,c,,,,,,,,,,,,,,,,,,,,,,,,,,,3_4,001,2021_Apr_07_1428,ComputerHuman,2020.1.3,59.97416284053056,
Computer.xlsx,c,Sychronize.jpg,Number6.jpg,6,Computer,,,,,0,8,8,7,0,4,4,1,,,,,,,,,,,,,,,,,,,,,,,,,,,,,,,,,,,,,,,,,,,,,,,,,,,,,,,,,1388.286303646506,None,1388.286303646506,None,1388.7362236284425,None,1388.7362236284425,None,v,6.860631592586287,1388.7362236284425,None,t,6.092237782449956,1388.7362236284425,None,6.860631592586287,6.092237782449956,6,False,False,True,1395.6511712726642,None,1395.6511712726642,None,1395.6511712726642,None,1395.6511712726642,None,1395.6511712726642,None,1395.6511712726642,None,1396.6509755980987,None,1396.6509755980987,None,c,,,,,,,,,,,,,,,,,,,,,,,,,,,3_4,001,2021_Apr_07_1428,ComputerHuman,2020.1.3,59.97416284053056,
Computer.xlsx,c,Sychronize.jpg,Number10.jpg,10,Computer,,,,,0,8,8,7,0,5,5,8,,,,,,,,,,,,,,,,,,,,,,,,,,,,,,,,,,,,,,,,,,,,,,,,,,,,,,,,,1397.700563382361,None,1397.700563382361,None,1398.1505901833589,None,1398.1505901833589,None,v,9.169345430083922,1398.1505901833589,None,t,9.80499425646849,1398.1505901833589,None,9.169345430083922,9.80499425646849,10,False,False,True,1408.0148266788456,None,1408.0148266788456,None,1408.0148266788456,None,1408.0148266788456,None,1408.0148266788456,None,1408.0148266788456,None,1409.0312784189227,None,1409.0312784189227,None,c,,,,,,,,,,,,,,,,,,,,,,,,,,,3_4,001,2021_Apr_07_1428,ComputerHuman,2020.1.3,59.97416284053056,
Computer.xlsx,c,Sychronize.jpg,Number6.jpg,6,Computer,,,,,0,8,8,7,0,6,6,0,,,,,,,,,,,,,,,,,,,,,,,,,,,,,,,,,,,,,,,,,,,,,,,,,,,,,,,,,1410.0807330803254,None,1410.0807330803254,None,1410.5309494611101,None,1410.5309494611101,None,v,9.632034300146188,1410.5309494611101,None,t,5.215234323499317,1410.5309494611101,None,9.632034300146188,5.215234323499317,6,False,False,False,1420.245204609837,None,1420.245204609837,None,1420.245204609837,None,1420.245204609837,None,1420.245204609837,None,1420.245204609837,None,1421.244966271799,None,1421.244966271799,None,c,,,,,,,,,,,,,,,,,,,,,,,,,,,3_4,001,2021_Apr_07_1428,ComputerHuman,2020.1.3,59.97416284053056,
Computer.xlsx,c,Sychronize.jpg,Number9.jpg,9,Computer,,,,,0,8,8,7,0,7,7,6,,,,,,,,,,,,,,,,,,,,,,,,,,,,,,,,,,,,,,,,,,,,,,,,,,,,,,,,,1422.2944498032193,None,1422.2944498032193,None,1422.7446260867546,None,1422.7446260867546,None,v,7.609640148057224,1422.7446260867546,None,t,9.028991592731472,1422.7446260867546,None,7.609640148057224,9.028991592731472,9,False,False,True,1431.8256199595744,None,1431.8256199595744,None,1431.8256199595744,None,1431.8256199595744,None,1431.8256199595744,None,1431.8256199595744,None,1432.8254784964884,None,1432.8254784964884,None,c,,,,,,,,,,,,,,,,,,,,,,,,,,,3_4,001,2021_Apr_07_1428,ComputerHuman,2020.1.3,59.97416284053056,
Computer.xlsx,c,Sychronize.jpg,Number8.jpg,8,Computer,,,,,0,8,8,7,0,8,8,5,,,,,,,,,,,,,,,,,,,,,,,,,,,,,,,,,,,,,,,,,,,,,,,,,,,,,,,,,1433.8915799309761,None,1433.8915799309761,None,1434.325186428141,None,1434.325186428141,None,v,8.408097911702498,1434.325186428141,None,t,7.847284020990628,1434.325186428141,None,8.408097911702498,7.847284020990628,8,False,False,True,1442.789741584471,None,1442.789741584471,None,1442.789741584471,None,1442.789741584471,None,1442.789741584471,None,1442.789741584471,None,1443.806163812973,None,1443.806163812973,None,c,,,,,,,,,,,,,,,,,,,,,,,,,,,3_4,001,2021_Apr_07_1428,ComputerHuman,2020.1.3,59.97416284053056,
Computer.xlsx,c,Sychronize.jpg,Number9.jpg,9,Computer,,,,,0,8,8,7,0,9,9,7,,,,,,,,,,,,,,,,,,,,,,,,,,,,,,,,,,,,,,,,,,,,,,,,,,,,,,,,,1444.8389572662782,None,1444.8389572662782,None,1445.289125209587,None,1445.289125209587,None,v,7.439448826451553,1445.289125209587,None,t,9.371030733418593,1445.289125209587,None,7.439448826451553,9.371030733418593,9,False,False,False,1454.736792047017,None,1454.736792047017,None,1454.736792047017,None,1454.736792047017,None,1454.736792047017,None,1454.736792047017,None,1455.736565256986,None,1455.736565256986,None,c,,,,,,,,,,,,,,,,,,,,,,,,,,,3_4,001,2021_Apr_07_1428,ComputerHuman,2020.1.3,59.97416284053056,
Computer.xlsx,c,,,,,,,,,0,8,8,7,,,,,,,,,,,,,,,,,,,,,,,,,,,,,,,,,,,,,,,,,,,,,,,,,,,,,,,,,,,,,,,,,,,,,,,,,,,,,,,,,,,,,,,,,,,,,,,,,,,c,1456.7363570720809,None,1456.7363570720809,None,a,1,2.103910893012653,1456.7363570720809,None,l,1,1.763548138027545,1456.7363570720809,None,c,c,1458.9024767588344,None,None,None,None,None,None,,,,3_4,001,2021_Apr_07_1428,ComputerHuman,2020.1.3,59.97416284053056,
Computer.xlsx,c,Sychronize.jpg,Number10.jpg,10,Computer,,,,,0,9,9,9,0,0,0,8,,,,,,,,,,,,,,,,,,,,,,,,,,,,,,,,,,,,,,,,,,,,,,,,,,,,,1463.9011830612544,None,1463.9011830612544,None,1466.9835691104927,None,1466.9835691104927,None,1467.417035427683,None,1467.417035427683,None,v,6.345942367104726,1467.417035427683,None,t,9.396990332712448,1467.417035427683,None,6.345942367104726,9.396990332712448,10,False,False,False,1476.8647859881603,None,1476.8647859881603,None,1476.8647859881603,None,1476.8647859881603,None,1476.8647859881603,None,1476.8647859881603,None,1477.881248634687,None,1477.881248634687,None,c,,,,,,,,,,,,,,,,,,,,,,,,,,,3_4,001,2021_Apr_07_1428,ComputerHuman,2020.1.3,59.97416284053056,
Computer.xlsx,c,Sychronize.jpg,Number8.jpg,8,Computer,,,,,0,9,9,9,0,1,1,4,,,,,,,,,,,,,,,,,,,,,,,,,,,,,,,,,,,,,,,,,,,,,,,,,,,,,,,,,1478.9139865934048,None,1478.9139865934048,None,1479.36411219402,None,1479.36411219402,None,v,9.737828159879427,1479.36411219402,None,t,7.621156398188759,1479.36411219402,None,9.737828159879427,7.621156398188759,8,False,False,False,1489.1618174125324,None,1489.1618174125324,None,1489.1618174125324,None,1489.1618174125324,None,1489.1618174125324,None,1489.1618174125324,None,1490.1781844672223,None,1490.1781844672223,None,c,,,,,,,,,,,,,,,,,,,,,,,,,,,3_4,001,2021_Apr_07_1428,ComputerHuman,2020.1.3,59.97416284053056,
Computer.xlsx,c,Sychronize.jpg,Number6.jpg,6,Computer,,,,,0,9,9,9,0,2,2,1,,,,,,,,,,,,,,,,,,,,,,,,,,,,,,,,,,,,,,,,,,,,,,,,,,,,,,,,,1491.2276619038603,None,1491.2276619038603,None,1491.6778818132043,None,1491.6778818132043,None,v,8.395135273676715,1491.6778818132043,None,t,5.734180272735102,1491.6778818132043,None,8.395135273676715,5.734180272735102,6,False,False,True,1500.1257379096387,None,1500.1257379096387,None,1500.1257379096387,None,1500.1257379096387,None,1500.1257379096387,None,1500.1257379096387,None,1501.1255464051865,None,1501.1255464051865,None,c,,,,,,,,,,,,,,,,,,,,,,,,,,,3_4,001,2021_Apr_07_1428,ComputerHuman,2020.1.3,59.97416284053056,
Computer.xlsx,c,Sychronize.jpg,Number10.jpg,10,Computer,,,,,0,9,9,9,0,3,3,9,,,,,,,,,,,,,,,,,,,,,,,,,,,,,,,,,,,,,,,,,,,,,,,,,,,,,,,,,1502.1919179347278,None,1502.1919179347278,None,1502.6418542763386,None,1502.6418542763386,None,v,7.126450357525755,1502.6418542763386,None,t,9.522035682701244,1502.6418542763386,None,7.126450357525755,9.522035682701244,10,False,False,False,1512.2227636241623,None,1512.2227636241623,None,1512.2227636241623,None,1512.2227636241623,None,1512.2227636241623,None,1512.2227636241623,None,1513.22258623394,None,1513.22258623394,None,c,,,,,,,,,,,,,,,,,,,,,,,,,,,3_4,001,2021_Apr_07_1428,ComputerHuman,2020.1.3,59.97416284053056,
Computer.xlsx,c,Sychronize.jpg,Number6.jpg,6,Computer,,,,,0,9,9,9,0,4,4,0,,,,,,,,,,,,,,,,,,,,,,,,,,,,,,,,,,,,,,,,,,,,,,,,,,,,,,,,,1514.2888002614964,None,1514.2888002614964,None,1514.7222277645524,None,1514.7222277645524,None,v,8.561066342979757,1514.7222277645524,None,t,5.676215050836618,1514.7222277645524,None,8.561066342979757,5.676215050836618,6,False,False,False,1523.3367158301699,None,1523.3367158301699,None,1523.3367158301699,None,1523.3367158301699,None,1523.3367158301699,None,1523.3367158301699,None,1524.3531678910222,None,1524.3531678910222,None,c,,,,,,,,,,,,,,,,,,,,,,,,,,,3_4,001,2021_Apr_07_1428,ComputerHuman,2020.1.3,59.97416284053056,
Computer.xlsx,c,Sychronize.jpg,Number9.jpg,9,Computer,,,,,0,9,9,9,0,5,5,6,,,,,,,,,,,,,,,,,,,,,,,,,,,,,,,,,,,,,,,,,,,,,,,,,,,,,,,,,1525.4029134980483,None,1525.4029134980483,None,1525.8528004398504,None,1525.8528004398504,None,v,7.109787866316765,1525.8528004398504,None,t,7.617104010016192,1525.8528004398504,None,7.109787866316765,7.617104010016192,9,False,False,False,1533.5342634183835,None,1533.5342634183835,None,1533.5342634183835,None,1533.5342634183835,None,1533.5342634183835,None,1533.5342634183835,None,1534.5340738386003,None,1534.5340738386003,None,c,,,,,,,,,,,,,,,,,,,,,,,,,,,3_4,001,2021_Apr_07_1428,ComputerHuman,2020.1.3,59.97416284053056,
Computer.xlsx,c,Sychronize.jpg,Number7.jpg,7,Computer,,,,,0,9,9,9,0,6,6,2,,,,,,,,,,,,,,,,,,,,,,,,,,,,,,,,,,,,,,,,,,,,,,,,,,,,,,,,,1535.600421309795,None,1535.600421309795,None,1536.0503400086163,None,1536.0503400086163,None,v,7.451398768404033,1536.0503400086163,None,t,6.503156936458254,1536.0503400086163,None,7.451398768404033,6.503156936458254,7,False,False,False,1543.5651726218566,None,1543.5651726218566,None,1543.5651726218566,None,1543.5651726218566,None,1543.5651726218566,None,1543.5651726218566,None,1544.581656118953,None,1544.581656118953,None,c,,,,,,,,,,,,,,,,,,,,,,,,,,,3_4,001,2021_Apr_07_1428,ComputerHuman,2020.1.3,59.97416284053056,
Computer.xlsx,c,Sychronize.jpg,Number8.jpg,8,Computer,,,,,0,9,9,9,0,7,7,5,,,,,,,,,,,,,,,,,,,,,,,,,,,,,,,,,,,,,,,,,,,,,,,,,,,,,,,,,1545.6144396281416,None,1545.6144396281416,None,1546.0645982688875,None,1546.0645982688875,None,v,8.056387635806459,1546.0645982688875,None,t,7.2042704530431365,1546.0645982688875,None,8.056387635806459,7.2042704530431365,8,False,True,False,1554.1792257125344,None,1554.1792257125344,None,1554.1792257125344,None,1554.1792257125344,None,1554.1792257125344,None,1554.1792257125344,None,1555.1956540358187,None,1555.1956540358187,None,c,,,,,,,,,,,,,,,,,,,,,,,,,,,3_4,001,2021_Apr_07_1428,ComputerHuman,2020.1.3,59.97416284053056,
Computer.xlsx,c,Sychronize.jpg,Number7.jpg,7,Computer,,,,,0,9,9,9,0,8,8,3,,,,,,,,,,,,,,,,,,,,,,,,,,,,,,,,,,,,,,,,,,,,,,,,,,,,,,,,,1556.245406058406,None,1556.245406058406,None,1556.695334701344,None,1556.695334701344,None,v,9.172754658418853,1556.695334701344,None,t,5.528233754761459,1556.695334701344,None,9.172754658418853,5.528233754761459,7,False,False,False,1565.9264039088703,None,1565.9264039088703,None,1565.9264039088703,None,1565.9264039088703,None,1565.9264039088703,None,1565.9264039088703,None,1566.9262172160888,None,1566.9262172160888,None,c,,,,,,,,,,,,,,,,,,,,,,,,,,,3_4,001,2021_Apr_07_1428,ComputerHuman,2020.1.3,59.97416284053056,
Computer.xlsx,c,Sychronize.jpg,Number9.jpg,9,Computer,,,,,0,9,9,9,0,9,9,7,,,,,,,,,,,,,,,,,,,,,,,,,,,,,,,,,,,,,,,,,,,,,,,,,,,,,,,,,1567.9922654014335,None,1567.9922654014335,None,1568.4258539350303,None,1568.4258539350303,None,v,7.881523862193717,1568.4258539350303,None,t,8.421057341951382,1568.4258539350303,None,7.881523862193717,8.421057341951382,9,False,False,False,1576.9070148048668,None,1576.9070148048668,None,1576.9070148048668,None,1576.9070148048668,None,1576.9070148048668,None,1576.9070148048668,None,1577.9235400030993,None,1577.9235400030993,None,c,,,,,,,,,,,,,,,,,,,,,,,,,,,3_4,001,2021_Apr_07_1428,ComputerHuman,2020.1.3,59.97416284053056,
Computer.xlsx,c,,,,,,,,,0,9,9,9,,,,,,,,,,,,,,,,,,,,,,,,,,,,,,,,,,,,,,,,,,,,,,,,,,,,,,,,,,,,,,,,,,,,,,,,,,,,,,,,,,,,,,,,,,,,,,,,,,,c,1578.9065018808797,None,1578.9065018808797,None,q,0,3.2083796189217537,1578.9065018808797,None,l,1,1.7435447441966971,1578.9065018808797,None,h,c,1582.172405651978,None,None,None,None,None,None,,,,3_4,001,2021_Apr_07_1428,ComputerHuman,2020.1.3,59.97416284053056,
Computer.xlsx,c,Sychronize.jpg,Number7.jpg,7,Computer,,,,,1,0,10,3,0,0,0,3,,,,,,,,,,,,,,,,,,,,,,,,,,,,,,,,,,,,,,,,,,,,,,,,,,,,,1587.1879101346894,None,1587.1879101346894,None,1590.2538739554257,None,1590.2538739554257,None,1590.7036993078582,None,1590.7036993078582,None,v,6.686059406158165,1590.7036993078582,None,t,6.389178105877363,1590.7036993078582,None,6.686059406158165,6.389178105877363,7,False,False,False,1597.4520807423833,None,1597.4520807423833,None,1597.4520807423833,None,1597.4520807423833,None,1597.4520807423833,None,1597.4520807423833,None,1598.4518622925789,None,1598.4518622925789,None,c,,,,,,,,,,,,,,,,,,,,,,,,,,,3_4,001,2021_Apr_07_1428,ComputerHuman,2020.1.3,59.97416284053056,
Computer.xlsx,c,Sychronize.jpg,Number9.jpg,9,Computer,,,,,1,0,10,3,0,1,1,6,,,,,,,,,,,,,,,,,,,,,,,,,,,,,,,,,,,,,,,,,,,,,,,,,,,,,,,,,1599.5179448011659,None,1599.5179448011659,None,1599.9514755947312,None,1599.9514755947312,None,v,8.617404578977585,1599.9514755947312,None,t,8.209063196791249,1599.9514755947312,None,8.617404578977585,8.209063196791249,9,False,False,False,1608.6326707236512,None,1608.6326707236512,None,1608.6326707236512,None,1608.6326707236512,None,1608.6326707236512,None,1608.6326707236512,None,1609.649176354429,None,1609.649176354429,None,c,,,,,,,,,,,,,,,,,,,,,,,,,,,3_4,001,2021_Apr_07_1428,ComputerHuman,2020.1.3,59.97416284053056,
Computer.xlsx,c,Sychronize.jpg,Number10.jpg,10,Computer,,,,,1,0,10,3,0,2,2,9,,,,,,,,,,,,,,,,,,,,,,,,,,,,,,,,,,,,,,,,,,,,,,,,,,,,,,,,,1610.6987984619336,None,1610.6987984619336,None,1611.1487306334311,None,1611.1487306334311,None,v,8.907318902387487,1611.1487306334311,None,t,8.991000894649915,1611.1487306334311,None,8.907318902387487,8.991000894649915,10,False,False,False,1620.2131768535583,None,1620.2131768535583,None,1620.2131768535583,None,1620.2131768535583,None,1620.2131768535583,None,1620.2131768535583,None,1621.2129394778567,None,1621.2129394778567,None,c,,,,,,,,,,,,,,,,,,,,,,,,,,,3_4,001,2021_Apr_07_1428,ComputerHuman,2020.1.3,59.97416284053056,
Computer.xlsx,c,Sychronize.jpg,Number7.jpg,7,Computer,,,,,1,0,10,3,0,3,3,2,,,,,,,,,,,,,,,,,,,,,,,,,,,,,,,,,,,,,,,,,,,,,,,,,,,,,,,,,1622.2626080981681,None,1622.2626080981681,None,1622.7125431566674,None,1622.7125431566674,None,v,9.41857933207939,1622.7125431566674,None,t,6.078155308507121,1622.7125431566674,None,9.41857933207939,6.078155308507121,7,False,False,False,1632.1935385050638,None,1632.1935385050638,None,1632.1935385050638,None,1632.1935385050638,None,1632.1935385050638,None,1632.1935385050638,None,1633.1933761914079,None,1633.1933761914079,None,c,,,,,,,,,,,,,,,,,,,,,,,,,,,3_4,001,2021_Apr_07_1428,ComputerHuman,2020.1.3,59.97416284053056,
Computer.xlsx,c,Sychronize.jpg,Number6.jpg,6,Computer,,,,,1,0,10,3,0,4,4,1,,,,,,,,,,,,,,,,,,,,,,,,,,,,,,,,,,,,,,,,,,,,,,,,,,,,,,,,,1634.2594808336762,None,1634.2594808336762,None,1634.6929359236346,None,1634.6929359236346,None,v,9.401292286158423,1634.6929359236346,None,t,5.409225767067255,1634.6929359236346,None,9.401292286158423,5.409225767067255,6,False,False,False,1644.1573685427793,None,1644.1573685427793,None,1644.1573685427793,None,1644.1573685427793,None,1644.1573685427793,None,1644.1573685427793,None,1645.1570621998108,None,1645.1570621998108,None,c,,,,,,,,,,,,,,,,,,,,,,,,,,,3_4,001,2021_Apr_07_1428,ComputerHuman,2020.1.3,59.97416284053056,
Computer.xlsx,c,Sychronize.jpg,Number9.jpg,9,Computer,,,,,1,0,10,3,0,5,5,7,,,,,,,,,,,,,,,,,,,,,,,,,,,,,,,,,,,,,,,,,,,,,,,,,,,,,,,,,1646.2233057389421,None,1646.2233057389421,None,1646.6567839249183,None,1646.6567839249183,None,v,8.264696042017022,1646.6567839249183,None,t,8.512019711164612,1646.6567839249183,None,8.264696042017022,8.512019711164612,9,False,False,False,1655.2213124245973,None,1655.2213124245973,None,1655.2213124245973,None,1655.2213124245973,None,1655.2213124245973,None,1655.2213124245973,None,1656.237699046742,None,1656.237699046742,None,c,,,,,,,,,,,,,,,,,,,,,,,,,,,3_4,001,2021_Apr_07_1428,ComputerHuman,2020.1.3,59.97416284053056,
Computer.xlsx,c,Sychronize.jpg,Number10.jpg,10,Computer,,,,,1,0,10,3,0,6,6,8,,,,,,,,,,,,,,,,,,,,,,,,,,,,,,,,,,,,,,,,,,,,,,,,,,,,,,,,,1657.2874411252124,None,1657.2874411252124,None,1657.7373922226107,None,1657.7373922226107,None,v,8.3991982475236,1657.7373922226107,None,t,9.361842369060469,1657.7373922226107,None,8.3991982475236,9.361842369060469,10,False,False,False,1667.1517882891021,None,1667.1517882891021,None,1667.1517882891021,None,1667.1517882891021,None,1667.1517882891021,None,1667.1517882891021,None,1668.1515236472696,None,1668.1515236472696,None,c,,,,,,,,,,,,,,,,,,,,,,,,,,,3_4,001,2021_Apr_07_1428,ComputerHuman,2020.1.3,59.97416284053056,
Computer.xlsx,c,Sychronize.jpg,Number6.jpg,6,Computer,,,,,1,0,10,3,0,7,7,0,,,,,,,,,,,,,,,,,,,,,,,,,,,,,,,,,,,,,,,,,,,,,,,,,,,,,,,,,1669.2179019131509,None,1669.2179019131509,None,1669.667779231615,None,1669.667779231615,None,v,9.80780812087687,1669.667779231615,None,t,5.139262229899032,1669.667779231615,None,9.80780812087687,5.139262229899032,6,False,False,False,1679.5320612775758,None,1679.5320612775758,None,1679.5320612775758,None,1679.5320612775758,None,1679.5320612775758,None,1679.5320612775758,None,1680.5318444316617,None,1680.5318444316617,None,c,,,,,,,,,,,,,,,,,,,,,,,,,,,3_4,001,2021_Apr_07_1428,ComputerHuman,2020.1.3,59.97416284053056,
Computer.xlsx,c,Sychronize.jpg,Number8.jpg,8,Computer,,,,,1,0,10,3,0,8,8,5,,,,,,,,,,,,,,,,,,,,,,,,,,,,,,,,,,,,,,,,,,,,,,,,,,,,,,,,,1681.5812920359494,None,1681.5812920359494,None,1682.0314596584794,None,1682.0314596584794,None,v,7.983330772454792,1682.0314596584794,None,t,7.747100568067253,1682.0314596584794,None,7.983330772454792,7.747100568067253,8,False,True,True,1690.0795295213575,None,1690.0795295213575,None,1690.0795295213575,None,1690.0795295213575,None,1690.0795295213575,None,1690.0795295213575,None,1691.0959308992897,None,1691.0959308992897,None,c,,,,,,,,,,,,,,,,,,,,,,,,,,,3_4,001,2021_Apr_07_1428,ComputerHuman,2020.1.3,59.97416284053056,
Computer.xlsx,c,Sychronize.jpg,Number8.jpg,8,Computer,,,,,1,0,10,3,0,9,9,4,,,,,,,,,,,,,,,,,,,,,,,,,,,,,,,,,,,,,,,,,,,,,,,,,,,,,,,,,1692.1456036897143,None,1692.1456036897143,None,1692.595544201442,None,1692.595544201442,None,v,8.09045682312717,1692.595544201442,None,t,7.822143688645156,1692.595544201442,None,8.09045682312717,7.822143688645156,8,False,True,True,1700.74347738082,None,1700.74347738082,None,1700.74347738082,None,1700.74347738082,None,1700.74347738082,None,1700.74347738082,None,1701.743245779122,None,1701.743245779122,None,c,,,,,,,,,,,,,,,,,,,,,,,,,,,3_4,001,2021_Apr_07_1428,ComputerHuman,2020.1.3,59.97416284053056,
Computer.xlsx,c,,,,,,,,,1,0,10,3,,,,,,,,,,,,,,,,,,,,,,,,,,,,,,,,,,,,,,,,,,,,,,,,,,,,,,,,,,,,,,,,,,,,,,,,,,,,,,,,,,,,,,,,,,,,,,,,,,,c,1702.7597321632202,None,1702.7597321632202,None,a,1,2.8659436758789525,1702.7597321632202,None,o,0,4.021346491219447,1702.7597321632202,None,c,h,1706.842074907432,None,None,None,None,None,None,,,,3_4,001,2021_Apr_07_1428,ComputerHuman,2020.1.3,59.97416284053056,
Human.xlsx,h,Sychronize.jpg,Number8.jpg,8,Human,,,,,1,1,11,6,0,0,0,5,,,,,,,,,,,,,,,,,,,,,,,,,,,,,,,,,,,,,,,,,,,,,,,,,,,,,1711.8575033657617,None,1711.8575033657617,None,1714.9065044471063,None,1714.9065044471063,None,1715.3565713453536,None,1715.3565713453536,None,v,6.935802382802649,1715.3565713453536,None,t,7.595062713699008,1715.3565713453536,None,6.935802382802649,7.595062713699008,8,False,False,False,1723.004745268605,None,1723.004745268605,None,1723.004745268605,None,1723.004745268605,None,1723.004745268605,None,1723.004745268605,None,1724.0212335773685,None,1724.0212335773685,None,h,,,,,,,,,,,,,,,,,,,,,,,,,,,3_4,001,2021_Apr_07_1428,ComputerHuman,2020.1.3,59.97416284053056,
Human.xlsx,h,Sychronize.jpg,Number6.jpg,6,Human,,,,,1,1,11,6,0,1,1,0,,,,,,,,,,,,,,,,,,,,,,,,,,,,,,,,,,,,,,,,,,,,,,,,,,,,,,,,,1725.070908613241,None,1725.070908613241,None,1725.5208548989685,None,1725.5208548989685,None,v,8.21068697490773,1725.5208548989685,None,t,5.4942505359395,1725.5208548989685,None,8.21068697490773,5.4942505359395,6,False,False,False,1733.7855082775131,None,1733.7855082775131,None,1733.7855082775131,None,1733.7855082775131,None,1733.7855082775131,None,1733.7855082775131,None,1734.7852827705974,None,1734.7852827705974,None,h,,,,,,,,,,,,,,,,,,,,,,,,,,,3_4,001,2021_Apr_07_1428,ComputerHuman,2020.1.3,59.97416284053056,
Human.xlsx,h,Sychronize.jpg,Number7.jpg,7,Human,,,,,1,1,11,6,0,2,2,3,,,,,,,,,,,,,,,,,,,,,,,,,,,,,,,,,,,,,,,,,,,,,,,,,,,,,,,,,1735.8515821250949,None,1735.8515821250949,None,1736.3016278519972,None,1736.3016278519972,None,v,8.001051189428836,1736.3016278519972,None,t,5.992192905607226,1736.3016278519972,None,8.001051189428836,5.992192905607226,7,False,False,False,1744.366218101437,None,1744.366218101437,None,1744.366218101437,None,1744.366218101437,None,1744.366218101437,None,1744.366218101437,None,1745.3660044633034,None,1745.3660044633034,None,h,,,,,,,,,,,,,,,,,,,,,,,,,,,3_4,001,2021_Apr_07_1428,ComputerHuman,2020.1.3,59.97416284053056,
Human.xlsx,h,Sychronize.jpg,Number9.jpg,9,Human,,,,,1,1,11,6,0,3,3,7,,,,,,,,,,,,,,,,,,,,,,,,,,,,,,,,,,,,,,,,,,,,,,,,,,,,,,,,,1746.432523229938,None,1746.432523229938,None,1746.8656514471404,None,1746.8656514471404,None,v,8.200231858321786,1746.8656514471404,None,t,8.492068604144151,1746.8656514471404,None,8.200231858321786,8.492068604144151,9,True,False,False,1755.413580648874,None,1755.413580648874,None,1755.413580648874,None,1755.413580648874,None,1755.413580648874,None,1755.413580648874,None,1756.430092374434,None,1756.430092374434,None,h,,,,,,,,,,,,,,,,,,,,,,,,,,,3_4,001,2021_Apr_07_1428,ComputerHuman,2020.1.3,59.97416284053056,
Human.xlsx,h,Sychronize.jpg,Number6.jpg,6,Human,,,,,1,1,11,6,0,4,4,1,,,,,,,,,,,,,,,,,,,,,,,,,,,,,,,,,,,,,,,,,,,,,,,,,,,,,,,,,1757.4795852084135,None,1757.4795852084135,None,1757.929693487018,None,1757.929693487018,None,v,8.62338997524057,1757.929693487018,None,t,5.871238116378663,1757.929693487018,None,8.62338997524057,5.871238116378663,6,False,False,False,1766.6108328005757,None,1766.6108328005757,None,1766.6108328005757,None,1766.6108328005757,None,1766.6108328005757,None,1766.6108328005757,None,1767.6105232498267,None,1767.6105232498267,None,h,,,,,,,,,,,,,,,,,,,,,,,,,,,3_4,001,2021_Apr_07_1428,ComputerHuman,2020.1.3,59.97416284053056,
Human.xlsx,h,Sychronize.jpg,Number8.jpg,8,Human,,,,,1,1,11,6,0,5,5,4,,,,,,,,,,,,,,,,,,,,,,,,,,,,,,,,,,,,,,,,,,,,,,,,,,,,,,,,,1768.693657032527,None,1768.693657032527,None,1769.1270274371018,None,1769.1270274371018,None,v,7.805408701617125,1769.1270274371018,None,t,7.724070634027157,1769.1270274371018,None,7.805408701617125,7.724070634027157,8,True,False,False,1776.9916584895,None,1776.9916584895,None,1776.9916584895,None,1776.9916584895,None,1776.9916584895,None,1776.9916584895,None,1778.008126589255,None,1778.008126589255,None,h,,,,,,,,,,,,,,,,,,,,,,,,,,,3_4,001,2021_Apr_07_1428,ComputerHuman,2020.1.3,59.97416284053056,
Human.xlsx,h,Sychronize.jpg,Number10.jpg,10,Human,,,,,1,1,11,6,0,6,6,9,,,,,,,,,,,,,,,,,,,,,,,,,,,,,,,,,,,,,,,,,,,,,,,,,,,,,,,,,1779.0409803488183,None,1779.0409803488183,None,1779.4911133273308,None,1779.4911133273308,None,v,7.948359557467484,1779.4911133273308,None,t,9.983853640558664,1779.4911133273308,None,7.948359557467484,9.983853640558664,10,False,False,False,1789.5386109222964,None,1789.5386109222964,None,1789.5386109222964,None,1789.5386109222964,None,1789.5386109222964,None,1789.5386109222964,None,1790.5550418118037,None,1790.5550418118037,None,h,,,,,,,,,,,,,,,,,,,,,,,,,,,3_4,001,2021_Apr_07_1428,ComputerHuman,2020.1.3,59.97416284053056,
Human.xlsx,h,Sychronize.jpg,Number7.jpg,7,Human,,,,,1,1,11,6,0,7,7,2,,,,,,,,,,,,,,,,,,,,,,,,,,,,,,,,,,,,,,,,,,,,,,,,,,,,,,,,,1791.6047739461574,None,1791.6047739461574,None,1792.0546310556056,None,1792.0546310556056,None,v,7.73593236204033,1792.0546310556056,None,t,6.487139208980807,1792.0546310556056,None,7.73593236204033,6.487139208980807,7,False,False,False,1799.8527904957336,None,1799.8527904957336,None,1799.8527904957336,None,1799.8527904957336,None,1799.8527904957336,None,1799.8527904957336,None,1800.8525011539969,None,1800.8525011539969,None,h,,,,,,,,,,,,,,,,,,,,,,,,,,,3_4,001,2021_Apr_07_1428,ComputerHuman,2020.1.3,59.97416284053056,
Human.xlsx,h,Sychronize.jpg,Number10.jpg,10,Human,,,,,1,1,11,6,0,8,8,8,,,,,,,,,,,,,,,,,,,,,,,,,,,,,,,,,,,,,,,,,,,,,,,,,,,,,,,,,1801.9189127807877,None,1801.9189127807877,None,1802.368807742041,None,1802.368807742041,None,v,7.4810299924174615,1802.368807742041,None,t,9.355987850212841,1802.368807742041,None,7.4810299924174615,9.355987850212841,10,False,False,False,1811.7831739761787,None,1811.7831739761787,None,1811.7831739761787,None,1811.7831739761787,None,1811.7831739761787,None,1811.7831739761787,None,1812.782951035486,None,1812.782951035486,None,h,,,,,,,,,,,,,,,,,,,,,,,,,,,3_4,001,2021_Apr_07_1428,ComputerHuman,2020.1.3,59.97416284053056,
Human.xlsx,h,Sychronize.jpg,Number9.jpg,9,Human,,,,,1,1,11,6,0,9,9,6,,,,,,,,,,,,,,,,,,,,,,,,,,,,,,,,,,,,,,,,,,,,,,,,,,,,,,,,,1813.849102832115,None,1813.849102832115,None,1814.2826782138181,None,1814.2826782138181,None,v,7.210270284314902,1814.2826782138181,None,t,8.825000537301094,1814.2826782138181,None,7.210270284314902,8.825000537301094,9,False,False,False,1823.1638161801056,None,1823.1638161801056,None,1823.1638161801056,None,1823.1638161801056,None,1823.1638161801056,None,1823.1638161801056,None,1824.180171045231,None,1824.180171045231,None,h,,,,,,,,,,,,,,,,,,,,,,,,,,,3_4,001,2021_Apr_07_1428,ComputerHuman,2020.1.3,59.97416284053056,
Human.xlsx,h,,,,,,,,,1,1,11,6,,,,,,,,,,,,,,,,,,,,,,,,,,,,,,,,,,,,,,,,,,,,,,,,,,,,,,,,,,,,,,,,,,,,,,,,,,,,,,,,,,,,,,,,,,,,,,,,,,,h,1825.179981144669,None,1825.179981144669,None,q,1,3.4324985300336266,1825.179981144669,None,l,0,3.4153869496622065,1825.179981144669,None,h,c,None,None,1828.662444373087,None,"['space', 'space']",1829.6455153153838,None,"[0.8147507186222356, 6.634261461636925]",,,3_4,001,2021_Apr_07_1428,ComputerHuman,2020.1.3,59.97416284053056,
Computer.xlsx,c,Sychronize.jpg,Number7.jpg,7,Computer,,,,,1,2,12,9,0,0,0,2,,,,,,,,,,,,,,,,,,,,,,,,,,,,,,,,,,,,,,,,,,,,,,,,,,,,,1836.343859234923,None,1836.343859234923,None,1839.4095985110762,None,1839.4095985110762,None,1839.8597010156773,None,1839.8597010156773,None,v,7.515272720622306,1839.8597010156773,None,t,6.586142198953894,1839.8597010156773,None,7.515272720622306,6.586142198953894,7,False,False,False,1847.4245320089904,None,1847.4245320089904,None,1847.4245320089904,None,1847.4245320089904,None,1847.4245320089904,None,1847.4245320089904,None,1848.4242805190552,None,1848.4242805190552,None,c,,,,,,,,,,,,,,,,,,,,,,,,,,,3_4,001,2021_Apr_07_1428,ComputerHuman,2020.1.3,59.97416284053056,
Computer.xlsx,c,Sychronize.jpg,Number6.jpg,6,Computer,,,,,1,2,12,9,0,1,1,1,,,,,,,,,,,,,,,,,,,,,,,,,,,,,,,,,,,,,,,,,,,,,,,,,,,,,,,,,1849.4733127158615,None,1849.4733127158615,None,1849.9239028029879,None,1849.9239028029879,None,v,7.958329978529946,1849.9239028029879,None,t,5.770197223922878,1849.9239028029879,None,7.958329978529946,5.770197223922878,6,False,False,True,1857.9385822447475,None,1857.9385822447475,None,1857.9385822447475,None,1857.9385822447475,None,1857.9385822447475,None,1857.9385822447475,None,1858.9550676665094,None,1858.9550676665094,None,c,,,,,,,,,,,,,,,,,,,,,,,,,,,3_4,001,2021_Apr_07_1428,ComputerHuman,2020.1.3,59.97416284053056,
Computer.xlsx,c,Sychronize.jpg,Number6.jpg,6,Computer,,,,,1,2,12,9,0,2,2,0,,,,,,,,,,,,,,,,,,,,,,,,,,,,,,,,,,,,,,,,,,,,,,,,,,,,,,,,,1859.987952541538,None,1859.987952541538,None,1860.454629644184,None,1860.454629644184,None,v,7.650809755883529,1860.454629644184,None,t,5.730255233411299,1860.454629644184,None,7.650809755883529,5.730255233411299,6,False,False,True,1868.1861721596142,None,1868.1861721596142,None,1868.1861721596142,None,1868.1861721596142,None,1868.1861721596142,None,1868.1861721596142,None,1869.1861808206195,None,1869.1861808206195,None,c,,,,,,,,,,,,,,,,,,,,,,,,,,,3_4,001,2021_Apr_07_1428,ComputerHuman,2020.1.3,59.97416284053056,
Computer.xlsx,c,Sychronize.jpg,Number10.jpg,10,Computer,,,,,1,2,12,9,0,3,3,9,,,,,,,,,,,,,,,,,,,,,,,,,,,,,,,,,,,,,,,,,,,,,,,,,,,,,,,,,1870.235650558585,None,1870.235650558585,None,1870.6855628418489,None,1870.6855628418489,None,v,7.255214807370066,1870.6855628418489,None,t,9.425931242523802,1870.6855628418489,None,7.255214807370066,9.425931242523802,10,False,False,False,1880.1666258744008,None,1880.1666258744008,None,1880.1666258744008,None,1880.1666258744008,None,1880.1666258744008,None,1880.1666258744008,None,1881.1662633952874,None,1881.1662633952874,None,c,,,,,,,,,,,,,,,,,,,,,,,,,,,3_4,001,2021_Apr_07_1428,ComputerHuman,2020.1.3,59.97416284053056,
Computer.xlsx,c,Sychronize.jpg,Number9.jpg,9,Computer,,,,,1,2,12,9,0,4,4,6,,,,,,,,,,,,,,,,,,,,,,,,,,,,,,,,,,,,,,,,,,,,,,,,,,,,,,,,,1882.2325563342274,None,1882.2325563342274,None,1882.665883112997,None,1882.665883112997,None,v,7.52579520058498,1882.665883112997,None,None,,1882.665883112997,None,7.52579520058498,13,9,False,False,False,1895.7128049114945,None,1895.7128049114945,None,1895.7128049114945,None,1895.7128049114945,None,1895.7128049114945,None,1895.7128049114945,None,1896.712512041202,None,1896.712512041202,None,c,,,,,,,,,,,,,,,,,,,,,,,,,,,3_4,001,2021_Apr_07_1428,ComputerHuman,2020.1.3,59.97416284053056,
Computer.xlsx,c,Sychronize.jpg,Number10.jpg,10,Computer,,,,,1,2,12,9,0,5,5,8,,,,,,,,,,,,,,,,,,,,,,,,,,,,,,,,,,,,,,,,,,,,,,,,,,,,,,,,,1897.7620048751814,None,1897.7620048751814,None,1898.2121445900302,None,1898.2121445900302,None,v,8.006460468444857,1898.2121445900302,None,t,9.24195448737737,1898.2121445900302,None,8.006460468444857,9.24195448737737,10,False,False,False,1907.509886858399,None,1907.509886858399,None,1907.509886858399,None,1907.509886858399,None,1907.509886858399,None,1907.509886858399,None,1908.5263187102428,None,1908.5263187102428,None,c,,,,,,,,,,,,,,,,,,,,,,,,,,,3_4,001,2021_Apr_07_1428,ComputerHuman,2020.1.3,59.97416284053056,
Computer.xlsx,c,Sychronize.jpg,Number8.jpg,8,Computer,,,,,1,2,12,9,0,6,6,4,,,,,,,,,,,,,,,,,,,,,,,,,,,,,,,,,,,,,,,,,,,,,,,,,,,,,,,,,1909.57573391595,None,1909.57573391595,None,1910.0259432396197,None,1910.0259432396197,None,v,8.879720127632027,1910.0259432396197,None,t,7.515094368071004,1910.0259432396197,None,8.879720127632027,7.515094368071004,8,False,False,False,1918.973694602042,None,1918.973694602042,None,1918.973694602042,None,1918.973694602042,None,1918.973694602042,None,1918.973694602042,None,1919.9735104754836,None,1919.9735104754836,None,c,,,,,,,,,,,,,,,,,,,,,,,,,,,3_4,001,2021_Apr_07_1428,ComputerHuman,2020.1.3,59.97416284053056,
Computer.xlsx,c,Sychronize.jpg,Number7.jpg,7,Computer,,,,,1,2,12,9,0,7,7,3,,,,,,,,,,,,,,,,,,,,,,,,,,,,,,,,,,,,,,,,,,,,,,,,,,,,,,,,,1921.0232753291893,None,1921.0232753291893,None,1921.4731128711828,None,1921.4731128711828,None,v,8.227728625683085,1921.4731128711828,None,t,6.655604424297053,1921.4731128711828,None,8.227728625683085,6.655604424297053,7,False,False,False,1929.7544816693007,None,1929.7544816693007,None,1929.7544816693007,None,1929.7544816693007,None,1929.7544816693007,None,1929.7544816693007,None,1930.7542016301304,None,1930.7542016301304,None,c,,,,,,,,,,,,,,,,,,,,,,,,,,,3_4,001,2021_Apr_07_1428,ComputerHuman,2020.1.3,59.97416284053056,
Computer.xlsx,c,Sychronize.jpg,Number8.jpg,8,Computer,,,,,1,2,12,9,0,8,8,5,,,,,,,,,,,,,,,,,,,,,,,,,,,,,,,,,,,,,,,,,,,,,,,,,,,,,,,,,1931.820576688231,None,1931.820576688231,None,1932.2538739554257,None,1932.2538739554257,None,v,7.026220712570648,1932.2538739554257,None,t,8.237089247810218,1932.2538739554257,None,7.026220712570648,8.237089247810218,8,False,False,True,1940.551806765914,None,1940.551806765914,None,1940.551806765914,None,1940.551806765914,None,1940.551806765914,None,1940.551806765914,None,1941.568271657885,None,1941.568271657885,None,c,,,,,,,,,,,,,,,,,,,,,,,,,,,3_4,001,2021_Apr_07_1428,ComputerHuman,2020.1.3,59.97416284053056,
Computer.xlsx,c,Sychronize.jpg,Number9.jpg,9,Computer,,,,,1,2,12,9,0,9,9,7,,,,,,,,,,,,,,,,,,,,,,,,,,,,,,,,,,,,,,,,,,,,,,,,,,,,,,,,,1942.6179980182314,None,1942.6179980182314,None,1943.0678804691452,None,1943.0678804691452,None,v,8.659376452520519,1943.0678804691452,None,t,10.606877928905305,1943.0678804691452,None,8.659376452520519,10.606877928905305,9,False,False,False,1953.7485774298693,None,1953.7485774298693,None,1953.7485774298693,None,1953.7485774298693,None,1953.7485774298693,None,1953.7485774298693,None,1954.7483727735198,None,1954.7483727735198,None,c,,,,,,,,,,,,,,,,,,,,,,,,,,,3_4,001,2021_Apr_07_1428,ComputerHuman,2020.1.3,59.97416284053056,
Computer.xlsx,c,,,,,,,,,1,2,12,9,,,,,,,,,,,,,,,,,,,,,,,,,,,,,,,,,,,,,,,,,,,,,,,,,,,,,,,,,,,,,,,,,,,,,,,,,,,,,,,,,,,,,,,,,,,,,,,,,,,c,1955.7480859980096,None,1955.7480859980096,None,q,0,4.390702122043876,1955.7480859980096,None,l,1,1.6697456006113498,1955.7480859980096,None,h,c,1960.1969907176463,None,None,None,None,None,None,,,,3_4,001,2021_Apr_07_1428,ComputerHuman,2020.1.3,59.97416284053056,
Human.xlsx,h,Sychronize.jpg,Number10.jpg,10,Human,,,,,1,3,13,4,0,0,0,8,,,,,,,,,,,,,,,,,,,,,,,,,,,,,,,,,,,,,,,,,,,,,,,,,,,,,1965.1957650250006,None,1965.1957650250006,None,1968.2950493372555,None,1968.2950493372555,None,1968.7283247915511,None,1968.7283247915511,None,v,7.645000145956146,1968.7283247915511,None,t,9.607948044231307,1968.7283247915511,None,7.645000145956146,9.607948044231307,10,False,False,False,1978.3926242236776,None,1978.3926242236776,None,1978.3926242236776,None,1978.3926242236776,None,1978.3926242236776,None,1978.3926242236776,None,1979.4093823067196,None,1979.4093823067196,None,h,,,,,,,,,,,,,,,,,,,,,,,,,,,3_4,001,2021_Apr_07_1428,ComputerHuman,2020.1.3,59.97416284053056,
Human.xlsx,h,Sychronize.jpg,Number9.jpg,9,Human,,,,,1,3,13,4,0,1,1,7,,,,,,,,,,,,,,,,,,,,,,,,,,,,,,,,,,,,,,,,,,,,,,,,,,,,,,,,,1980.4584151450836,None,1980.4584151450836,None,1980.8920149059122,None,1980.8920149059122,None,v,7.768375525796728,1980.8920149059122,None,t,9.124013407235907,1980.8920149059122,None,7.768375525796728,9.124013407235907,9,False,False,False,1990.0730959982611,None,1990.0730959982611,None,1990.0730959982611,None,1990.0730959982611,None,1990.0730959982611,None,1990.0730959982611,None,1991.0895679473506,None,1991.0895679473506,None,h,,,,,,,,,,,,,,,,,,,,,,,,,,,3_4,001,2021_Apr_07_1428,ComputerHuman,2020.1.3,59.97416284053056,
Human.xlsx,h,Sychronize.jpg,Number9.jpg,9,Human,,,,,1,3,13,4,0,2,2,6,,,,,,,,,,,,,,,,,,,,,,,,,,,,,,,,,,,,,,,,,,,,,,,,,,,,,,,,,1992.1223280397462,None,1992.1223280397462,None,1992.5891658521577,None,1992.5891658521577,None,v,8.546325632629305,1992.5891658521577,None,t,8.942011682091106,1992.5891658521577,None,8.546325632629305,8.942011682091106,9,False,False,False,2001.6036412791218,None,2001.6036412791218,None,2001.6036412791218,None,2001.6036412791218,None,2001.6036412791218,None,2001.6036412791218,None,2002.603405507307,None,2002.603405507307,None,h,,,,,,,,,,,,,,,,,,,,,,,,,,,3_4,001,2021_Apr_07_1428,ComputerHuman,2020.1.3,59.97416284053056,
Human.xlsx,h,Sychronize.jpg,Number6.jpg,6,Human,,,,,1,3,13,4,0,3,3,0,,,,,,,,,,,,,,,,,,,,,,,,,,,,,,,,,,,,,,,,,,,,,,,,,,,,,,,,,2003.6697443174962,None,2003.6697443174962,None,2004.102998279668,None,2004.102998279668,None,v,7.059769918789243,2004.102998279668,None,t,5.695251940625894,2004.102998279668,None,7.059769918789243,5.695251940625894,6,False,False,False,2011.2178332666626,None,2011.2178332666626,None,2011.2178332666626,None,2011.2178332666626,None,2011.2178332666626,None,2011.2178332666626,None,2012.217690841244,None,2012.217690841244,None,h,,,,,,,,,,,,,,,,,,,,,,,,,,,3_4,001,2021_Apr_07_1428,ComputerHuman,2020.1.3,59.97416284053056,
Human.xlsx,h,Sychronize.jpg,Number7.jpg,7,Human,,,,,1,3,13,4,0,4,4,3,,,,,,,,,,,,,,,,,,,,,,,,,,,,,,,,,,,,,,,,,,,,,,,,,,,,,,,,,2013.267179825889,None,2013.267179825889,None,2013.7172845759342,None,2013.7172845759342,None,v,7.652641398130072,2013.7172845759342,None,t,7.020093853217986,2013.7172845759342,None,7.652641398130072,7.020093853217986,7,False,False,False,2021.4488123355804,None,2021.4488123355804,None,2021.4488123355804,None,2021.4488123355804,None,2021.4488123355804,None,2021.4488123355804,None,2022.448477764152,None,2022.448477764152,None,h,,,,,,,,,,,,,,,,,,,,,,,,,,,3_4,001,2021_Apr_07_1428,ComputerHuman,2020.1.3,59.97416284053056,
Human.xlsx,h,Sychronize.jpg,Number6.jpg,6,Human,,,,,1,3,13,4,0,5,5,1,,,,,,,,,,,,,,,,,,,,,,,,,,,,,,,,,,,,,,,,,,,,,,,,,,,,,,,,,2023.4980607367434,None,2023.4980607367434,None,2023.9480663663962,None,2023.9480663663962,None,v,8.85704882337086,2023.9480663663962,None,t,5.712271136944764,2023.9480663663962,None,8.85704882337086,5.712271136944764,6,False,False,False,2032.8626396627224,None,2032.8626396627224,None,2032.8626396627224,None,2032.8626396627224,None,2032.8626396627224,None,2032.8626396627224,None,2033.8624308362596,None,2033.8624308362596,None,h,,,,,,,,,,,,,,,,,,,,,,,,,,,3_4,001,2021_Apr_07_1428,ComputerHuman,2020.1.3,59.97416284053056,
Human.xlsx,h,Sychronize.jpg,Number8.jpg,8,Human,,,,,1,3,13,4,0,6,6,4,,,,,,,,,,,,,,,,,,,,,,,,,,,,,,,,,,,,,,,,,,,,,,,,,,,,,,,,,2034.9285896900037,None,2034.9285896900037,None,2035.378698930941,None,2035.378698930941,None,v,7.565667903054418,2035.378698930941,None,t,7.817067056392261,2035.378698930941,None,7.565667903054418,7.817067056392261,8,True,False,False,2043.2600508561409,None,2043.2600508561409,None,2043.2600508561409,None,2043.2600508561409,None,2043.2600508561409,None,2043.2600508561409,None,2044.2765805452655,None,2044.2765805452655,None,h,,,,,,,,,,,,,,,,,,,,,,,,,,,3_4,001,2021_Apr_07_1428,ComputerHuman,2020.1.3,59.97416284053056,
Human.xlsx,h,Sychronize.jpg,Number7.jpg,7,Human,,,,,1,3,13,4,0,7,7,2,,,,,,,,,,,,,,,,,,,,,,,,,,,,,,,,,,,,,,,,,,,,,,,,,,,,,,,,,2045.3262806018174,None,2045.3262806018174,None,2045.7595660002298,None,2045.7595660002298,None,v,8.431950962029077,2045.7595660002298,None,t,6.8549791638688475,2045.7595660002298,None,8.431950962029077,6.8549791638688475,7,False,False,False,2054.2408054606676,None,2054.2408054606676,None,2054.2408054606676,None,2054.2408054606676,None,2054.2408054606676,None,2054.2408054606676,None,2055.2571837425858,None,2055.2571837425858,None,h,,,,,,,,,,,,,,,,,,,,,,,,,,,3_4,001,2021_Apr_07_1428,ComputerHuman,2020.1.3,59.97416284053056,
Human.xlsx,h,Sychronize.jpg,Number8.jpg,8,Human,,,,,1,3,13,4,0,8,8,5,,,,,,,,,,,,,,,,,,,,,,,,,,,,,,,,,,,,,,,,,,,,,,,,,,,,,,,,,2056.306975220865,None,2056.306975220865,None,2056.756869219782,None,2056.756869219782,None,v,8.037914994478342,2056.756869219782,None,t,8.257052865170408,2056.756869219782,None,8.037914994478342,8.257052865170408,8,True,False,False,2065.0714776733694,None,2065.0714776733694,None,2065.0714776733694,None,2065.0714776733694,None,2065.0714776733694,None,2065.0714776733694,None,2066.071225221105,None,2066.071225221105,None,h,,,,,,,,,,,,,,,,,,,,,,,,,,,3_4,001,2021_Apr_07_1428,ComputerHuman,2020.1.3,59.97416284053056,
