Condition,CorrectTuringReply,Sychronize,NumberImage,Number,Partner,trials.thisRepN,trials.thisTrialN,trials.thisN,trials.thisIndex,Block.thisRepN,Block.thisTrialN,Block.thisN,Block.thisIndex,trials_loop.thisRepN,trials_loop.thisTrialN,trials_loop.thisN,trials_loop.thisIndex,textLeft.started,textLeft.stopped,textRight.started,textRight.stopped,key_resp_Istr.keys,key_resp_Istr.rt,key_resp_Istr.started,key_resp_Istr.stopped,SychroLeftPr.started,SychroLeftPr.stopped,SychroRightPr.started,SychroRightPr.stopped,NumberLeftPr.started,NumberLeftPr.stopped,NumberRightPr.started,NumberRightPr.stopped,CrossLeftPr.started,CrossLeftPr.stopped,CrossRightPr.started,CrossRightPr.stopped,key_respPrLeft.keys,key_respPrLeft.rt,key_respPrLeft.started,key_respPrLeft.stopped,key_respPrRight.keys,key_respPrRight.rt,key_respPrRight.started,key_respPrRight.stopped,RTPrLeft,RTPrRight,CompPr,SychronizedRTsPr,SychronizedRTsLeftCPr,SychronizedRTsRightCPr,FeedbackLeftLeftPr.started,FeedbackLeftLeftPr.stopped,FeedbackRightRightPr.started,FeedbackRightRightPr.stopped,LineLeftPr.started,LineLeftPr.stopped,LineRightPr.started,LineRightPr.stopped,CreditLeftPr.started,CreditLeftPr.stopped,CreditRightPr.started,CreditRightPr.stopped,text_StartExp.started,text_StartExp.stopped,key_startExp.keys,key_startExp.rt,key_startExp.started,key_startExp.stopped,SychroLeft.started,SychroLeft.stopped,SychroRight.started,SychroRight.stopped,NumberLeft.started,NumberLeft.stopped,NumberRight.started,NumberRight.stopped,CrossLeft.started,CrossLeft.stopped,CrossRight.started,CrossRight.stopped,key_respLeft.keys,key_respLeft.rt,key_respLeft.started,key_respLeft.stopped,key_respRight.keys,key_respRight.rt,key_respRight.started,key_respRight.stopped,RTLeft,RTRight,Comp,SychronizedRTs,SychronizedRTsLeftC,SychronizedRTsRightC,FeedbackLeftLeft.started,FeedbackLeftLeft.stopped,FeedbackLeftRight.started,FeedbackLeftRight.stopped,FeedbackRightLeft.started,FeedbackRightLeft.stopped,FeedbackRightRight.started,FeedbackRightRight.stopped,LineLeft.started,LineLeft.stopped,LineRight.started,LineRight.stopped,CreditLeft.started,CreditLeft.stopped,CreditRight.started,CreditRight.stopped,CorrectTuringReply,TuringtextLeft.started,TuringtextLeft.stopped,TuringtextRight.started,TuringtextRight.stopped,keyTuringLeft.keys,keyTuringLeft.corr,keyTuringLeft.rt,keyTuringLeft.started,keyTuringLeft.stopped,keyTuringRight.keys,keyTuringRight.corr,keyTuringRight.rt,keyTuringRight.started,keyTuringRight.stopped,RespTuringLeft,RespTuringRight,BlockText.started,BlockText.stopped,text_Pause.started,text_Pause.stopped,key_respPause.keys,key_respPause.started,key_respPause.stopped,key_respPause.rt,EndText.started,EndText.stopped,participant,session,date,expName,psychopyVersion,frameRate,
,,,,,,,,,,,,,,,,,,12.834209752225433,None,12.834209752225433,None,"['v', 'v', 't']","[171.29932594923957, 175.49080377658538, 181.23440946859773]",13.689477616269869,None,,,,,,,,,,,,,,,,,,,,,,,,,,,,,,,,,,,,,,,,,,,,,,,,,,,,,,,,,,,,,,,,,,,,,,,,,,,,,,,,,,,,,,,,,,,,,,,,,,,,,,,,,,,,,,,,,,5_6,001,2021_Apr_07_1600,ComputerHuman,2020.1.3,60.064526445520016,
,,,,,,,,,,,,,,,,,,,,,,,,,,194.97860475052585,None,194.97860475052585,None,249.0654316500695,None,249.0654316500695,None,249.51530736464338,None,249.51530736464338,None,v,5.516021737195842,249.51530736464338,None,t,5.787296935512131,249.51530736464338,None,5.516021737195842,5.787296935512131,7,False,False,False,255.36392935057302,None,255.36392935057302,None,255.36392935057302,None,255.36392935057302,None,256.36360696870906,None,256.36360696870906,None,257.36345395761236,None,"['space', 'space']","[1.948390993711655, 2.1726289134530816]",258.34649827533576,None,,,,,,,,,,,,,,,,,,,,,,,,,,,,,,,,,,,,,,,,,,,,,,,,,,,,,,,,,,,,,,,,,,,,,,5_6,001,2021_Apr_07_1600,ComputerHuman,2020.1.3,60.064526445520016,
Human.xlsx,h,Sychronize.jpg,Number10.jpg,10,Human,,,,,0,0,0,4,0,0,0,8,,,,,,,,,,,,,,,,,,,,,,,,,,,,,,,,,,,,,,,,,,,,,,,,,,,,,260.5959711569267,None,260.5959711569267,None,263.661692148733,None,263.661692148733,None,264.0951141985606,None,264.0951141985606,None,v,7.315016162399843,264.0951141985606,None,t,8.674027345037757,264.0951141985606,None,7.315016162399843,8.674027345037757,10,False,False,False,272.82628942321026,None,272.82628942321026,None,272.82628942321026,None,272.82628942321026,None,272.82628942321026,None,272.82628942321026,None,273.8427546359635,None,273.8427546359635,None,h,,,,,,,,,,,,,,,,,,,,,,,,,,,5_6,001,2021_Apr_07_1600,ComputerHuman,2020.1.3,60.064526445520016,
Human.xlsx,h,Sychronize.jpg,Number6.jpg,6,Human,,,,,0,0,0,4,0,1,1,1,,,,,,,,,,,,,,,,,,,,,,,,,,,,,,,,,,,,,,,,,,,,,,,,,,,,,,,,,274.8925063377683,None,274.8925063377683,None,275.32569742745545,None,275.32569742745545,None,v,4.435717537027813,275.32569742745545,None,t,4.719447902607499,275.32569742745545,None,4.435717537027813,4.719447902607499,6,True,False,False,280.1245311428902,None,280.1245311428902,None,280.1245311428902,None,280.1245311428902,None,280.1245311428902,None,280.1245311428902,None,281.1242985788558,None,281.1242985788558,None,h,,,,,,,,,,,,,,,,,,,,,,,,,,,5_6,001,2021_Apr_07_1600,ComputerHuman,2020.1.3,60.064526445520016,
Human.xlsx,h,Sychronize.jpg,Number7.jpg,7,Human,,,,,0,0,0,4,0,2,2,2,,,,,,,,,,,,,,,,,,,,,,,,,,,,,,,,,,,,,,,,,,,,,,,,,,,,,,,,,282.1738340763077,None,282.1738340763077,None,282.6239365809088,None,282.6239365809088,None,v,5.132936808982777,282.6239365809088,None,t,5.532245083359157,282.6239365809088,None,5.132936808982777,5.532245083359157,7,False,False,False,288.20589262726935,None,288.20589262726935,None,288.20589262726935,None,288.20589262726935,None,288.20589262726935,None,288.20589262726935,None,289.20567000735537,None,289.20567000735537,None,h,,,,,,,,,,,,,,,,,,,,,,,,,,,5_6,001,2021_Apr_07_1600,ComputerHuman,2020.1.3,60.064526445520016,
Human.xlsx,h,Sychronize.jpg,Number8.jpg,8,Human,,,,,0,0,0,4,0,3,3,4,,,,,,,,,,,,,,,,,,,,,,,,,,,,,,,,,,,,,,,,,,,,,,,,,,,,,,,,,290.271858372671,None,290.271858372671,None,290.7052855549482,None,290.7052855549482,None,v,5.626982047018828,290.7052855549482,None,t,6.24620960723405,290.7052855549482,None,5.626982047018828,6.24620960723405,8,False,False,False,297.02045921933313,None,297.02045921933313,None,297.02045921933313,None,297.02045921933313,None,297.02045921933313,None,297.02045921933313,None,298.0201827087185,None,298.0201827087185,None,h,,,,,,,,,,,,,,,,,,,,,,,,,,,5_6,001,2021_Apr_07_1600,ComputerHuman,2020.1.3,60.064526445520016,
Human.xlsx,h,Sychronize.jpg,Number6.jpg,6,Human,,,,,0,0,0,4,0,4,4,0,,,,,,,,,,,,,,,,,,,,,,,,,,,,,,,,,,,,,,,,,,,,,,,,,,,,,,,,,299.0699225417411,None,299.0699225417411,None,299.5197998602016,None,299.5197998602016,None,v,3.815940804914135,299.5197998602016,None,t,4.443374186546862,299.5197998602016,None,3.815940804914135,4.443374186546862,6,False,False,False,304.0187366415994,None,304.0187366415994,None,304.0187366415994,None,304.0187366415994,None,304.0187366415994,None,304.0187366415994,None,305.0185188333526,None,305.0185188333526,None,h,,,,,,,,,,,,,,,,,,,,,,,,,,,5_6,001,2021_Apr_07_1600,ComputerHuman,2020.1.3,60.064526445520016,
Human.xlsx,h,Sychronize.jpg,Number9.jpg,9,Human,,,,,0,0,0,4,0,5,5,6,,,,,,,,,,,,,,,,,,,,,,,,,,,,,,,,,,,,,,,,,,,,,,,,,,,,,,,,,306.08483486830664,None,306.08483486830664,None,306.5181683834162,None,306.5181683834162,None,v,6.080917206883896,306.5181683834162,None,t,6.520212701463606,306.5181683834162,None,6.080917206883896,6.520212701463606,9,False,False,False,313.116523241486,None,313.116523241486,None,313.116523241486,None,313.116523241486,None,313.116523241486,None,313.116523241486,None,314.11629484756486,None,314.11629484756486,None,h,,,,,,,,,,,,,,,,,,,,,,,,,,,5_6,001,2021_Apr_07_1600,ComputerHuman,2020.1.3,60.064526445520016,
Human.xlsx,h,Sychronize.jpg,Number7.jpg,7,Human,,,,,0,0,0,4,0,6,6,3,,,,,,,,,,,,,,,,,,,,,,,,,,,,,,,,,,,,,,,,,,,,,,,,,,,,,,,,,315.16575079207905,None,315.16575079207905,None,315.6159299626197,None,315.6159299626197,None,v,4.850516179878468,315.6159299626197,None,t,4.5453318624568055,315.6159299626197,None,4.850516179878468,4.5453318624568055,7,False,False,False,320.53139277626906,None,320.53139277626906,None,320.53139277626906,None,320.53139277626906,None,320.53139277626906,None,320.53139277626906,None,321.5477691335218,None,321.5477691335218,None,h,,,,,,,,,,,,,,,,,,,,,,,,,,,5_6,001,2021_Apr_07_1600,ComputerHuman,2020.1.3,60.064526445520016,
Human.xlsx,h,Sychronize.jpg,Number9.jpg,9,Human,,,,,0,0,0,4,0,7,7,7,,,,,,,,,,,,,,,,,,,,,,,,,,,,,,,,,,,,,,,,,,,,,,,,,,,,,,,,,322.59733318021244,None,322.59733318021244,None,323.03077447671967,None,323.03077447671967,None,v,4.763146203222277,323.03077447671967,None,t,6.406242531887983,323.03077447671967,None,4.763146203222277,6.406242531887983,9,False,False,False,329.5125258988119,None,329.5125258988119,None,329.5125258988119,None,329.5125258988119,None,329.5125258988119,None,329.5125258988119,None,330.51225933231035,None,330.51225933231035,None,h,,,,,,,,,,,,,,,,,,,,,,,,,,,5_6,001,2021_Apr_07_1600,ComputerHuman,2020.1.3,60.064526445520016,
Human.xlsx,h,Sychronize.jpg,Number10.jpg,10,Human,,,,,0,0,0,4,0,8,8,9,,,,,,,,,,,,,,,,,,,,,,,,,,,,,,,,,,,,,,,,,,,,,,,,,,,,,,,,,331.5620139211205,None,331.5620139211205,None,332.01192909138626,None,332.01192909138626,None,v,6.497210675104725,332.01192909138626,None,t,7.456158151242562,332.01192909138626,None,6.497210675104725,7.456158151242562,10,False,False,False,339.52676042151506,None,339.52676042151506,None,339.52676042151506,None,339.52676042151506,None,339.52676042151506,None,339.52676042151506,None,340.52640981118384,None,340.52640981118384,None,h,,,,,,,,,,,,,,,,,,,,,,,,,,,5_6,001,2021_Apr_07_1600,ComputerHuman,2020.1.3,60.064526445520016,
Human.xlsx,h,Sychronize.jpg,Number8.jpg,8,Human,,,,,0,0,0,4,0,9,9,5,,,,,,,,,,,,,,,,,,,,,,,,,,,,,,,,,,,,,,,,,,,,,,,,,,,,,,,,,341.5926514256462,None,341.5926514256462,None,342.02611132727907,None,342.02611132727907,None,v,4.850348733776627,342.02611132727907,None,t,5.597362050233642,342.02611132727907,None,4.850348733776627,5.597362050233642,8,False,False,False,347.69142377625394,None,347.69142377625394,None,347.69142377625394,None,347.69142377625394,None,347.69142377625394,None,347.69142377625394,None,348.69119666544793,None,348.69119666544793,None,h,,,,,,,,,,,,,,,,,,,,,,,,,,,5_6,001,2021_Apr_07_1600,ComputerHuman,2020.1.3,60.064526445520016,
Human.xlsx,h,,,,,,,,,0,0,0,4,,,,,,,,,,,,,,,,,,,,,,,,,,,,,,,,,,,,,,,,,,,,,,,,,,,,,,,,,,,,,,,,,,,,,,,,,,,,,,,,,,,,,,,,,,,,,,,,,,,h,349.6908710757998,None,349.6908710757998,None,a,0,8.30078099813909,349.6908710757998,None,l,0,15.239530368213309,349.6908710757998,None,c,c,364.9872606234421,None,None,None,None,None,None,,,,5_6,001,2021_Apr_07_1600,ComputerHuman,2020.1.3,60.064526445520016,
Human.xlsx,h,Sychronize.jpg,Number10.jpg,10,Human,,,,,0,1,1,8,0,0,0,9,,,,,,,,,,,,,,,,,,,,,,,,,,,,,,,,,,,,,,,,,,,,,,,,,,,,,370.00263647418615,None,370.00263647418615,None,373.06834367254123,None,373.06834367254123,None,373.5017535328079,None,373.5017535328079,None,v,7.284187474197097,373.5017535328079,None,t,7.0552694037796755,373.5017535328079,None,7.284187474197097,7.0552694037796755,10,True,False,False,380.8666933340064,None,380.8666933340064,None,380.8666933340064,None,380.8666933340064,None,380.8666933340064,None,380.8666933340064,None,381.8664296545103,None,381.8664296545103,None,h,,,,,,,,,,,,,,,,,,,,,,,,,,,5_6,001,2021_Apr_07_1600,ComputerHuman,2020.1.3,60.064526445520016,
Human.xlsx,h,Sychronize.jpg,Number7.jpg,7,Human,,,,,0,1,1,8,0,1,1,2,,,,,,,,,,,,,,,,,,,,,,,,,,,,,,,,,,,,,,,,,,,,,,,,,,,,,,,,,382.9161685252002,None,382.9161685252002,None,383.366136944609,None,383.366136944609,None,v,4.119254024401016,383.366136944609,None,t,4.61033655704523,383.366136944609,None,4.119254024401016,4.61033655704523,7,False,False,False,388.03160882023803,None,388.03160882023803,None,388.03160882023803,None,388.03160882023803,None,388.03160882023803,None,388.03160882023803,None,389.0313021564907,None,389.0313021564907,None,h,,,,,,,,,,,,,,,,,,,,,,,,,,,5_6,001,2021_Apr_07_1600,ComputerHuman,2020.1.3,60.064526445520016,
Human.xlsx,h,Sychronize.jpg,Number8.jpg,8,Human,,,,,0,1,1,8,0,2,2,5,,,,,,,,,,,,,,,,,,,,,,,,,,,,,,,,,,,,,,,,,,,,,,,,,,,,,,,,,390.09748506858523,None,390.09748506858523,None,390.5310078426992,None,390.5310078426992,None,v,4.793833428335347,390.5310078426992,None,t,5.157290272953105,390.5310078426992,None,4.793833428335347,5.157290272953105,8,False,False,False,395.76304579971475,None,395.76304579971475,None,395.76304579971475,None,395.76304579971475,None,395.76304579971475,None,395.76304579971475,None,396.76278725266457,None,396.76278725266457,None,h,,,,,,,,,,,,,,,,,,,,,,,,,,,5_6,001,2021_Apr_07_1600,ComputerHuman,2020.1.3,60.064526445520016,
Human.xlsx,h,Sychronize.jpg,Number9.jpg,9,Human,,,,,0,1,1,8,0,3,3,7,,,,,,,,,,,,,,,,,,,,,,,,,,,,,,,,,,,,,,,,,,,,,,,,,,,,,,,,,397.8122900307644,None,397.8122900307644,None,398.2624303871671,None,398.2624303871671,None,v,4.725857367353456,398.2624303871671,None,t,5.853245679682004,398.2624303871671,None,4.725857367353456,5.853245679682004,9,False,False,False,404.177673788683,None,404.177673788683,None,404.177673788683,None,404.177673788683,None,404.177673788683,None,404.177673788683,None,405.17739086251095,None,405.17739086251095,None,h,,,,,,,,,,,,,,,,,,,,,,,,,,,5_6,001,2021_Apr_07_1600,ComputerHuman,2020.1.3,60.064526445520016,
Human.xlsx,h,Sychronize.jpg,Number9.jpg,9,Human,,,,,0,1,1,8,0,4,4,6,,,,,,,,,,,,,,,,,,,,,,,,,,,,,,,,,,,,,,,,,,,,,,,,,,,,,,,,,406.22690069772216,None,406.22690069772216,None,406.67705773458147,None,406.67705773458147,None,v,6.402369779378205,406.67705773458147,None,t,6.714202861916419,406.67705773458147,None,6.402369779378205,6.714202861916419,9,False,False,False,413.45877024629954,None,413.45877024629954,None,413.45877024629954,None,413.45877024629954,None,413.45877024629954,None,413.45877024629954,None,414.458511699253,None,414.458511699253,None,h,,,,,,,,,,,,,,,,,,,,,,,,,,,5_6,001,2021_Apr_07_1600,ComputerHuman,2020.1.3,60.064526445520016,
Human.xlsx,h,Sychronize.jpg,Number6.jpg,6,Human,,,,,0,1,1,8,0,5,5,0,,,,,,,,,,,,,,,,,,,,,,,,,,,,,,,,,,,,,,,,,,,,,,,,,,,,,,,,,415.5248841911307,None,415.5248841911307,None,415.9581015846088,None,415.9581015846088,None,v,4.0168462969850225,415.9581015846088,None,t,4.680300799926044,415.9581015846088,None,4.0168462969850225,4.680300799926044,6,False,False,False,420.69033537658106,None,420.69033537658106,None,420.69033537658106,None,420.69033537658106,None,420.69033537658106,None,420.69033537658106,None,421.6900056168197,None,421.6900056168197,None,h,,,,,,,,,,,,,,,,,,,,,,,,,,,5_6,001,2021_Apr_07_1600,ComputerHuman,2020.1.3,60.064526445520016,
Human.xlsx,h,Sychronize.jpg,Number8.jpg,8,Human,,,,,0,1,1,8,0,6,6,4,,,,,,,,,,,,,,,,,,,,,,,,,,,,,,,,,,,,,,,,,,,,,,,,,,,,,,,,,422.75625075984135,None,422.75625075984135,None,423.18964971365494,None,423.18964971365494,None,v,5.4047021560472785,423.18964971365494,None,t,5.70026185106326,423.18964971365494,None,5.4047021560472785,5.70026185106326,8,True,False,False,428.9549929252389,None,428.9549929252389,None,428.9549929252389,None,428.9549929252389,None,428.9549929252389,None,428.9549929252389,None,429.95474175608615,None,429.95474175608615,None,h,,,,,,,,,,,,,,,,,,,,,,,,,,,5_6,001,2021_Apr_07_1600,ComputerHuman,2020.1.3,60.064526445520016,
Human.xlsx,h,Sychronize.jpg,Number6.jpg,6,Human,,,,,0,1,1,8,0,7,7,1,,,,,,,,,,,,,,,,,,,,,,,,,,,,,,,,,,,,,,,,,,,,,,,,,,,,,,,,,431.00440973484,None,431.00440973484,None,431.454473104528,None,431.454473104528,None,v,3.8753732652730832,431.454473104528,None,t,3.9623775550353457,431.454473104528,None,3.8753732652730832,3.9623775550353457,6,True,False,False,435.47011071010274,None,435.47011071010274,None,435.47011071010274,None,435.47011071010274,None,435.47011071010274,None,435.47011071010274,None,436.48643991299105,None,436.48643991299105,None,h,,,,,,,,,,,,,,,,,,,,,,,,,,,5_6,001,2021_Apr_07_1600,ComputerHuman,2020.1.3,60.064526445520016,
Human.xlsx,h,Sychronize.jpg,Number10.jpg,10,Human,,,,,0,1,1,8,0,8,8,8,,,,,,,,,,,,,,,,,,,,,,,,,,,,,,,,,,,,,,,,,,,,,,,,,,,,,,,,,437.5363003585335,None,437.5363003585335,None,437.9861289187429,None,437.9861289187429,None,v,5.995046867265046,437.9861289187429,None,t,7.10617398163231,437.9861289187429,None,5.995046867265046,7.10617398163231,10,False,False,False,445.1676097004529,None,445.1676097004529,None,445.1676097004529,None,445.1676097004529,None,445.1676097004529,None,445.1676097004529,None,446.1674406504608,None,446.1674406504608,None,h,,,,,,,,,,,,,,,,,,,,,,,,,,,5_6,001,2021_Apr_07_1600,ComputerHuman,2020.1.3,60.064526445520016,
Human.xlsx,h,Sychronize.jpg,Number7.jpg,7,Human,,,,,0,1,1,8,0,9,9,3,,,,,,,,,,,,,,,,,,,,,,,,,,,,,,,,,,,,,,,,,,,,,,,,,,,,,,,,,447.21685008216446,None,447.21685008216446,None,447.6672069637025,None,447.6672069637025,None,v,4.761359149117197,447.6672069637025,None,t,5.136850300299557,447.6672069637025,None,4.761359149117197,5.136850300299557,7,False,False,False,452.8658336490298,None,452.8658336490298,None,452.8658336490298,None,452.8658336490298,None,452.8658336490298,None,452.8658336490298,None,453.8822523489762,None,453.8822523489762,None,h,,,,,,,,,,,,,,,,,,,,,,,,,,,5_6,001,2021_Apr_07_1600,ComputerHuman,2020.1.3,60.064526445520016,
Human.xlsx,h,,,,,,,,,0,1,1,8,,,,,,,,,,,,,,,,,,,,,,,,,,,,,,,,,,,,,,,,,,,,,,,,,,,,,,,,,,,,,,,,,,,,,,,,,,,,,,,,,,,,,,,,,,,,,,,,,,,h,454.88197744224817,None,454.88197744224817,None,q,1,3.174344434071827,454.88197744224817,None,l,0,12.892736014804541,454.88197744224817,None,h,c,467.82877384863605,None,None,None,None,None,None,,,,5_6,001,2021_Apr_07_1600,ComputerHuman,2020.1.3,60.064526445520016,
Computer.xlsx,c,Sychronize.jpg,Number9.jpg,9,Computer,,,,,0,2,2,3,0,0,0,6,,,,,,,,,,,,,,,,,,,,,,,,,,,,,,,,,,,,,,,,,,,,,,,,,,,,,472.84432420260055,None,472.84432420260055,None,475.90999451148673,None,475.90999451148673,None,476.343451846893,None,476.343451846893,None,v,5.386908922471775,476.343451846893,None,t,6.402202654051507,476.343451846893,None,5.386908922471775,6.402202654051507,9,False,False,False,482.825153227619,None,482.825153227619,None,482.825153227619,None,482.825153227619,None,482.825153227619,None,482.825153227619,None,483.8249142480272,None,483.8249142480272,None,c,,,,,,,,,,,,,,,,,,,,,,,,,,,5_6,001,2021_Apr_07_1600,ComputerHuman,2020.1.3,60.064526445520016,
Computer.xlsx,c,Sychronize.jpg,Number8.jpg,8,Computer,,,,,0,2,2,3,0,1,1,5,,,,,,,,,,,,,,,,,,,,,,,,,,,,,,,,,,,,,,,,,,,,,,,,,,,,,,,,,484.8577741023728,None,484.8577741023728,None,485.3245961966604,None,485.3245961966604,None,v,5.809080967886985,485.3245961966604,None,t,5.224301754558837,485.3245961966604,None,5.809080967886985,5.224301754558837,8,False,False,False,491.18983448177096,None,491.18983448177096,None,491.18983448177096,None,491.18983448177096,None,491.18983448177096,None,491.18983448177096,None,492.18958908661807,None,492.18958908661807,None,c,,,,,,,,,,,,,,,,,,,,,,,,,,,5_6,001,2021_Apr_07_1600,ComputerHuman,2020.1.3,60.064526445520016,
Computer.xlsx,c,Sychronize.jpg,Number10.jpg,10,Computer,,,,,0,2,2,3,0,2,2,8,,,,,,,,,,,,,,,,,,,,,,,,,,,,,,,,,,,,,,,,,,,,,,,,,,,,,,,,,493.2556825016545,None,493.2556825016545,None,493.6890593217904,None,493.6890593217904,None,v,6.515991584070434,493.6890593217904,None,t,7.751051911178365,493.6890593217904,None,6.515991584070434,7.751051911178365,10,False,False,False,501.50397203328976,None,501.50397203328976,None,501.50397203328976,None,501.50397203328976,None,501.50397203328976,None,501.50397203328976,None,502.52030059462413,None,502.52030059462413,None,c,,,,,,,,,,,,,,,,,,,,,,,,,,,5_6,001,2021_Apr_07_1600,ComputerHuman,2020.1.3,60.064526445520016,
Computer.xlsx,c,Sychronize.jpg,Number6.jpg,6,Computer,,,,,0,2,2,3,0,3,3,0,,,,,,,,,,,,,,,,,,,,,,,,,,,,,,,,,,,,,,,,,,,,,,,,,,,,,,,,,503.5531280503965,None,503.5531280503965,None,504.02005054819165,None,504.02005054819165,None,v,4.164400637579092,504.02005054819165,None,t,4.459561926349124,504.02005054819165,None,4.164400637579092,4.459561926349124,6,False,False,False,508.5356289702286,None,508.5356289702286,None,508.5356289702286,None,508.5356289702286,None,508.5356289702286,None,508.5356289702286,None,509.53527868067613,None,509.53527868067613,None,c,,,,,,,,,,,,,,,,,,,,,,,,,,,5_6,001,2021_Apr_07_1600,ComputerHuman,2020.1.3,60.064526445520016,
Computer.xlsx,c,Sychronize.jpg,Number8.jpg,8,Computer,,,,,0,2,2,3,0,4,4,4,,,,,,,,,,,,,,,,,,,,,,,,,,,,,,,,,,,,,,,,,,,,,,,,,,,,,,,,,510.6015340885933,None,510.6015340885933,None,511.03499078244204,None,511.03499078244204,None,v,5.484774433738494,511.03499078244204,None,t,5.328315938080777,511.03499078244204,None,5.484774433738494,5.328315938080777,8,False,False,False,516.5837042863313,None,516.5837042863313,None,516.5837042863313,None,516.5837042863313,None,516.5837042863313,None,516.5837042863313,None,517.6000508112302,None,517.6000508112302,None,c,,,,,,,,,,,,,,,,,,,,,,,,,,,5_6,001,2021_Apr_07_1600,ComputerHuman,2020.1.3,60.064526445520016,
Computer.xlsx,c,Sychronize.jpg,Number9.jpg,9,Computer,,,,,0,2,2,3,0,5,5,7,,,,,,,,,,,,,,,,,,,,,,,,,,,,,,,,,,,,,,,,,,,,,,,,,,,,,,,,,518.6498843114205,None,518.6498843114205,None,519.0996820769469,None,519.0996820769469,None,v,5.975429048561637,519.0996820769469,None,t,6.318132841217448,519.0996820769469,None,5.975429048561637,6.318132841217448,9,False,False,False,525.4814794023623,None,525.4814794023623,None,525.4814794023623,None,525.4814794023623,None,525.4814794023623,None,525.4814794023623,None,526.4812359318785,None,526.4812359318785,None,c,,,,,,,,,,,,,,,,,,,,,,,,,,,5_6,001,2021_Apr_07_1600,ComputerHuman,2020.1.3,60.064526445520016,
Computer.xlsx,c,Sychronize.jpg,Number6.jpg,6,Computer,,,,,0,2,2,3,0,6,6,1,,,,,,,,,,,,,,,,,,,,,,,,,,,,,,,,,,,,,,,,,,,,,,,,,,,,,,,,,527.547335762476,None,527.547335762476,None,527.980863027482,None,527.980863027482,None,v,4.613706971242209,527.980863027482,None,t,4.953223513923149,527.980863027482,None,4.613706971242209,4.953223513923149,6,False,False,False,532.9962584456807,None,532.9962584456807,None,532.9962584456807,None,532.9962584456807,None,532.9962584456807,None,532.9962584456807,None,534.0127496414498,None,534.0127496414498,None,c,,,,,,,,,,,,,,,,,,,,,,,,,,,5_6,001,2021_Apr_07_1600,ComputerHuman,2020.1.3,60.064526445520016,
Computer.xlsx,c,Sychronize.jpg,Number7.jpg,7,Computer,,,,,0,2,2,3,0,7,7,3,,,,,,,,,,,,,,,,,,,,,,,,,,,,,,,,,,,,,,,,,,,,,,,,,,,,,,,,,535.0624894744724,None,535.0624894744724,None,535.5123270164659,None,535.5123270164659,None,v,4.677664325736259,535.5123270164659,None,t,4.989444479910162,535.5123270164659,None,4.677664325736259,4.989444479910162,7,False,False,False,540.5611356310219,None,540.5611356310219,None,540.5611356310219,None,540.5611356310219,None,540.5611356310219,None,540.5611356310219,None,541.5608180608251,None,541.5608180608251,None,c,,,,,,,,,,,,,,,,,,,,,,,,,,,5_6,001,2021_Apr_07_1600,ComputerHuman,2020.1.3,60.064526445520016,
Computer.xlsx,c,Sychronize.jpg,Number10.jpg,10,Computer,,,,,0,2,2,3,0,8,8,9,,,,,,,,,,,,,,,,,,,,,,,,,,,,,,,,,,,,,,,,,,,,,,,,,,,,,,,,,542.6102954974631,None,542.6102954974631,None,543.0604095500712,None,543.0604095500712,None,v,7.0808812797477,543.0604095500712,None,t,7.4520839501637965,543.0604095500712,None,7.0808812797477,7.4520839501637965,10,False,False,False,550.5752973371236,None,550.5752973371236,None,550.5752973371236,None,550.5752973371236,None,550.5752973371236,None,550.5752973371236,None,551.5917336798557,None,551.5917336798557,None,c,,,,,,,,,,,,,,,,,,,,,,,,,,,5_6,001,2021_Apr_07_1600,ComputerHuman,2020.1.3,60.064526445520016,
Computer.xlsx,c,Sychronize.jpg,Number7.jpg,7,Computer,,,,,0,2,2,3,0,9,9,2,,,,,,,,,,,,,,,,,,,,,,,,,,,,,,,,,,,,,,,,,,,,,,,,,,,,,,,,,552.6415264412462,None,552.6415264412462,None,553.0913976649281,None,553.0913976649281,None,v,7.285044272175583,553.0913976649281,None,t,6.188381036761712,553.0913976649281,None,7.285044272175583,6.188381036761712,7,False,True,False,560.4396358400081,None,560.4396358400081,None,560.4396358400081,None,560.4396358400081,None,560.4396358400081,None,560.4396358400081,None,561.4393173074786,None,561.4393173074786,None,c,,,,,,,,,,,,,,,,,,,,,,,,,,,5_6,001,2021_Apr_07_1600,ComputerHuman,2020.1.3,60.064526445520016,
Computer.xlsx,c,,,,,,,,,0,2,2,3,,,,,,,,,,,,,,,,,,,,,,,,,,,,,,,,,,,,,,,,,,,,,,,,,,,,,,,,,,,,,,,,,,,,,,,,,,,,,,,,,,,,,,,,,,,,,,,,,,,c,562.4390982161203,None,562.4390982161203,None,q,0,2.5770628991049307,562.4390982161203,None,o,0,4.020416555864358,562.4390982161203,None,h,h,566.5213883527431,None,None,None,None,None,None,,,,5_6,001,2021_Apr_07_1600,ComputerHuman,2020.1.3,60.064526445520016,
Human.xlsx,h,Sychronize.jpg,Number10.jpg,10,Human,,,,,0,3,3,0,0,0,0,8,,,,,,,,,,,,,,,,,,,,,,,,,,,,,,,,,,,,,,,,,,,,,,,,,,,,,571.5370140895284,None,571.5370140895284,None,574.6026080532574,None,574.6026080532574,None,575.0360503120974,None,575.0360503120974,None,v,6.310877484946104,575.0360503120974,None,t,7.75415062643151,575.0360503120974,None,6.310877484946104,7.75415062643151,10,False,False,False,582.8674670504879,None,582.8674670504879,None,582.8674670504879,None,582.8674670504879,None,582.8674670504879,None,582.8674670504879,None,583.8672447513491,None,583.8672447513491,None,h,,,,,,,,,,,,,,,,,,,,,,,,,,,5_6,001,2021_Apr_07_1600,ComputerHuman,2020.1.3,60.064526445520016,
Human.xlsx,h,Sychronize.jpg,Number8.jpg,8,Human,,,,,0,3,3,0,0,1,1,5,,,,,,,,,,,,,,,,,,,,,,,,,,,,,,,,,,,,,,,,,,,,,,,,,,,,,,,,,584.9169926038194,None,584.9169926038194,None,585.3669068117524,None,585.3669068117524,None,v,6.871193849019619,585.3669068117524,None,t,5.786219442288711,585.3669068117524,None,6.871193849019619,5.786219442288711,8,False,False,False,592.2984617733673,None,592.2984617733673,None,592.2984617733673,None,592.2984617733673,None,592.2984617733673,None,592.2984617733673,None,593.2982965727097,None,593.2982965727097,None,h,,,,,,,,,,,,,,,,,,,,,,,,,,,5_6,001,2021_Apr_07_1600,ComputerHuman,2020.1.3,60.064526445520016,
Human.xlsx,h,Sychronize.jpg,Number10.jpg,10,Human,,,,,0,3,3,0,0,2,2,9,,,,,,,,,,,,,,,,,,,,,,,,,,,,,,,,,,,,,,,,,,,,,,,,,,,,,,,,,594.3646645736953,None,594.3646645736953,None,594.797859512717,None,594.797859512717,None,v,6.831631338853185,594.797859512717,None,t,7.827117671946326,594.797859512717,None,6.831631338853185,7.827117671946326,10,False,False,False,602.6792720649537,None,602.6792720649537,None,602.6792720649537,None,602.6792720649537,None,602.6792720649537,None,602.6792720649537,None,603.6957324660325,None,603.6957324660325,None,h,,,,,,,,,,,,,,,,,,,,,,,,,,,5_6,001,2021_Apr_07_1600,ComputerHuman,2020.1.3,60.064526445520016,
Human.xlsx,h,Sychronize.jpg,Number7.jpg,7,Human,,,,,0,3,3,0,0,3,3,2,,,,,,,,,,,,,,,,,,,,,,,,,,,,,,,,,,,,,,,,,,,,,,,,,,,,,,,,,604.7285326556776,None,604.7285326556776,None,605.1786929003138,None,605.1786929003138,None,v,5.614015880433726,605.1786929003138,None,t,5.777293474318867,605.1786929003138,None,5.614015880433726,5.777293474318867,7,True,False,False,611.0106610560433,None,611.0106610560433,None,611.0106610560433,None,611.0106610560433,None,611.0106610560433,None,611.0106610560433,None,612.0103364287315,None,612.0103364287315,None,h,,,,,,,,,,,,,,,,,,,,,,,,,,,5_6,001,2021_Apr_07_1600,ComputerHuman,2020.1.3,60.064526445520016,
Human.xlsx,h,Sychronize.jpg,Number9.jpg,9,Human,,,,,0,3,3,0,0,4,4,7,,,,,,,,,,,,,,,,,,,,,,,,,,,,,,,,,,,,,,,,,,,,,,,,,,,,,,,,,613.0764522982281,None,613.0764522982281,None,613.5266763776817,None,613.5266763776817,None,v,6.849299789795623,613.5266763776817,None,t,6.804232087997661,613.5266763776817,None,6.849299789795623,6.804232087997661,9,True,False,False,620.4250138175084,None,620.4250138175084,None,620.4250138175084,None,620.4250138175084,None,620.4250138175084,None,620.4250138175084,None,621.4414219317805,None,621.4414219317805,None,h,,,,,,,,,,,,,,,,,,,,,,,,,,,5_6,001,2021_Apr_07_1600,ComputerHuman,2020.1.3,60.064526445520016,
Human.xlsx,h,Sychronize.jpg,Number9.jpg,9,Human,,,,,0,3,3,0,0,5,5,6,,,,,,,,,,,,,,,,,,,,,,,,,,,,,,,,,,,,,,,,,,,,,,,,,,,,,,,,,622.4909022554202,None,622.4909022554202,None,622.9242550172057,None,622.9242550172057,None,v,5.847126519001904,622.9242550172057,None,t,7.454220652263757,622.9242550172057,None,5.847126519001904,7.454220652263757,9,False,False,False,630.4558874146278,None,630.4558874146278,None,630.4558874146278,None,630.4558874146278,None,630.4558874146278,None,630.4558874146278,None,631.4556619077084,None,631.4556619077084,None,h,,,,,,,,,,,,,,,,,,,,,,,,,,,5_6,001,2021_Apr_07_1600,ComputerHuman,2020.1.3,60.064526445520016,
Human.xlsx,h,Sychronize.jpg,Number6.jpg,6,Human,,,,,0,3,3,0,0,6,6,0,,,,,,,,,,,,,,,,,,,,,,,,,,,,,,,,,,,,,,,,,,,,,,,,,,,,,,,,,632.5051653273622,None,632.5051653273622,None,632.9552902864234,None,632.9552902864234,None,v,3.959485741579556,632.9552902864234,None,t,4.250381645597372,632.9552902864234,None,3.959485741579556,4.250381645597372,6,True,False,False,637.2709162477549,None,637.2709162477549,None,637.2709162477549,None,637.2709162477549,None,637.2709162477549,None,637.2709162477549,None,638.2872624518786,None,638.2872624518786,None,h,,,,,,,,,,,,,,,,,,,,,,,,,,,5_6,001,2021_Apr_07_1600,ComputerHuman,2020.1.3,60.064526445520016,
Human.xlsx,h,Sychronize.jpg,Number8.jpg,8,Human,,,,,0,3,3,0,0,7,7,4,,,,,,,,,,,,,,,,,,,,,,,,,,,,,,,,,,,,,,,,,,,,,,,,,,,,,,,,,639.3201710644789,None,639.3201710644789,None,639.7703261766692,None,639.7703261766692,None,v,5.8117623509933765,639.7703261766692,None,t,6.711180812602834,639.7703261766692,None,5.8117623509933765,6.711180812602834,8,False,False,False,646.5519671549009,None,646.5519671549009,None,646.5519671549009,None,646.5519671549009,None,646.5519671549009,None,646.5519671549009,None,647.5517015507357,None,647.5517015507357,None,h,,,,,,,,,,,,,,,,,,,,,,,,,,,5_6,001,2021_Apr_07_1600,ComputerHuman,2020.1.3,60.064526445520016,
Human.xlsx,h,Sychronize.jpg,Number6.jpg,6,Human,,,,,0,3,3,0,0,8,8,1,,,,,,,,,,,,,,,,,,,,,,,,,,,,,,,,,,,,,,,,,,,,,,,,,,,,,,,,,648.5845960491024,None,648.5845960491024,None,649.051366818916,None,649.051366818916,None,v,3.9541095026943367,649.051366818916,None,t,4.577289368360653,649.051366818916,None,3.9541095026943367,4.577289368360653,6,False,False,False,653.6830482632904,None,653.6830482632904,None,653.6830482632904,None,653.6830482632904,None,653.6830482632904,None,653.6830482632904,None,654.683157648582,None,654.683157648582,None,h,,,,,,,,,,,,,,,,,,,,,,,,,,,5_6,001,2021_Apr_07_1600,ComputerHuman,2020.1.3,60.064526445520016,
Human.xlsx,h,Sychronize.jpg,Number7.jpg,7,Human,,,,,0,3,3,0,0,9,9,3,,,,,,,,,,,,,,,,,,,,,,,,,,,,,,,,,,,,,,,,,,,,,,,,,,,,,,,,,655.749567029925,None,655.749567029925,None,656.1829316604963,None,656.1829316604963,None,v,4.690072659417638,656.1829316604963,None,t,5.349277495723072,656.1829316604963,None,4.690072659417638,5.349277495723072,7,False,False,False,661.5817234823262,None,661.5817234823262,None,661.5817234823262,None,661.5817234823262,None,661.5817234823262,None,661.5817234823262,None,662.5980571761065,None,662.5980571761065,None,h,,,,,,,,,,,,,,,,,,,,,,,,,,,5_6,001,2021_Apr_07_1600,ComputerHuman,2020.1.3,60.064526445520016,
Human.xlsx,h,,,,,,,,,0,3,3,0,,,,,,,,,,,,,,,,,,,,,,,,,,,,,,,,,,,,,,,,,,,,,,,,,,,,,,,,,,,,,,,,,,,,,,,,,,,,,,,,,,,,,,,,,,,,,,,,,,,h,663.5978011952793,None,663.5978011952793,None,a,0,2.6027017204287404,663.5978011952793,None,o,1,5.502222510211141,663.5978011952793,None,c,h,None,None,669.1634071881854,None,"['space', 'space']",670.1462433209999,None,"[5.50962414123569, 10.801257513823657]",,,5_6,001,2021_Apr_07_1600,ComputerHuman,2020.1.3,60.064526445520016,
Computer.xlsx,c,Sychronize.jpg,Number6.jpg,6,Computer,,,,,0,4,4,5,0,0,0,0,,,,,,,,,,,,,,,,,,,,,,,,,,,,,,,,,,,,,,,,,,,,,,,,,,,,,681.0102437238966,None,681.0102437238966,None,684.0925563149794,None,684.0925563149794,None,684.526131055125,None,684.526131055125,None,v,4.292743585163407,684.526131055125,None,t,5.076322062370309,684.526131055125,None,4.292743585163407,5.076322062370309,6,False,False,False,689.6581472313155,None,689.6581472313155,None,689.6581472313155,None,689.6581472313155,None,689.6581472313155,None,689.6581472313155,None,690.6579104971679,None,690.6579104971679,None,c,,,,,,,,,,,,,,,,,,,,,,,,,,,5_6,001,2021_Apr_07_1600,ComputerHuman,2020.1.3,60.064526445520016,
Computer.xlsx,c,Sychronize.jpg,Number10.jpg,10,Computer,,,,,0,4,4,5,0,1,1,9,,,,,,,,,,,,,,,,,,,,,,,,,,,,,,,,,,,,,,,,,,,,,,,,,,,,,,,,,691.7240151394362,None,691.7240151394362,None,692.1574962124105,None,692.1574962124105,None,v,9.152338744112058,692.1574962124105,None,t,7.776131937265745,692.1574962124105,None,9.152338744112058,7.776131937265745,10,False,False,False,701.3719680466638,None,701.3719680466638,None,701.3719680466638,None,701.3719680466638,None,701.3719680466638,None,701.3719680466638,None,702.3884290893002,None,702.3884290893002,None,c,,,,,,,,,,,,,,,,,,,,,,,,,,,5_6,001,2021_Apr_07_1600,ComputerHuman,2020.1.3,60.064526445520016,
Computer.xlsx,c,Sychronize.jpg,Number8.jpg,8,Computer,,,,,0,4,4,5,0,2,2,4,,,,,,,,,,,,,,,,,,,,,,,,,,,,,,,,,,,,,,,,,,,,,,,,,,,,,,,,,703.4210990430838,None,703.4210990430838,None,703.8880276356613,None,703.8880276356613,None,v,7.289309015370236,703.8880276356613,None,t,6.760175157607591,703.8880276356613,None,7.289309015370236,6.760175157607591,8,False,False,False,711.2361461605578,None,711.2361461605578,None,711.2361461605578,None,711.2361461605578,None,711.2361461605578,None,711.2361461605578,None,712.2357544906481,None,712.2357544906481,None,c,,,,,,,,,,,,,,,,,,,,,,,,,,,5_6,001,2021_Apr_07_1600,ComputerHuman,2020.1.3,60.064526445520016,
Computer.xlsx,c,Sychronize.jpg,Number6.jpg,6,Computer,,,,,0,4,4,5,0,3,3,1,,,,,,,,,,,,,,,,,,,,,,,,,,,,,,,,,,,,,,,,,,,,,,,,,,,,,,,,,713.3023887373565,None,713.3023887373565,None,713.7522987751727,None,713.7522987751727,None,v,6.992195471833838,713.7522987751727,None,t,6.791176103579346,713.7522987751727,None,6.992195471833838,6.791176103579346,6,False,False,False,720.8005976735221,None,720.8005976735221,None,720.8005976735221,None,720.8005976735221,None,720.8005976735221,None,720.8005976735221,None,721.8002614982033,None,721.8002614982033,None,c,,,,,,,,,,,,,,,,,,,,,,,,,,,5_6,001,2021_Apr_07_1600,ComputerHuman,2020.1.3,60.064526445520016,
Computer.xlsx,c,Sychronize.jpg,Number9.jpg,9,Computer,,,,,0,4,4,5,0,4,4,6,,,,,,,,,,,,,,,,,,,,,,,,,,,,,,,,,,,,,,,,,,,,,,,,,,,,,,,,,722.8664896399932,None,722.8664896399932,None,723.2999678259657,None,723.2999678259657,None,v,7.359789390011429,723.2999678259657,None,t,8.607066867130925,723.2999678259657,None,7.359789390011429,8.607066867130925,9,False,False,False,731.9811122719693,None,731.9811122719693,None,731.9811122719693,None,731.9811122719693,None,731.9811122719693,None,731.9811122719693,None,732.9809502790922,None,732.9809502790922,None,c,,,,,,,,,,,,,,,,,,,,,,,,,,,5_6,001,2021_Apr_07_1600,ComputerHuman,2020.1.3,60.064526445520016,
Computer.xlsx,c,Sychronize.jpg,Number8.jpg,8,Computer,,,,,0,4,4,5,0,5,5,5,,,,,,,,,,,,,,,,,,,,,,,,,,,,,,,,,,,,,,,,,,,,,,,,,,,,,,,,,734.0304822479848,None,734.0304822479848,None,734.4805982252619,None,734.4805982252619,None,v,6.70631878081258,734.4805982252619,None,t,8.237119721718045,734.4805982252619,None,6.70631878081258,8.237119721718045,8,False,False,True,742.7785015241752,None,742.7785015241752,None,742.7785015241752,None,742.7785015241752,None,742.7785015241752,None,742.7785015241752,None,743.7781557255148,None,743.7781557255148,None,c,,,,,,,,,,,,,,,,,,,,,,,,,,,5_6,001,2021_Apr_07_1600,ComputerHuman,2020.1.3,60.064526445520016,
Computer.xlsx,c,Sychronize.jpg,Number7.jpg,7,Computer,,,,,0,4,4,5,0,6,6,2,,,,,,,,,,,,,,,,,,,,,,,,,,,,,,,,,,,,,,,,,,,,,,,,,,,,,,,,,744.8278041368139,None,744.8278041368139,None,745.2778938103002,None,745.2778938103002,None,v,5.8564627620071406,745.2778938103002,None,t,7.0231255258768215,745.2778938103002,None,5.8564627620071406,7.0231255258768215,7,False,False,True,752.3596710229358,None,752.3596710229358,None,752.3596710229358,None,752.3596710229358,None,752.3596710229358,None,752.3596710229358,None,753.3759854700402,None,753.3759854700402,None,c,,,,,,,,,,,,,,,,,,,,,,,,,,,5_6,001,2021_Apr_07_1600,ComputerHuman,2020.1.3,60.064526445520016,
Computer.xlsx,c,Sychronize.jpg,Number10.jpg,10,Computer,,,,,0,4,4,5,0,7,7,8,,,,,,,,,,,,,,,,,,,,,,,,,,,,,,,,,,,,,,,,,,,,,,,,,,,,,,,,,754.4254295457686,None,754.4254295457686,None,754.8757161769281,None,754.8757161769281,None,v,8.641574557947024,754.8757161769281,None,t,9.692960623542604,754.8757161769281,None,8.641574557947024,9.692960623542604,10,False,False,False,764.639839790645,None,764.639839790645,None,764.639839790645,None,764.639839790645,None,764.639839790645,None,764.639839790645,None,765.6396139629505,None,765.6396139629505,None,c,,,,,,,,,,,,,,,,,,,,,,,,,,,5_6,001,2021_Apr_07_1600,ComputerHuman,2020.1.3,60.064526445520016,
Computer.xlsx,c,Sychronize.jpg,Number9.jpg,9,Computer,,,,,0,4,4,5,0,8,8,7,,,,,,,,,,,,,,,,,,,,,,,,,,,,,,,,,,,,,,,,,,,,,,,,,,,,,,,,,766.6891658200766,None,766.6891658200766,None,767.1392744194636,None,767.1392744194636,None,v,11.184863706250326,767.1392744194636,None,t,9.567902442435297,767.1392744194636,None,11.184863706250326,9.567902442435297,9,False,False,False,778.4031210413959,None,778.4031210413959,None,778.4031210413959,None,778.4031210413959,None,778.4031210413959,None,778.4031210413959,None,779.4029532745153,None,779.4029532745153,None,c,,,,,,,,,,,,,,,,,,,,,,,,,,,5_6,001,2021_Apr_07_1600,ComputerHuman,2020.1.3,60.064526445520016,
Computer.xlsx,c,Sychronize.jpg,Number7.jpg,7,Computer,,,,,0,4,4,5,0,9,9,3,,,,,,,,,,,,,,,,,,,,,,,,,,,,,,,,,,,,,,,,,,,,,,,,,,,,,,,,,780.4525811560234,None,780.4525811560234,None,780.9025547078818,None,780.9025547078818,None,v,5.597026516472397,780.9025547078818,None,t,6.536195143355144,780.9025547078818,None,5.597026516472397,6.536195143355144,7,False,False,False,787.5009794955477,None,787.5009794955477,None,787.5009794955477,None,787.5009794955477,None,787.5009794955477,None,787.5009794955477,None,788.5007382705116,None,788.5007382705116,None,c,,,,,,,,,,,,,,,,,,,,,,,,,,,5_6,001,2021_Apr_07_1600,ComputerHuman,2020.1.3,60.064526445520016,
Computer.xlsx,c,,,,,,,,,0,4,4,5,,,,,,,,,,,,,,,,,,,,,,,,,,,,,,,,,,,,,,,,,,,,,,,,,,,,,,,,,,,,,,,,,,,,,,,,,,,,,,,,,,,,,,,,,,,,,,,,,,,c,789.5004903091358,None,789.5004903091358,None,q,0,4.002469028084306,789.5004903091358,None,l,1,2.849464028116927,789.5004903091358,None,h,c,793.5661808270343,None,None,None,None,None,None,,,,5_6,001,2021_Apr_07_1600,ComputerHuman,2020.1.3,60.064526445520016,
Human.xlsx,h,Sychronize.jpg,Number6.jpg,6,Human,,,,,0,5,5,6,0,0,0,0,,,,,,,,,,,,,,,,,,,,,,,,,,,,,,,,,,,,,,,,,,,,,,,,,,,,,798.5816060775869,None,798.5816060775869,None,801.6308811033196,None,801.6308811033196,None,802.0974340648863,None,802.0974340648863,None,v,5.4365021599587635,802.0974340648863,None,t,5.52825396377375,802.0974340648863,None,5.4365021599587635,5.52825396377375,6,True,False,False,807.6793188985357,None,807.6793188985357,None,807.6793188985357,None,807.6793188985357,None,807.6793188985357,None,807.6793188985357,None,808.6791613965506,None,808.6791613965506,None,h,,,,,,,,,,,,,,,,,,,,,,,,,,,5_6,001,2021_Apr_07_1600,ComputerHuman,2020.1.3,60.064526445520016,
Human.xlsx,h,Sychronize.jpg,Number9.jpg,9,Human,,,,,0,5,5,6,0,1,1,7,,,,,,,,,,,,,,,,,,,,,,,,,,,,,,,,,,,,,,,,,,,,,,,,,,,,,,,,,809.7455412663221,None,809.7455412663221,None,810.1786030824805,None,810.1786030824805,None,v,6.294736257950717,810.1786030824805,None,t,7.922161620132101,810.1786030824805,None,6.294736257950717,7.922161620132101,9,False,False,False,818.16018850197,None,818.16018850197,None,818.16018850197,None,818.16018850197,None,818.16018850197,None,818.16018850197,None,819.1766059188012,None,819.1766059188012,None,h,,,,,,,,,,,,,,,,,,,,,,,,,,,5_6,001,2021_Apr_07_1600,ComputerHuman,2020.1.3,60.064526445520016,
Human.xlsx,h,Sychronize.jpg,Number10.jpg,10,Human,,,,,0,5,5,6,0,2,2,8,,,,,,,,,,,,,,,,,,,,,,,,,,,,,,,,,,,,,,,,,,,,,,,,,,,,,,,,,820.2262732560012,None,820.2262732560012,None,820.6762618844223,None,820.6762618844223,None,v,7.632167743784521,820.6762618844223,None,t,7.375111991612357,820.6762618844223,None,7.632167743784521,7.375111991612357,10,True,False,False,828.3743620126988,None,828.3743620126988,None,828.3743620126988,None,828.3743620126988,None,828.3743620126988,None,828.3743620126988,None,829.3740871059745,None,829.3740871059745,None,h,,,,,,,,,,,,,,,,,,,,,,,,,,,5_6,001,2021_Apr_07_1600,ComputerHuman,2020.1.3,60.064526445520016,
Human.xlsx,h,Sychronize.jpg,Number9.jpg,9,Human,,,,,0,5,5,6,0,3,3,6,,,,,,,,,,,,,,,,,,,,,,,,,,,,,,,,,,,,,,,,,,,,,,,,,,,,,,,,,830.4238359207811,None,830.4238359207811,None,830.8737523741547,None,830.8737523741547,None,v,6.9060518293808855,830.8737523741547,None,t,6.981120291420666,830.8737523741547,None,6.9060518293808855,6.981120291420666,9,True,False,False,837.9053839696317,None,837.9053839696317,None,837.9053839696317,None,837.9053839696317,None,837.9053839696317,None,837.9053839696317,None,838.9217940085728,None,838.9217940085728,None,h,,,,,,,,,,,,,,,,,,,,,,,,,,,5_6,001,2021_Apr_07_1600,ComputerHuman,2020.1.3,60.064526445520016,
Human.xlsx,h,Sychronize.jpg,Number7.jpg,7,Human,,,,,0,5,5,6,0,4,4,2,,,,,,,,,,,,,,,,,,,,,,,,,,,,,,,,,,,,,,,,,,,,,,,,,,,,,,,,,839.9546785628227,None,839.9546785628227,None,840.4047736895336,None,840.4047736895336,None,v,5.978307710123772,840.4047736895336,None,t,5.589256953102449,840.4047736895336,None,5.978307710123772,5.589256953102449,7,False,False,False,846.4533035480272,None,846.4533035480272,None,846.4533035480272,None,846.4533035480272,None,846.4533035480272,None,846.4533035480272,None,847.4530174140709,None,847.4530174140709,None,h,,,,,,,,,,,,,,,,,,,,,,,,,,,5_6,001,2021_Apr_07_1600,ComputerHuman,2020.1.3,60.064526445520016,
Human.xlsx,h,Sychronize.jpg,Number8.jpg,8,Human,,,,,0,5,5,6,0,5,5,5,,,,,,,,,,,,,,,,,,,,,,,,,,,,,,,,,,,,,,,,,,,,,,,,,,,,,,,,,848.5027944573412,None,848.5027944573412,None,848.9527526118545,None,848.9527526118545,None,v,6.565633900587272,848.9527526118545,None,t,6.817141797659133,848.9527526118545,None,6.565633900587272,6.817141797659133,8,True,False,False,855.8343435166425,None,855.8343435166425,None,855.8343435166425,None,855.8343435166425,None,855.8343435166425,None,855.8343435166425,None,856.8340888189305,None,856.8340888189305,None,h,,,,,,,,,,,,,,,,,,,,,,,,,,,5_6,001,2021_Apr_07_1600,ComputerHuman,2020.1.3,60.064526445520016,
Human.xlsx,h,Sychronize.jpg,Number8.jpg,8,Human,,,,,0,5,5,6,0,6,6,4,,,,,,,,,,,,,,,,,,,,,,,,,,,,,,,,,,,,,,,,,,,,,,,,,,,,,,,,,857.8835896723576,None,857.8835896723576,None,858.3336260966971,None,858.3336260966971,None,v,5.884047743307747,858.3336260966971,None,t,6.871254155277711,858.3336260966971,None,5.884047743307747,6.871254155277711,8,False,False,False,865.2820337708617,None,865.2820337708617,None,865.2820337708617,None,865.2820337708617,None,865.2820337708617,None,865.2820337708617,None,866.2817187668879,None,866.2817187668879,None,h,,,,,,,,,,,,,,,,,,,,,,,,,,,5_6,001,2021_Apr_07_1600,ComputerHuman,2020.1.3,60.064526445520016,
Human.xlsx,h,Sychronize.jpg,Number7.jpg,7,Human,,,,,0,5,5,6,0,7,7,3,,,,,,,,,,,,,,,,,,,,,,,,,,,,,,,,,,,,,,,,,,,,,,,,,,,,,,,,,867.3312651707929,None,867.3312651707929,None,867.7814279816521,None,867.7814279816521,None,v,5.091613869284629,867.7814279816521,None,t,5.56328195646347,867.7814279816521,None,5.091613869284629,5.56328195646347,7,False,False,False,873.3967195961013,None,873.3967195961013,None,873.3967195961013,None,873.3967195961013,None,873.3967195961013,None,873.3967195961013,None,874.396283017275,None,874.396283017275,None,h,,,,,,,,,,,,,,,,,,,,,,,,,,,5_6,001,2021_Apr_07_1600,ComputerHuman,2020.1.3,60.064526445520016,
Human.xlsx,h,Sychronize.jpg,Number10.jpg,10,Human,,,,,0,5,5,6,0,8,8,9,,,,,,,,,,,,,,,,,,,,,,,,,,,,,,,,,,,,,,,,,,,,,,,,,,,,,,,,,875.4626555091527,None,875.4626555091527,None,875.8960878238759,None,875.8960878238759,None,v,6.7122592681553215,875.8960878238759,None,t,7.895102073154703,875.8960878238759,None,6.7122592681553215,7.895102073154703,10,False,False,False,883.8441233955855,None,883.8441233955855,None,883.8441233955855,None,883.8441233955855,None,883.8441233955855,None,883.8441233955855,None,884.8605472279778,None,884.8605472279778,None,h,,,,,,,,,,,,,,,,,,,,,,,,,,,5_6,001,2021_Apr_07_1600,ComputerHuman,2020.1.3,60.064526445520016,
Human.xlsx,h,Sychronize.jpg,Number6.jpg,6,Human,,,,,0,5,5,6,0,9,9,1,,,,,,,,,,,,,,,,,,,,,,,,,,,,,,,,,,,,,,,,,,,,,,,,,,,,,,,,,885.910339027032,None,885.910339027032,None,886.3602387999563,None,886.3602387999563,None,v,4.355552875276771,886.3602387999563,None,t,4.3863145208815695,886.3602387999563,None,4.355552875276771,4.3863145208815695,6,True,False,False,890.8090787224428,None,890.8090787224428,None,890.8090787224428,None,890.8090787224428,None,890.8090787224428,None,890.8090787224428,None,891.8089298814593,None,891.8089298814593,None,h,,,,,,,,,,,,,,,,,,,,,,,,,,,5_6,001,2021_Apr_07_1600,ComputerHuman,2020.1.3,60.064526445520016,
Human.xlsx,h,,,,,,,,,0,5,5,6,,,,,,,,,,,,,,,,,,,,,,,,,,,,,,,,,,,,,,,,,,,,,,,,,,,,,,,,,,,,,,,,,,,,,,,,,,,,,,,,,,,,,,,,,,,,,,,,,,,h,892.8086321994997,None,892.8086321994997,None,a,0,2.742765574490477,892.8086321994997,None,o,1,3.458439844987879,892.8086321994997,None,c,h,896.3244871321513,None,None,None,None,None,None,,,,5_6,001,2021_Apr_07_1600,ComputerHuman,2020.1.3,60.064526445520016,
Computer.xlsx,c,Sychronize.jpg,Number8.jpg,8,Computer,,,,,0,6,6,9,0,0,0,4,,,,,,,,,,,,,,,,,,,,,,,,,,,,,,,,,,,,,,,,,,,,,,,,,,,,,901.3399390072736,None,901.3399390072736,None,904.4055676150238,None,904.4055676150238,None,904.8557140662087,None,904.8557140662087,None,v,5.6226602053429815,904.8557140662087,None,t,6.494160397327505,904.8557140662087,None,5.6226602053429815,6.494160397327505,8,False,False,False,911.4041581165948,None,911.4041581165948,None,911.4041581165948,None,911.4041581165948,None,911.4041581165948,None,911.4041581165948,None,912.4205280582864,None,912.4205280582864,None,c,,,,,,,,,,,,,,,,,,,,,,,,,,,5_6,001,2021_Apr_07_1600,ComputerHuman,2020.1.3,60.064526445520016,
Computer.xlsx,c,Sychronize.jpg,Number10.jpg,10,Computer,,,,,0,6,6,9,0,1,1,9,,,,,,,,,,,,,,,,,,,,,,,,,,,,,,,,,,,,,,,,,,,,,,,,,,,,,,,,,913.4869364772967,None,913.4869364772967,None,913.9201833823536,None,913.9201833823536,None,v,7.737218681726517,913.9201833823536,None,t,9.088002871605568,913.9201833823536,None,7.737218681726517,9.088002871605568,10,False,False,False,923.0679783064261,None,923.0679783064261,None,923.0679783064261,None,923.0679783064261,None,923.0679783064261,None,923.0679783064261,None,924.0676552830046,None,924.0676552830046,None,c,,,,,,,,,,,,,,,,,,,,,,,,,,,5_6,001,2021_Apr_07_1600,ComputerHuman,2020.1.3,60.064526445520016,
Computer.xlsx,c,Sychronize.jpg,Number6.jpg,6,Computer,,,,,0,6,6,9,0,2,2,0,,,,,,,,,,,,,,,,,,,,,,,,,,,,,,,,,,,,,,,,,,,,,,,,,,,,,,,,,925.1338436483202,None,925.1338436483202,None,925.5672794916027,None,925.5672794916027,None,v,6.613402232163935,925.5672794916027,None,t,6.996191082307632,925.5672794916027,None,6.613402232163935,6.996191082307632,6,False,False,False,932.6322726381804,None,932.6322726381804,None,932.6322726381804,None,932.6322726381804,None,932.6322726381804,None,932.6322726381804,None,933.6320285261427,None,933.6320285261427,None,c,,,,,,,,,,,,,,,,,,,,,,,,,,,5_6,001,2021_Apr_07_1600,ComputerHuman,2020.1.3,60.064526445520016,
Computer.xlsx,c,Sychronize.jpg,Number9.jpg,9,Computer,,,,,0,6,6,9,0,3,3,7,,,,,,,,,,,,,,,,,,,,,,,,,,,,,,,,,,,,,,,,,,,,,,,,,,,,,,,,,934.6812679455215,None,934.6812679455215,None,935.1316828878735,None,935.1316828878735,None,v,8.312075911468128,935.1316828878735,None,t,7.215112427871645,935.1316828878735,None,8.312075911468128,7.215112427871645,9,False,False,False,943.4962759280825,None,943.4962759280825,None,943.4962759280825,None,943.4962759280825,None,943.4962759280825,None,943.4962759280825,None,944.4960077576943,None,944.4960077576943,None,c,,,,,,,,,,,,,,,,,,,,,,,,,,,5_6,001,2021_Apr_07_1600,ComputerHuman,2020.1.3,60.064526445520016,
Computer.xlsx,c,Sychronize.jpg,Number7.jpg,7,Computer,,,,,0,6,6,9,0,4,4,3,,,,,,,,,,,,,,,,,,,,,,,,,,,,,,,,,,,,,,,,,,,,,,,,,,,,,,,,,945.5622525799336,None,945.5622525799336,None,946.0123942194514,None,946.0123942194514,None,v,6.466701481767814,946.0123942194514,None,t,5.882211289397674,946.0123942194514,None,6.466701481767814,5.882211289397674,7,False,False,False,952.5441039243633,None,952.5441039243633,None,952.5441039243633,None,952.5441039243633,None,952.5441039243633,None,952.5441039243633,None,953.5605418709856,None,953.5605418709856,None,c,,,,,,,,,,,,,,,,,,,,,,,,,,,5_6,001,2021_Apr_07_1600,ComputerHuman,2020.1.3,60.064526445520016,
Computer.xlsx,c,Sychronize.jpg,Number7.jpg,7,Computer,,,,,0,6,6,9,0,5,5,2,,,,,,,,,,,,,,,,,,,,,,,,,,,,,,,,,,,,,,,,,,,,,,,,,,,,,,,,,954.5767838222673,None,954.5767838222673,None,955.0434272432212,None,955.0434272432212,None,v,5.77102932199341,955.0434272432212,None,t,6.562207671020587,955.0434272432212,None,5.77102932199341,6.562207671020587,7,False,False,False,961.6584978416431,None,961.6584978416431,None,961.6584978416431,None,961.6584978416431,None,961.6584978416431,None,961.6584978416431,None,962.6749592050583,None,962.6749592050583,None,c,,,,,,,,,,,,,,,,,,,,,,,,,,,5_6,001,2021_Apr_07_1600,ComputerHuman,2020.1.3,60.064526445520016,
Computer.xlsx,c,Sychronize.jpg,Number6.jpg,6,Computer,,,,,0,6,6,9,0,6,6,1,,,,,,,,,,,,,,,,,,,,,,,,,,,,,,,,,,,,,,,,,,,,,,,,,,,,,,,,,963.724659582389,None,963.724659582389,None,964.1746244732421,None,964.1746244732421,None,v,5.0512016182619845,964.1746244732421,None,t,5.4902683981417795,964.1746244732421,None,5.0512016182619845,5.4902683981417795,6,False,False,False,969.7233867353789,None,969.7233867353789,None,969.7233867353789,None,969.7233867353789,None,969.7233867353789,None,969.7233867353789,None,970.7396861059169,None,970.7396861059169,None,c,,,,,,,,,,,,,,,,,,,,,,,,,,,5_6,001,2021_Apr_07_1600,ComputerHuman,2020.1.3,60.064526445520016,
Computer.xlsx,c,Sychronize.jpg,Number10.jpg,10,Computer,,,,,0,6,6,9,0,7,7,8,,,,,,,,,,,,,,,,,,,,,,,,,,,,,,,,,,,,,,,,,,,,,,,,,,,,,,,,,971.7891978657972,None,971.7891978657972,None,972.222653918092,None,972.222653918092,None,v,9.07829163914721,972.222653918092,None,t,10.23803073117233,972.222653918092,None,9.07829163914721,10.23803073117233,10,False,False,True,982.5201584899805,None,982.5201584899805,None,982.5201584899805,None,982.5201584899805,None,982.5201584899805,None,982.5201584899805,None,983.5365698120331,None,983.5365698120331,None,c,,,,,,,,,,,,,,,,,,,,,,,,,,,5_6,001,2021_Apr_07_1600,ComputerHuman,2020.1.3,60.064526445520016,
Computer.xlsx,c,Sychronize.jpg,Number8.jpg,8,Computer,,,,,0,6,6,9,0,8,8,5,,,,,,,,,,,,,,,,,,,,,,,,,,,,,,,,,,,,,,,,,,,,,,,,,,,,,,,,,984.5862881529283,None,984.5862881529283,None,985.0363534472854,None,985.0363534472854,None,v,7.175762914281222,985.0363534472854,None,t,7.567100818272593,985.0363534472854,None,7.175762914281222,7.567100818272593,8,False,False,False,992.6676627892084,None,992.6676627892084,None,992.6676627892084,None,992.6676627892084,None,992.6676627892084,None,992.6676627892084,None,993.6673849954786,None,993.6673849954786,None,c,,,,,,,,,,,,,,,,,,,,,,,,,,,5_6,001,2021_Apr_07_1600,ComputerHuman,2020.1.3,60.064526445520016,
Computer.xlsx,c,Sychronize.jpg,Number9.jpg,9,Computer,,,,,0,6,6,9,0,9,9,6,,,,,,,,,,,,,,,,,,,,,,,,,,,,,,,,,,,,,,,,,,,,,,,,,,,,,,,,,994.7504334512378,None,994.7504334512378,None,995.1669902781796,None,995.1669902781796,None,v,6.928403317997436,995.1669902781796,None,t,8.5000203694035,995.1669902781796,None,6.928403317997436,8.5000203694035,9,False,False,False,1003.7317150939816,None,1003.7317150939816,None,1003.7317150939816,None,1003.7317150939816,None,1003.7317150939816,None,1003.7317150939816,None,1004.7316211060352,None,1004.7316211060352,None,c,,,,,,,,,,,,,,,,,,,,,,,,,,,5_6,001,2021_Apr_07_1600,ComputerHuman,2020.1.3,60.064526445520016,
Computer.xlsx,c,,,,,,,,,0,6,6,9,,,,,,,,,,,,,,,,,,,,,,,,,,,,,,,,,,,,,,,,,,,,,,,,,,,,,,,,,,,,,,,,,,,,,,,,,,,,,,,,,,,,,,,,,,,,,,,,,,,c,1005.7311851687627,None,1005.7311851687627,None,q,0,3.915714945142099,1005.7311851687627,None,l,1,5.047341376095574,1005.7311851687627,None,h,c,1010.8131468287393,None,None,None,None,None,None,,,,5_6,001,2021_Apr_07_1600,ComputerHuman,2020.1.3,60.064526445520016,
Computer.xlsx,c,Sychronize.jpg,Number7.jpg,7,Computer,,,,,0,7,7,7,0,0,0,3,,,,,,,,,,,,,,,,,,,,,,,,,,,,,,,,,,,,,,,,,,,,,,,,,,,,,1015.8453625609109,None,1015.8453625609109,None,1018.9279641729481,None,1018.9279641729481,None,1019.3611661690848,None,1019.3611661690848,None,v,4.712548930670891,1019.3611661690848,None,t,6.844036785536446,1019.3611661690848,None,4.712548930670891,6.844036785536446,7,False,False,True,1026.2422957951458,None,1026.2422957951458,None,1026.2422957951458,None,1026.2422957951458,None,1026.2422957951458,None,1026.2422957951458,None,1027.2592296645198,None,1027.2592296645198,None,c,,,,,,,,,,,,,,,,,,,,,,,,,,,5_6,001,2021_Apr_07_1600,ComputerHuman,2020.1.3,60.064526445520016,
Computer.xlsx,c,Sychronize.jpg,Number9.jpg,9,Computer,,,,,0,7,7,7,0,1,1,7,,,,,,,,,,,,,,,,,,,,,,,,,,,,,,,,,,,,,,,,,,,,,,,,,,,,,,,,,1028.3253827442604,None,1028.3253827442604,None,1028.7589119339318,None,1028.7589119339318,None,v,6.590002441120305,1028.7589119339318,None,t,8.737104163988988,1028.7589119339318,None,6.590002441120305,8.737104163988988,9,False,False,True,1037.5567348779623,None,1037.5567348779623,None,1037.5567348779623,None,1037.5567348779623,None,1037.5567348779623,None,1037.5567348779623,None,1038.573160314245,None,1038.573160314245,None,c,,,,,,,,,,,,,,,,,,,,,,,,,,,5_6,001,2021_Apr_07_1600,ComputerHuman,2020.1.3,60.064526445520016,
Computer.xlsx,c,Sychronize.jpg,Number6.jpg,6,Computer,,,,,0,7,7,7,0,2,2,1,,,,,,,,,,,,,,,,,,,,,,,,,,,,,,,,,,,,,,,,,,,,,,,,,,,,,,,,,1039.605981033681,None,1039.605981033681,None,1040.0561063135174,None,1040.0561063135174,None,v,6.156043729737576,1040.0561063135174,None,t,6.031247624239768,1040.0561063135174,None,6.156043729737576,6.031247624239768,6,False,True,True,1046.287935764849,None,1046.287935764849,None,1046.287935764849,None,1046.287935764849,None,1046.287935764849,None,1046.287935764849,None,1047.2877243721632,None,1047.2877243721632,None,c,,,,,,,,,,,,,,,,,,,,,,,,,,,5_6,001,2021_Apr_07_1600,ComputerHuman,2020.1.3,60.064526445520016,
Computer.xlsx,c,Sychronize.jpg,Number6.jpg,6,Computer,,,,,0,7,7,7,0,3,3,0,,,,,,,,,,,,,,,,,,,,,,,,,,,,,,,,,,,,,,,,,,,,,,,,,,,,,,,,,1048.3371427856546,None,1048.3371427856546,None,1048.787380658563,None,1048.787380658563,None,v,6.252007027604122,1048.787380658563,None,t,5.695249695181701,1048.787380658563,None,6.252007027604122,5.695249695181701,6,False,True,False,1055.1024856764598,None,1055.1024856764598,None,1055.1024856764598,None,1055.1024856764598,None,1055.1024856764598,None,1055.1024856764598,None,1056.1022203930734,None,1056.1022203930734,None,c,,,,,,,,,,,,,,,,,,,,,,,,,,,5_6,001,2021_Apr_07_1600,ComputerHuman,2020.1.3,60.064526445520016,
Computer.xlsx,c,Sychronize.jpg,Number8.jpg,8,Computer,,,,,0,7,7,7,0,4,4,4,,,,,,,,,,,,,,,,,,,,,,,,,,,,,,,,,,,,,,,,,,,,,,,,,,,,,,,,,1057.1686454925366,None,1057.1686454925366,None,1057.6020117269982,None,1057.6020117269982,None,v,7.160719389521546,1057.6020117269982,None,t,7.760102661784913,1057.6020117269982,None,7.160719389521546,7.760102661784913,8,False,False,True,1065.4166232279822,None,1065.4166232279822,None,1065.4166232279822,None,1065.4166232279822,None,1065.4166232279822,None,1065.4166232279822,None,1066.4329219569627,None,1066.4329219569627,None,c,,,,,,,,,,,,,,,,,,,,,,,,,,,5_6,001,2021_Apr_07_1600,ComputerHuman,2020.1.3,60.064526445520016,
Computer.xlsx,c,Sychronize.jpg,Number10.jpg,10,Computer,,,,,0,7,7,7,0,5,5,9,,,,,,,,,,,,,,,,,,,,,,,,,,,,,,,,,,,,,,,,,,,,,,,,,,,,,,,,,1067.4825174398939,None,1067.4825174398939,None,1067.9326962896557,None,1067.9326962896557,None,v,9.43708212654019,1067.9326962896557,None,t,10.28793351940476,1067.9326962896557,None,9.43708212654019,10.28793351940476,10,False,False,True,1078.2968485809251,None,1078.2968485809251,None,1078.2968485809251,None,1078.2968485809251,None,1078.2968485809251,None,1078.2968485809251,None,1079.296524915946,None,1079.296524915946,None,c,,,,,,,,,,,,,,,,,,,,,,,,,,,5_6,001,2021_Apr_07_1600,ComputerHuman,2020.1.3,60.064526445520016,
Computer.xlsx,c,Sychronize.jpg,Number9.jpg,9,Computer,,,,,0,7,7,7,0,6,6,6,,,,,,,,,,,,,,,,,,,,,,,,,,,,,,,,,,,,,,,,,,,,,,,,,,,,,,,,,1080.346111096318,None,1080.346111096318,None,1080.7962055814714,None,1080.7962055814714,None,v,7.528758868309524,1080.7962055814714,None,t,8.70002351302901,1080.7962055814714,None,7.528758868309524,8.70002351302901,9,False,False,True,1089.5607561506768,None,1089.5607561506768,None,1089.5607561506768,None,1089.5607561506768,None,1089.5607561506768,None,1089.5607561506768,None,1090.560446279149,None,1090.560446279149,None,c,,,,,,,,,,,,,,,,,,,,,,,,,,,5_6,001,2021_Apr_07_1600,ComputerHuman,2020.1.3,60.064526445520016,
Computer.xlsx,c,Sychronize.jpg,Number8.jpg,8,Computer,,,,,0,7,7,7,0,7,7,5,,,,,,,,,,,,,,,,,,,,,,,,,,,,,,,,,,,,,,,,,,,,,,,,,,,,,,,,,1091.6265945472223,None,1091.6265945472223,None,1092.0600643929683,None,1092.0600643929683,None,v,6.6761101564407,1092.0600643929683,None,t,8.487224535921996,1092.0600643929683,None,6.6761101564407,8.487224535921996,8,False,False,False,1100.608110678666,None,1100.608110678666,None,1100.608110678666,None,1100.608110678666,None,1100.608110678666,None,1100.608110678666,None,1101.6243041924718,None,1101.6243041924718,None,c,,,,,,,,,,,,,,,,,,,,,,,,,,,5_6,001,2021_Apr_07_1600,ComputerHuman,2020.1.3,60.064526445520016,
Computer.xlsx,c,Sychronize.jpg,Number10.jpg,10,Computer,,,,,0,7,7,7,0,8,8,8,,,,,,,,,,,,,,,,,,,,,,,,,,,,,,,,,,,,,,,,,,,,,,,,,,,,,,,,,1102.6741903002512,None,1102.6741903002512,None,1103.12412215097,None,1103.12412215097,None,v,6.667185792357486,1103.12412215097,None,t,8.97005345123398,1103.12412215097,None,6.667185792357486,8.97005345123398,10,False,False,False,1112.1718981812191,None,1112.1718981812191,None,1112.1718981812191,None,1112.1718981812191,None,1112.1718981812191,None,1112.1718981812191,None,1113.1716736366361,None,1113.1716736366361,None,c,,,,,,,,,,,,,,,,,,,,,,,,,,,5_6,001,2021_Apr_07_1600,ComputerHuman,2020.1.3,60.064526445520016,
Computer.xlsx,c,Sychronize.jpg,Number7.jpg,7,Computer,,,,,0,7,7,7,0,9,9,2,,,,,,,,,,,,,,,,,,,,,,,,,,,,,,,,,,,,,,,,,,,,,,,,,,,,,,,,,1114.22121362498,None,1114.22121362498,None,1114.671318695804,None,1114.671318695804,None,v,5.56323672677172,1114.671318695804,None,t,7.614093829481135,1114.671318695804,None,5.56323672677172,7.614093829481135,7,False,False,False,1122.336017175734,None,1122.336017175734,None,1122.336017175734,None,1122.336017175734,None,1122.336017175734,None,1122.336017175734,None,1123.3356771510807,None,1123.3356771510807,None,c,,,,,,,,,,,,,,,,,,,,,,,,,,,5_6,001,2021_Apr_07_1600,ComputerHuman,2020.1.3,60.064526445520016,
Computer.xlsx,c,,,,,,,,,0,7,7,7,,,,,,,,,,,,,,,,,,,,,,,,,,,,,,,,,,,,,,,,,,,,,,,,,,,,,,,,,,,,,,,,,,,,,,,,,,,,,,,,,,,,,,,,,,,,,,,,,,,c,1124.3355536515592,None,1124.3355536515592,None,q,0,1.7705163980099314,1124.3355536515592,None,l,1,2.1534682033634454,1124.3355536515592,None,h,c,None,None,1126.5517345908665,None,"['space', 'space']",1127.5349027288903,None,"[0.43503684616007376, 3.9947799799883796]",,,5_6,001,2021_Apr_07_1600,ComputerHuman,2020.1.3,60.064526445520016,
Computer.xlsx,c,Sychronize.jpg,Number7.jpg,7,Computer,,,,,0,8,8,1,0,0,0,3,,,,,,,,,,,,,,,,,,,,,,,,,,,,,,,,,,,,,,,,,,,,,,,,,,,,,1131.5838624298704,None,1131.5838624298704,None,1134.6494259196916,None,1134.6494259196916,None,1135.0997619506634,None,1135.0997619506634,None,v,6.425156242934463,1135.0997619506634,None,t,6.9361408035656495,1135.0997619506634,None,6.425156242934463,6.9361408035656495,7,False,False,True,1142.097917798077,None,1142.097917798077,None,1142.097917798077,None,1142.097917798077,None,1142.097917798077,None,1142.097917798077,None,1143.0977057638338,None,1143.0977057638338,None,c,,,,,,,,,,,,,,,,,,,,,,,,,,,5_6,001,2021_Apr_07_1600,ComputerHuman,2020.1.3,60.064526445520016,
Computer.xlsx,c,Sychronize.jpg,Number10.jpg,10,Computer,,,,,0,8,8,1,0,1,1,8,,,,,,,,,,,,,,,,,,,,,,,,,,,,,,,,,,,,,,,,,,,,,,,,,,,,,,,,,1144.1641501099766,None,1144.1641501099766,None,1144.5973514645593,None,1144.5973514645593,None,v,7.322989740558114,1144.5973514645593,None,t,9.32595950306495,1144.5973514645593,None,7.322989740558114,9.32595950306495,10,False,False,False,1153.9785466897156,None,1153.9785466897156,None,1153.9785466897156,None,1153.9785466897156,None,1153.9785466897156,None,1153.9785466897156,None,1154.9781072238875,None,1154.9781072238875,None,c,,,,,,,,,,,,,,,,,,,,,,,,,,,5_6,001,2021_Apr_07_1600,ComputerHuman,2020.1.3,60.064526445520016,
Computer.xlsx,c,Sychronize.jpg,Number6.jpg,6,Computer,,,,,0,8,8,1,0,2,2,1,,,,,,,,,,,,,,,,,,,,,,,,,,,,,,,,,,,,,,,,,,,,,,,,,,,,,,,,,1156.0276587602348,None,1156.0276587602348,None,1156.4777259792609,None,1156.4777259792609,None,v,6.1936366631271085,1156.4777259792609,None,t,5.737230229733541,1156.4777259792609,None,6.1936366631271085,5.737230229733541,6,False,True,True,1162.742893564904,None,1162.742893564904,None,1162.742893564904,None,1162.742893564904,None,1162.742893564904,None,1162.742893564904,None,1163.7426462450821,None,1163.7426462450821,None,c,,,,,,,,,,,,,,,,,,,,,,,,,,,5_6,001,2021_Apr_07_1600,ComputerHuman,2020.1.3,60.064526445520016,
Computer.xlsx,c,Sychronize.jpg,Number10.jpg,10,Computer,,,,,0,8,8,1,0,3,3,9,,,,,,,,,,,,,,,,,,,,,,,,,,,,,,,,,,,,,,,,,,,,,,,,,,,,,,,,,1164.7920893584778,None,1164.7920893584778,None,1165.2421815981834,None,1165.2421815981834,None,v,9.456298972774675,1165.2421815981834,None,t,8.912040433424409,1165.2421815981834,None,9.456298972774675,8.912040433424409,10,False,False,False,1174.756691508781,None,1174.756691508781,None,1174.756691508781,None,1174.756691508781,None,1174.756691508781,None,1174.756691508781,None,1175.7558905261722,None,1175.7558905261722,None,c,,,,,,,,,,,,,,,,,,,,,,,,,,,5_6,001,2021_Apr_07_1600,ComputerHuman,2020.1.3,60.064526445520016,
Computer.xlsx,c,Sychronize.jpg,Number8.jpg,8,Computer,,,,,0,8,8,1,0,4,4,4,,,,,,,,,,,,,,,,,,,,,,,,,,,,,,,,,,,,,,,,,,,,,,,,,,,,,,,,,1176.8225552467884,None,1176.8225552467884,None,1177.2560510755502,None,1177.2560510755502,None,v,9.085532881184918,1177.2560510755502,None,t,7.581087379599921,1177.2560510755502,None,9.085532881184918,7.581087379599921,8,False,False,False,1186.403849528182,None,1186.403849528182,None,1186.403849528182,None,1186.403849528182,None,1186.403849528182,None,1186.403849528182,None,1187.4202204322064,None,1187.4202204322064,None,c,,,,,,,,,,,,,,,,,,,,,,,,,,,5_6,001,2021_Apr_07_1600,ComputerHuman,2020.1.3,60.064526445520016,
Computer.xlsx,c,Sychronize.jpg,Number7.jpg,7,Computer,,,,,0,8,8,1,0,5,5,2,,,,,,,,,,,,,,,,,,,,,,,,,,,,,,,,,,,,,,,,,,,,,,,,,,,,,,,,,1188.4699099030877,None,1188.4699099030877,None,1188.9032334740768,None,1188.9032334740768,None,v,6.73363142161179,1188.9032334740768,None,t,6.637172200997156,1188.9032334740768,None,6.73363142161179,6.637172200997156,7,False,True,False,1195.7182247761848,None,1195.7182247761848,None,1195.7182247761848,None,1195.7182247761848,None,1195.7182247761848,None,1195.7182247761848,None,1196.7179800225858,None,1196.7179800225858,None,c,,,,,,,,,,,,,,,,,,,,,,,,,,,5_6,001,2021_Apr_07_1600,ComputerHuman,2020.1.3,60.064526445520016,
Computer.xlsx,c,Sychronize.jpg,Number9.jpg,9,Computer,,,,,0,8,8,1,0,6,6,6,,,,,,,,,,,,,,,,,,,,,,,,,,,,,,,,,,,,,,,,,,,,,,,,,,,,,,,,,1197.7677002881537,None,1197.7677002881537,None,1198.2176260440901,None,1198.2176260440901,None,v,7.926458441128489,1198.2176260440901,None,None,,1198.2176260440901,None,7.926458441128489,13,9,False,False,False,1211.2644083041705,None,1211.2644083041705,None,1211.2644083041705,None,1211.2644083041705,None,1211.2644083041705,None,1211.2644083041705,None,1212.2808709506971,None,1212.2808709506971,None,c,,,,,,,,,,,,,,,,,,,,,,,,,,,5_6,001,2021_Apr_07_1600,ComputerHuman,2020.1.3,60.064526445520016,
Computer.xlsx,c,Sychronize.jpg,Number8.jpg,8,Computer,,,,,0,8,8,1,0,7,7,5,,,,,,,,,,,,,,,,,,,,,,,,,,,,,,,,,,,,,,,,,,,,,,,,,,,,,,,,,1213.3303387639971,None,1213.3303387639971,None,1213.780487781405,None,1213.780487781405,None,v,7.686462303296139,1213.780487781405,None,t,7.302096829400398,1213.780487781405,None,7.686462303296139,7.302096829400398,8,False,False,False,1221.5285590236272,None,1221.5285590236272,None,1221.5285590236272,None,1221.5285590236272,None,1221.5285590236272,None,1221.5285590236272,None,1222.528295985685,None,1222.528295985685,None,c,,,,,,,,,,,,,,,,,,,,,,,,,,,5_6,001,2021_Apr_07_1600,ComputerHuman,2020.1.3,60.064526445520016,
Computer.xlsx,c,Sychronize.jpg,Number9.jpg,9,Computer,,,,,0,8,8,1,0,8,8,7,,,,,,,,,,,,,,,,,,,,,,,,,,,,,,,,,,,,,,,,,,,,,,,,,,,,,,,,,1223.5947708057392,None,1223.5947708057392,None,1224.0279580460883,None,1224.0279580460883,None,v,7.978252536311629,1224.0279580460883,None,t,7.961070064004161,1224.0279580460883,None,7.978252536311629,7.961070064004161,9,False,False,False,1232.0760352868601,None,1232.0760352868601,None,1232.0760352868601,None,1232.0760352868601,None,1232.0760352868601,None,1232.0760352868601,None,1233.0758335175124,None,1233.0758335175124,None,c,,,,,,,,,,,,,,,,,,,,,,,,,,,5_6,001,2021_Apr_07_1600,ComputerHuman,2020.1.3,60.064526445520016,
Computer.xlsx,c,Sychronize.jpg,Number6.jpg,6,Computer,,,,,0,8,8,1,0,9,9,0,,,,,,,,,,,,,,,,,,,,,,,,,,,,,,,,,,,,,,,,,,,,,,,,,,,,,,,,,1234.125517855944,None,1234.125517855944,None,1234.575435271654,None,1234.575435271654,None,v,6.438311989302747,1234.575435271654,None,t,5.87722511652828,1234.575435271654,None,6.438311989302747,5.87722511652828,6,False,False,True,1241.0738366746082,None,1241.0738366746082,None,1241.0738366746082,None,1241.0738366746082,None,1241.0738366746082,None,1241.0738366746082,None,1242.0735393134237,None,1242.0735393134237,None,c,,,,,,,,,,,,,,,,,,,,,,,,,,,5_6,001,2021_Apr_07_1600,ComputerHuman,2020.1.3,60.064526445520016,
Computer.xlsx,c,,,,,,,,,0,8,8,1,,,,,,,,,,,,,,,,,,,,,,,,,,,,,,,,,,,,,,,,,,,,,,,,,,,,,,,,,,,,,,,,,,,,,,,,,,,,,,,,,,,,,,,,,,,,,,,,,,,c,1243.073300013053,None,1243.073300013053,None,q,0,4.179741523519624,1243.073300013053,None,l,1,2.3354372091562254,1243.073300013053,None,h,c,1247.3057091101873,None,None,None,None,None,None,,,,5_6,001,2021_Apr_07_1600,ComputerHuman,2020.1.3,60.064526445520016,
Human.xlsx,h,Sychronize.jpg,Number6.jpg,6,Human,,,,,0,9,9,2,0,0,0,0,,,,,,,,,,,,,,,,,,,,,,,,,,,,,,,,,,,,,,,,,,,,,,,,,,,,,1252.3210201637812,None,1252.3210201637812,None,1255.3867972917324,None,1255.3867972917324,None,1255.820338670972,None,1255.820338670972,None,v,5.31562339510856,1255.820338670972,None,t,5.2152570987345825,1255.820338670972,None,5.31562339510856,5.2152570987345825,6,True,False,False,1261.185566851571,None,1261.185566851571,None,1261.185566851571,None,1261.185566851571,None,1261.185566851571,None,1261.185566851571,None,1262.1853192109738,None,1262.1853192109738,None,h,,,,,,,,,,,,,,,,,,,,,,,,,,,5_6,001,2021_Apr_07_1600,ComputerHuman,2020.1.3,60.064526445520016,
Human.xlsx,h,Sychronize.jpg,Number7.jpg,7,Human,,,,,0,9,9,2,0,1,1,2,,,,,,,,,,,,,,,,,,,,,,,,,,,,,,,,,,,,,,,,,,,,,,,,,,,,,,,,,1263.2517629155627,None,1263.2517629155627,None,1263.7016607638143,None,1263.7016607638143,None,v,5.4777320740431605,1263.7016607638143,None,t,6.165213488970039,1263.7016607638143,None,5.4777320740431605,6.165213488970039,7,False,False,False,1269.9167475294453,None,1269.9167475294453,None,1269.9167475294453,None,1269.9167475294453,None,1269.9167475294453,None,1269.9167475294453,None,1270.933253160223,None,1270.933253160223,None,h,,,,,,,,,,,,,,,,,,,,,,,,,,,5_6,001,2021_Apr_07_1600,ComputerHuman,2020.1.3,60.064526445520016,
Human.xlsx,h,Sychronize.jpg,Number10.jpg,10,Human,,,,,0,9,9,2,0,2,2,9,,,,,,,,,,,,,,,,,,,,,,,,,,,,,,,,,,,,,,,,,,,,,,,,,,,,,,,,,1271.9831338147778,None,1271.9831338147778,None,1272.4161904984903,None,1272.4161904984903,None,v,7.930388612894603,1272.4161904984903,None,t,9.477990941872122,1272.4161904984903,None,7.930388612894603,9.477990941872122,10,False,False,False,1281.9471518283863,None,1281.9471518283863,None,1281.9471518283863,None,1281.9471518283863,None,1281.9471518283863,None,1281.9471518283863,None,1282.9636523267145,None,1282.9636523267145,None,h,,,,,,,,,,,,,,,,,,,,,,,,,,,5_6,001,2021_Apr_07_1600,ComputerHuman,2020.1.3,60.064526445520016,
Human.xlsx,h,Sychronize.jpg,Number10.jpg,10,Human,,,,,0,9,9,2,0,3,3,8,,,,,,,,,,,,,,,,,,,,,,,,,,,,,,,,,,,,,,,,,,,,,,,,,,,,,,,,,1284.0133863857336,None,1284.0133863857336,None,1284.4632977066613,None,1284.4632977066613,None,v,9.142254767641134,1284.4632977066613,None,t,7.1860643782165425,1284.4632977066613,None,9.142254767641134,7.1860643782165425,10,False,False,False,1293.6610194773166,None,1293.6610194773166,None,1293.6610194773166,None,1293.6610194773166,None,1293.6610194773166,None,1293.6610194773166,None,1294.6608161040785,None,1294.6608161040785,None,h,,,,,,,,,,,,,,,,,,,,,,,,,,,5_6,001,2021_Apr_07_1600,ComputerHuman,2020.1.3,60.064526445520016,
Human.xlsx,h,Sychronize.jpg,Number6.jpg,6,Human,,,,,0,9,9,2,0,4,4,1,,,,,,,,,,,,,,,,,,,,,,,,,,,,,,,,,,,,,,,,,,,,,,,,,,,,,,,,,1295.7269188216778,None,1295.7269188216778,None,1296.1767525143368,None,1296.1767525143368,None,v,4.944228899465088,1296.1767525143368,None,t,5.231410515294556,1296.1767525143368,None,4.944228899465088,5.231410515294556,6,True,False,False,1301.4591955978976,None,1301.4591955978976,None,1301.4591955978976,None,1301.4591955978976,None,1301.4591955978976,None,1301.4591955978976,None,1302.4755600863646,None,1302.4755600863646,None,h,,,,,,,,,,,,,,,,,,,,,,,,,,,5_6,001,2021_Apr_07_1600,ComputerHuman,2020.1.3,60.064526445520016,
Human.xlsx,h,Sychronize.jpg,Number7.jpg,7,Human,,,,,0,9,9,2,0,5,5,3,,,,,,,,,,,,,,,,,,,,,,,,,,,,,,,,,,,,,,,,,,,,,,,,,,,,,,,,,1303.525121887611,None,1303.525121887611,None,1303.9751746716247,None,1303.9751746716247,None,v,6.329101523340796,1303.9751746716247,None,t,5.524255145519419,1303.9751746716247,None,6.329101523340796,5.524255145519419,7,False,False,False,1310.3566566722911,None,1310.3566566722911,None,1310.3566566722911,None,1310.3566566722911,None,1310.3566566722911,None,1310.3566566722911,None,1311.3575394532818,None,1311.3575394532818,None,h,,,,,,,,,,,,,,,,,,,,,,,,,,,5_6,001,2021_Apr_07_1600,ComputerHuman,2020.1.3,60.064526445520016,
Human.xlsx,h,Sychronize.jpg,Number9.jpg,9,Human,,,,,0,9,9,2,0,6,6,6,,,,,,,,,,,,,,,,,,,,,,,,,,,,,,,,,,,,,,,,,,,,,,,,,,,,,,,,,1312.4229486488985,None,1312.4229486488985,None,1312.872950749992,None,1312.872950749992,None,v,7.810607229501329,1312.872950749992,None,t,7.278135676893726,1312.872950749992,None,7.810607229501329,7.278135676893726,9,False,False,False,1320.7378018560848,None,1320.7378018560848,None,1320.7378018560848,None,1320.7378018560848,None,1320.7378018560848,None,1320.7378018560848,None,1321.7374583028723,None,1321.7374583028723,None,h,,,,,,,,,,,,,,,,,,,,,,,,,,,5_6,001,2021_Apr_07_1600,ComputerHuman,2020.1.3,60.064526445520016,
Human.xlsx,h,Sychronize.jpg,Number9.jpg,9,Human,,,,,0,9,9,2,0,7,7,7,,,,,,,,,,,,,,,,,,,,,,,,,,,,,,,,,,,,,,,,,,,,,,,,,,,,,,,,,1322.7870723909255,None,1322.7870723909255,None,1323.2371280619445,None,1323.2371280619445,None,v,6.4697055675169395,1323.2371280619445,None,t,7.95309103262116,1323.2371280619445,None,6.4697055675169395,7.95309103262116,9,False,False,False,1331.268511054488,None,1331.268511054488,None,1331.268511054488,None,1331.268511054488,None,1331.268511054488,None,1331.268511054488,None,1332.2682836229033,None,1332.2682836229033,None,h,,,,,,,,,,,,,,,,,,,,,,,,,,,5_6,001,2021_Apr_07_1600,ComputerHuman,2020.1.3,60.064526445520016,
Human.xlsx,h,Sychronize.jpg,Number8.jpg,8,Human,,,,,0,9,9,2,0,8,8,4,,,,,,,,,,,,,,,,,,,,,,,,,,,,,,,,,,,,,,,,,,,,,,,,,,,,,,,,,1333.3177527193147,None,1333.3177527193147,None,1333.7679322106305,None,1333.7679322106305,None,v,6.110155477876106,1333.7679322106305,None,t,6.98512712912634,1333.7679322106305,None,6.110155477876106,6.98512712912634,8,False,False,False,1340.8162307882048,None,1340.8162307882048,None,1340.8162307882048,None,1340.8162307882048,None,1340.8162307882048,None,1340.8162307882048,None,1341.8158974998878,None,1341.8158974998878,None,h,,,,,,,,,,,,,,,,,,,,,,,,,,,5_6,001,2021_Apr_07_1600,ComputerHuman,2020.1.3,60.064526445520016,
Human.xlsx,h,Sychronize.jpg,Number8.jpg,8,Human,,,,,0,9,9,2,0,9,9,5,,,,,,,,,,,,,,,,,,,,,,,,,,,,,,,,,,,,,,,,,,,,,,,,,,,,,,,,,1342.8657101495082,None,1342.8657101495082,None,1343.3155464083902,None,1343.3155464083902,None,v,6.929771115293988,1343.3155464083902,None,t,6.425178055837023,1343.3155464083902,None,6.929771115293988,6.425178055837023,8,False,False,False,1350.2972572520666,None,1350.2972572520666,None,1350.2972572520666,None,1350.2972572520666,None,1350.2972572520666,None,1350.2972572520666,None,1351.313608909415,None,1351.313608909415,None,h,,,,,,,,,,,,,,,,,,,,,,,,,,,5_6,001,2021_Apr_07_1600,ComputerHuman,2020.1.3,60.064526445520016,
Human.xlsx,h,,,,,,,,,0,9,9,2,,,,,,,,,,,,,,,,,,,,,,,,,,,,,,,,,,,,,,,,,,,,,,,,,,,,,,,,,,,,,,,,,,,,,,,,,,,,,,,,,,,,,,,,,,,,,,,,,,,h,1352.313447237313,None,1352.313447237313,None,q,1,2.631486090584076,1352.313447237313,None,o,1,2.674469377088826,1352.313447237313,None,h,h,1355.0461108717718,None,None,None,None,None,None,,,,5_6,001,2021_Apr_07_1600,ComputerHuman,2020.1.3,60.064526445520016,
Computer.xlsx,c,Sychronize.jpg,Number9.jpg,9,Computer,,,,,1,0,10,7,0,0,0,6,,,,,,,,,,,,,,,,,,,,,,,,,,,,,,,,,,,,,,,,,,,,,,,,,,,,,1360.0448444403228,None,1360.0448444403228,None,1363.1271419548393,None,1363.1271419548393,None,1363.5773394097232,None,1363.5773394097232,None,v,7.378442629338679,1363.5773394097232,None,t,8.014196029347659,1363.5773394097232,None,7.378442629338679,8.014196029347659,9,False,False,False,1371.642071122249,None,1371.642071122249,None,1371.642071122249,None,1371.642071122249,None,1371.642071122249,None,1371.642071122249,None,1372.641283933095,None,1372.641283933095,None,c,,,,,,,,,,,,,,,,,,,,,,,,,,,5_6,001,2021_Apr_07_1600,ComputerHuman,2020.1.3,60.064526445520016,
Computer.xlsx,c,Sychronize.jpg,Number8.jpg,8,Computer,,,,,1,0,10,7,0,1,1,4,,,,,,,,,,,,,,,,,,,,,,,,,,,,,,,,,,,,,,,,,,,,,,,,,,,,,,,,,1373.708193086528,None,1373.708193086528,None,1374.1413767983213,None,1374.1413767983213,None,v,6.749641450416675,1374.1413767983213,None,t,7.5411466721998295,1374.1413767983213,None,6.749641450416675,7.5411466721998295,8,False,False,False,1381.7562709688536,None,1381.7562709688536,None,1381.7562709688536,None,1381.7562709688536,None,1381.7562709688536,None,1381.7562709688536,None,1382.7560165919167,None,1382.7560165919167,None,c,,,,,,,,,,,,,,,,,,,,,,,,,,,5_6,001,2021_Apr_07_1600,ComputerHuman,2020.1.3,60.064526445520016,
Computer.xlsx,c,Sychronize.jpg,Number7.jpg,7,Computer,,,,,1,0,10,7,0,2,2,3,,,,,,,,,,,,,,,,,,,,,,,,,,,,,,,,,,,,,,,,,,,,,,,,,,,,,,,,,1383.8055338050253,None,1383.8055338050253,None,1384.2556334226247,None,1384.2556334226247,None,v,8.022638584909146,1384.2556334226247,None,t,7.0581483861169545,1384.2556334226247,None,8.022638584909146,7.0581483861169545,7,False,False,True,1392.3369589798713,None,1392.3369589798713,None,1392.3369589798713,None,1392.3369589798713,None,1392.3369589798713,None,1392.3369589798713,None,1393.3367485495219,None,1393.3367485495219,None,c,,,,,,,,,,,,,,,,,,,,,,,,,,,5_6,001,2021_Apr_07_1600,ComputerHuman,2020.1.3,60.064526445520016,
Computer.xlsx,c,Sychronize.jpg,Number8.jpg,8,Computer,,,,,1,0,10,7,0,3,3,5,,,,,,,,,,,,,,,,,,,,,,,,,,,,,,,,,,,,,,,,,,,,,,,,,,,,,,,,,1394.4031649879798,None,1394.4031649879798,None,1394.8363499828847,None,1394.8363499828847,None,v,7.340912247655069,1394.8363499828847,None,t,6.952126774023782,1394.8363499828847,None,7.340912247655069,6.952126774023782,8,False,False,False,1402.2339420950811,None,1402.2339420950811,None,1402.2339420950811,None,1402.2339420950811,None,1402.2339420950811,None,1402.2339420950811,None,1403.251024163881,None,1403.251024163881,None,c,,,,,,,,,,,,,,,,,,,,,,,,,,,5_6,001,2021_Apr_07_1600,ComputerHuman,2020.1.3,60.064526445520016,
Computer.xlsx,c,Sychronize.jpg,Number9.jpg,9,Computer,,,,,1,0,10,7,0,4,4,7,,,,,,,,,,,,,,,,,,,,,,,,,,,,,,,,,,,,,,,,,,,,,,,,,,,,,,,,,1404.3008387381742,None,1404.3008387381742,None,1404.733794697604,None,1404.733794697604,None,v,8.914779877341061,1404.733794697604,None,t,8.458005832384515,1404.733794697604,None,8.914779877341061,8.458005832384515,9,False,True,False,1413.7149788238385,None,1413.7149788238385,None,1413.7149788238385,None,1413.7149788238385,None,1413.7149788238385,None,1413.7149788238385,None,1414.7148784203346,None,1414.7148784203346,None,c,,,,,,,,,,,,,,,,,,,,,,,,,,,5_6,001,2021_Apr_07_1600,ComputerHuman,2020.1.3,60.064526445520016,
Computer.xlsx,c,Sychronize.jpg,Number7.jpg,7,Computer,,,,,1,0,10,7,0,5,5,2,,,,,,,,,,,,,,,,,,,,,,,,,,,,,,,,,,,,,,,,,,,,,,,,,,,,,,,,,1415.7646294805854,None,1415.7646294805854,None,1416.2145456131839,None,1416.2145456131839,None,v,6.229371008921589,1416.2145456131839,None,t,7.396096645272337,1416.2145456131839,None,6.229371008921589,7.396096645272337,7,False,False,False,1423.662666672226,None,1423.662666672226,None,1423.662666672226,None,1423.662666672226,None,1423.662666672226,None,1423.662666672226,None,1424.662664106003,None,1424.662664106003,None,c,,,,,,,,,,,,,,,,,,,,,,,,,,,5_6,001,2021_Apr_07_1600,ComputerHuman,2020.1.3,60.064526445520016,
Computer.xlsx,c,Sychronize.jpg,Number10.jpg,10,Computer,,,,,1,0,10,7,0,6,6,8,,,,,,,,,,,,,,,,,,,,,,,,,,,,,,,,,,,,,,,,,,,,,,,,,,,,,,,,,1425.7119426602949,None,1425.7119426602949,None,1426.1620021806484,None,1426.1620021806484,None,v,7.896982794431096,1426.1620021806484,None,t,10.23186794468711,1426.1620021806484,None,7.896982794431096,10.23186794468711,10,False,False,True,1436.442947872616,None,1436.442947872616,None,1436.442947872616,None,1436.442947872616,None,1436.442947872616,None,1436.442947872616,None,1437.459245318485,None,1437.459245318485,None,c,,,,,,,,,,,,,,,,,,,,,,,,,,,5_6,001,2021_Apr_07_1600,ComputerHuman,2020.1.3,60.064526445520016,
Computer.xlsx,c,Sychronize.jpg,Number10.jpg,10,Computer,,,,,1,0,10,7,0,7,7,9,,,,,,,,,,,,,,,,,,,,,,,,,,,,,,,,,,,,,,,,,,,,,,,,,,,,,,,,,1438.4920779067033,None,1438.4920779067033,None,1438.9423507444117,None,1438.9423507444117,None,v,7.6877649826601555,1438.9423507444117,None,t,8.879056758774823,1438.9423507444117,None,7.6877649826601555,8.879056758774823,10,False,False,False,1447.8901361093012,None,1447.8901361093012,None,1447.8901361093012,None,1447.8901361093012,None,1447.8901361093012,None,1447.8901361093012,None,1448.8899112439394,None,1448.8899112439394,None,c,,,,,,,,,,,,,,,,,,,,,,,,,,,5_6,001,2021_Apr_07_1600,ComputerHuman,2020.1.3,60.064526445520016,
Computer.xlsx,c,Sychronize.jpg,Number6.jpg,6,Computer,,,,,1,0,10,7,0,8,8,1,,,,,,,,,,,,,,,,,,,,,,,,,,,,,,,,,,,,,,,,,,,,,,,,,,,,,,,,,1449.93941049348,None,1449.93941049348,None,1450.3895152435289,None,1450.3895152435289,None,v,6.251783445353794,1450.3895152435289,None,t,6.547232151191565,1450.3895152435289,None,6.251783445353794,6.547232151191565,6,False,True,False,1456.9877571877514,None,1456.9877571877514,None,1456.9877571877514,None,1456.9877571877514,None,1456.9877571877514,None,1456.9877571877514,None,1457.9875900624247,None,1457.9875900624247,None,c,,,,,,,,,,,,,,,,,,,,,,,,,,,5_6,001,2021_Apr_07_1600,ComputerHuman,2020.1.3,60.064526445520016,
Computer.xlsx,c,Sychronize.jpg,Number6.jpg,6,Computer,,,,,1,0,10,7,0,9,9,0,,,,,,,,,,,,,,,,,,,,,,,,,,,,,,,,,,,,,,,,,,,,,,,,,,,,,,,,,1459.037213132262,None,1459.037213132262,None,1459.4873393744347,None,1459.4873393744347,None,v,5.761383849021513,1459.4873393744347,None,t,6.024254022795503,1459.4873393744347,None,5.761383849021513,6.024254022795503,6,False,True,True,1465.56911594552,None,1465.56911594552,None,1465.56911594552,None,1465.56911594552,None,1465.56911594552,None,1465.56911594552,None,1466.585608424397,None,1466.585608424397,None,c,,,,,,,,,,,,,,,,,,,,,,,,,,,5_6,001,2021_Apr_07_1600,ComputerHuman,2020.1.3,60.064526445520016,
Computer.xlsx,c,,,,,,,,,1,0,10,7,,,,,,,,,,,,,,,,,,,,,,,,,,,,,,,,,,,,,,,,,,,,,,,,,,,,,,,,,,,,,,,,,,,,,,,,,,,,,,,,,,,,,,,,,,,,,,,,,,,c,1467.5853408955663,None,1467.5853408955663,None,a,1,2.1709945496622822,1467.5853408955663,None,o,0,3.154309924771951,1467.5853408955663,None,c,h,1470.8011725076576,None,None,None,None,None,None,,,,5_6,001,2021_Apr_07_1600,ComputerHuman,2020.1.3,60.064526445520016,
Human.xlsx,h,Sychronize.jpg,Number8.jpg,8,Human,,,,,1,1,11,8,0,0,0,4,,,,,,,,,,,,,,,,,,,,,,,,,,,,,,,,,,,,,,,,,,,,,,,,,,,,,1475.816825189795,None,1475.816825189795,None,1478.8825128206918,None,1478.8825128206918,None,1479.3324706544263,None,1479.3324706544263,None,v,6.502682826609089,1479.3324706544263,None,t,7.0981263037610915,1479.3324706544263,None,6.502682826609089,7.0981263037610915,8,False,False,False,1486.4807573311373,None,1486.4807573311373,None,1486.4807573311373,None,1486.4807573311373,None,1486.4807573311373,None,1486.4807573311373,None,1487.497180201197,None,1487.497180201197,None,h,,,,,,,,,,,,,,,,,,,,,,,,,,,5_6,001,2021_Apr_07_1600,ComputerHuman,2020.1.3,60.064526445520016,
Human.xlsx,h,Sychronize.jpg,Number10.jpg,10,Human,,,,,1,1,11,8,0,1,1,9,,,,,,,,,,,,,,,,,,,,,,,,,,,,,,,,,,,,,,,,,,,,,,,,,,,,,,,,,1488.5466919610772,None,1488.5466919610772,None,1488.9801977339594,None,1488.9801977339594,None,v,8.386093504854216,1488.9801977339594,None,t,9.640960588894814,1488.9801977339594,None,8.386093504854216,9.640960588894814,10,False,False,False,1498.6944471086827,None,1498.6944471086827,None,1498.6944471086827,None,1498.6944471086827,None,1498.6944471086827,None,1498.6944471086827,None,1499.6941997888607,None,1499.6941997888607,None,h,,,,,,,,,,,,,,,,,,,,,,,,,,,5_6,001,2021_Apr_07_1600,ComputerHuman,2020.1.3,60.064526445520016,
Human.xlsx,h,Sychronize.jpg,Number7.jpg,7,Human,,,,,1,1,11,8,0,2,2,3,,,,,,,,,,,,,,,,,,,,,,,,,,,,,,,,,,,,,,,,,,,,,,,,,,,,,,,,,1500.7439627178974,None,1500.7439627178974,None,1501.1938239974625,None,1501.1938239974625,None,v,7.543621795066429,1501.1938239974625,None,t,6.463178377252916,1501.1938239974625,None,7.543621795066429,6.463178377252916,7,False,False,False,1508.7919446876112,None,1508.7919446876112,None,1508.7919446876112,None,1508.7919446876112,None,1508.7919446876112,None,1508.7919446876112,None,1509.7916925561221,None,1509.7916925561221,None,h,,,,,,,,,,,,,,,,,,,,,,,,,,,5_6,001,2021_Apr_07_1600,ComputerHuman,2020.1.3,60.064526445520016,
Human.xlsx,h,Sychronize.jpg,Number6.jpg,6,Human,,,,,1,1,11,8,0,3,3,1,,,,,,,,,,,,,,,,,,,,,,,,,,,,,,,,,,,,,,,,,,,,,,,,,,,,,,,,,1510.8580785206723,None,1510.8580785206723,None,1511.2913093868265,None,1511.2913093868265,None,v,5.061596107807418,1511.2913093868265,None,t,6.809166615606955,1511.2913093868265,None,5.061596107807418,6.809166615606955,6,False,False,False,1518.1563298636902,None,1518.1563298636902,None,1518.1563298636902,None,1518.1563298636902,None,1518.1563298636902,None,1518.1563298636902,None,1519.1727767920966,None,1519.1727767920966,None,h,,,,,,,,,,,,,,,,,,,,,,,,,,,5_6,001,2021_Apr_07_1600,ComputerHuman,2020.1.3,60.064526445520016,
Human.xlsx,h,Sychronize.jpg,Number7.jpg,7,Human,,,,,1,1,11,8,0,4,4,2,,,,,,,,,,,,,,,,,,,,,,,,,,,,,,,,,,,,,,,,,,,,,,,,,,,,,,,,,1520.2225002654413,None,1520.2225002654413,None,1520.6724080578133,None,1520.6724080578133,None,v,5.9957221049044165,1520.6724080578133,None,t,6.079251727631345,1520.6724080578133,None,5.9957221049044165,6.079251727631345,7,True,False,False,1526.8042632034594,None,1526.8042632034594,None,1526.8042632034594,None,1526.8042632034594,None,1526.8042632034594,None,1526.8042632034594,None,1527.8039520488237,None,1527.8039520488237,None,h,,,,,,,,,,,,,,,,,,,,,,,,,,,5_6,001,2021_Apr_07_1600,ComputerHuman,2020.1.3,60.064526445520016,
Human.xlsx,h,Sychronize.jpg,Number10.jpg,10,Human,,,,,1,1,11,8,0,5,5,8,,,,,,,,,,,,,,,,,,,,,,,,,,,,,,,,,,,,,,,,,,,,,,,,,,,,,,,,,1528.8703142758059,None,1528.8703142758059,None,1529.3202945639969,None,1529.3202945639969,None,v,7.759035112678248,1529.3202945639969,None,t,9.317937808205897,1529.3202945639969,None,7.759035112678248,9.317937808205897,10,False,False,False,1538.701343835175,None,1538.701343835175,None,1538.701343835175,None,1538.701343835175,None,1538.701343835175,None,1538.701343835175,None,1539.7011048555833,None,1539.7011048555833,None,h,,,,,,,,,,,,,,,,,,,,,,,,,,,5_6,001,2021_Apr_07_1600,ComputerHuman,2020.1.3,60.064526445520016,
Human.xlsx,h,Sychronize.jpg,Number9.jpg,9,Human,,,,,1,1,11,8,0,6,6,6,,,,,,,,,,,,,,,,,,,,,,,,,,,,,,,,,,,,,,,,,,,,,,,,,,,,,,,,,1540.7673400544845,None,1540.7673400544845,None,1541.2006382840154,None,1541.2006382840154,None,v,8.629758701183164,1541.2006382840154,None,t,8.073119094275171,1541.2006382840154,None,8.629758701183164,8.073119094275171,9,False,False,False,1549.8819485722306,None,1549.8819485722306,None,1549.8819485722306,None,1549.8819485722306,None,1549.8819485722306,None,1549.8819485722306,None,1550.897922994678,None,1550.897922994678,None,h,,,,,,,,,,,,,,,,,,,,,,,,,,,5_6,001,2021_Apr_07_1600,ComputerHuman,2020.1.3,60.064526445520016,
Human.xlsx,h,Sychronize.jpg,Number8.jpg,8,Human,,,,,1,1,11,8,0,7,7,5,,,,,,,,,,,,,,,,,,,,,,,,,,,,,,,,,,,,,,,,,,,,,,,,,,,,,,,,,1551.9311466112522,None,1551.9311466112522,None,1552.3980110482335,None,1552.3980110482335,None,v,6.355832272896805,1552.3980110482335,None,t,7.047155645646853,1552.3980110482335,None,6.355832272896805,7.047155645646853,8,False,False,False,1559.4962800981957,None,1559.4962800981957,None,1559.4962800981957,None,1559.4962800981957,None,1559.4962800981957,None,1559.4962800981957,None,1560.4959962096873,None,1560.4959962096873,None,h,,,,,,,,,,,,,,,,,,,,,,,,,,,5_6,001,2021_Apr_07_1600,ComputerHuman,2020.1.3,60.064526445520016,
Human.xlsx,h,Sychronize.jpg,Number9.jpg,9,Human,,,,,1,1,11,8,0,8,8,7,,,,,,,,,,,,,,,,,,,,,,,,,,,,,,,,,,,,,,,,,,,,,,,,,,,,,,,,,1561.562216652801,None,1561.562216652801,None,1561.9956688557613,None,1561.9956688557613,None,v,8.309188268121943,1561.9956688557613,None,t,8.856030994851608,1561.9956688557613,None,8.309188268121943,8.856030994851608,9,False,False,False,1570.9101779964913,None,1570.9101779964913,None,1570.9101779964913,None,1570.9101779964913,None,1570.9101779964913,None,1570.9101779964913,None,1571.9099165624393,None,1571.9099165624393,None,h,,,,,,,,,,,,,,,,,,,,,,,,,,,5_6,001,2021_Apr_07_1600,ComputerHuman,2020.1.3,60.064526445520016,
Human.xlsx,h,Sychronize.jpg,Number6.jpg,6,Human,,,,,1,1,11,8,0,9,9,0,,,,,,,,,,,,,,,,,,,,,,,,,,,,,,,,,,,,,,,,,,,,,,,,,,,,,,,,,1572.9761039654222,None,1572.9761039654222,None,1573.4096042850797,None,1573.4096042850797,None,v,5.066597678014659,1573.4096042850797,None,t,5.966275007453078,1573.4096042850797,None,5.066597678014659,5.966275007453078,6,False,False,False,1579.441457858913,None,1579.441457858913,None,1579.441457858913,None,1579.441457858913,None,1579.441457858913,None,1579.441457858913,None,1580.4411977079762,None,1580.4411977079762,None,h,,,,,,,,,,,,,,,,,,,,,,,,,,,5_6,001,2021_Apr_07_1600,ComputerHuman,2020.1.3,60.064526445520016,
Human.xlsx,h,,,,,,,,,1,1,11,8,,,,,,,,,,,,,,,,,,,,,,,,,,,,,,,,,,,,,,,,,,,,,,,,,,,,,,,,,,,,,,,,,,,,,,,,,,,,,,,,,,,,,,,,,,,,,,,,,,,h,1581.4409590491596,None,1581.4409590491596,None,q,1,2.522915897465282,1581.4409590491596,None,l,0,1.422601887908968,1581.4409590491596,None,h,c,None,None,1584.0236509602,None,"['space', 'space']",1585.0067443569533,None,"[0.09301983915429446, 4.856654266459373]",,,5_6,001,2021_Apr_07_1600,ComputerHuman,2020.1.3,60.064526445520016,
Human.xlsx,h,Sychronize.jpg,Number9.jpg,9,Human,,,,,1,2,12,2,0,0,0,6,,,,,,,,,,,,,,,,,,,,,,,,,,,,,,,,,,,,,,,,,,,,,,,,,,,,,1589.9220451777255,None,1589.9220451777255,None,1592.987906991064,None,1592.987906991064,None,1593.4213316071182,None,1593.4213316071182,None,v,7.545223118726426,1593.4213316071182,None,t,7.43208633033646,1593.4213316071182,None,7.545223118726426,7.43208633033646,9,True,False,False,1601.0195052256313,None,1601.0195052256313,None,1601.0195052256313,None,1601.0195052256313,None,1601.0195052256313,None,1601.0195052256313,None,1602.035874525769,None,1602.035874525769,None,h,,,,,,,,,,,,,,,,,,,,,,,,,,,5_6,001,2021_Apr_07_1600,ComputerHuman,2020.1.3,60.064526445520016,
Human.xlsx,h,Sychronize.jpg,Number10.jpg,10,Human,,,,,1,2,12,2,0,1,1,9,,,,,,,,,,,,,,,,,,,,,,,,,,,,,,,,,,,,,,,,,,,,,,,,,,,,,,,,,1603.085467763256,None,1603.085467763256,None,1603.518444573252,None,1603.518444573252,None,v,7.603312160917994,1603.518444573252,None,t,7.719114614290447,1603.518444573252,None,7.603312160917994,7.719114614290447,10,True,False,False,1611.3002395249132,None,1611.3002395249132,None,1611.3002395249132,None,1611.3002395249132,None,1611.3002395249132,None,1611.3002395249132,None,1612.3167900646076,None,1612.3167900646076,None,h,,,,,,,,,,,,,,,,,,,,,,,,,,,5_6,001,2021_Apr_07_1600,ComputerHuman,2020.1.3,60.064526445520016,
Human.xlsx,h,Sychronize.jpg,Number10.jpg,10,Human,,,,,1,2,12,2,0,2,2,8,,,,,,,,,,,,,,,,,,,,,,,,,,,,,,,,,,,,,,,,,,,,,,,,,,,,,,,,,1613.3664468161332,None,1613.3664468161332,None,1613.816406895312,None,1613.816406895312,None,v,7.636583573410462,1613.816406895312,None,t,8.74402751505113,1613.816406895312,None,7.636583573410462,8.74402751505113,10,False,False,False,1622.6143074676147,None,1622.6143074676147,None,1622.6143074676147,None,1622.6143074676147,None,1622.6143074676147,None,1622.6143074676147,None,1623.613906815921,None,1623.613906815921,None,h,,,,,,,,,,,,,,,,,,,,,,,,,,,5_6,001,2021_Apr_07_1600,ComputerHuman,2020.1.3,60.064526445520016,
Human.xlsx,h,Sychronize.jpg,Number6.jpg,6,Human,,,,,1,2,12,2,0,3,3,0,,,,,,,,,,,,,,,,,,,,,,,,,,,,,,,,,,,,,,,,,,,,,,,,,,,,,,,,,1624.6635536233298,None,1624.6635536233298,None,1625.1136432968124,None,1625.1136432968124,None,v,5.202534723415738,1625.1136432968124,None,t,5.15455211214794,1625.1136432968124,None,5.202534723415738,5.15455211214794,6,True,False,False,1630.3784849720323,None,1630.3784849720323,None,1630.3784849720323,None,1630.3784849720323,None,1630.3784849720323,None,1630.3784849720323,None,1631.395447711424,None,1631.395447711424,None,h,,,,,,,,,,,,,,,,,,,,,,,,,,,5_6,001,2021_Apr_07_1600,ComputerHuman,2020.1.3,60.064526445520016,
Human.xlsx,h,Sychronize.jpg,Number7.jpg,7,Human,,,,,1,2,12,2,0,4,4,3,,,,,,,,,,,,,,,,,,,,,,,,,,,,,,,,,,,,,,,,,,,,,,,,,,,,,,,,,1632.4282597698511,None,1632.4282597698511,None,1632.8950995069317,None,1632.8950995069317,None,v,5.432634539898572,1632.8950995069317,None,t,5.532265613146592,1632.8950995069317,None,5.432634539898572,5.532265613146592,7,True,False,False,1638.4770674220745,None,1638.4770674220745,None,1638.4770674220745,None,1638.4770674220745,None,1638.4770674220745,None,1638.4770674220745,None,1639.4767751933396,None,1639.4767751933396,None,h,,,,,,,,,,,,,,,,,,,,,,,,,,,5_6,001,2021_Apr_07_1600,ComputerHuman,2020.1.3,60.064526445520016,
Human.xlsx,h,Sychronize.jpg,Number8.jpg,8,Human,,,,,1,2,12,2,0,5,5,5,,,,,,,,,,,,,,,,,,,,,,,,,,,,,,,,,,,,,,,,,,,,,,,,,,,,,,,,,1640.526374846384,None,1640.526374846384,None,1640.9763923448227,None,1640.9763923448227,None,v,6.646679739438696,1640.9763923448227,None,t,6.8261421861207054,1640.9763923448227,None,6.646679739438696,6.8261421861207054,8,True,False,False,1647.8747326716511,None,1647.8747326716511,None,1647.8747326716511,None,1647.8747326716511,None,1647.8747326716511,None,1647.8747326716511,None,1648.8745042777336,None,1648.8745042777336,None,h,,,,,,,,,,,,,,,,,,,,,,,,,,,5_6,001,2021_Apr_07_1600,ComputerHuman,2020.1.3,60.064526445520016,
Human.xlsx,h,Sychronize.jpg,Number9.jpg,9,Human,,,,,1,2,12,2,0,6,6,7,,,,,,,,,,,,,,,,,,,,,,,,,,,,,,,,,,,,,,,,,,,,,,,,,,,,,,,,,1649.9242649613225,None,1649.9242649613225,None,1650.374181093921,None,1650.374181093921,None,v,7.324114388142334,1650.374181093921,None,t,7.0071908798963705,1650.374181093921,None,7.324114388142334,7.0071908798963705,9,False,False,False,1657.7556720763714,None,1657.7556720763714,None,1657.7556720763714,None,1657.7556720763714,None,1657.7556720763714,None,1657.7556720763714,None,1658.7554722316927,None,1658.7554722316927,None,h,,,,,,,,,,,,,,,,,,,,,,,,,,,5_6,001,2021_Apr_07_1600,ComputerHuman,2020.1.3,60.064526445520016,
Human.xlsx,h,Sychronize.jpg,Number7.jpg,7,Human,,,,,1,2,12,2,0,7,7,2,,,,,,,,,,,,,,,,,,,,,,,,,,,,,,,,,,,,,,,,,,,,,,,,,,,,,,,,,1659.8218723104765,None,1659.8218723104765,None,1660.2550569846026,None,1660.2550569846026,None,v,5.010671962500055,1660.2550569846026,None,t,5.714255790284369,1660.2550569846026,None,5.010671962500055,5.714255790284369,7,False,False,False,1666.0203430977053,None,1666.0203430977053,None,1666.0203430977053,None,1666.0203430977053,None,1666.0203430977053,None,1666.0203430977053,None,1667.0367662885437,None,1667.0367662885437,None,h,,,,,,,,,,,,,,,,,,,,,,,,,,,5_6,001,2021_Apr_07_1600,ComputerHuman,2020.1.3,60.064526445520016,
Human.xlsx,h,Sychronize.jpg,Number8.jpg,8,Human,,,,,1,2,12,2,0,8,8,4,,,,,,,,,,,,,,,,,,,,,,,,,,,,,,,,,,,,,,,,,,,,,,,,,,,,,,,,,1668.0863319391246,None,1668.0863319391246,None,1668.5364046113755,None,1668.5364046113755,None,v,5.556757973976346,1668.5364046113755,None,t,6.964241595858766,1668.5364046113755,None,5.556757973976346,6.964241595858766,8,False,False,False,1675.5513826974275,None,1675.5513826974275,None,1675.5513826974275,None,1675.5513826974275,None,1675.5513826974275,None,1675.5513826974275,None,1676.551184456639,None,1676.551184456639,None,h,,,,,,,,,,,,,,,,,,,,,,,,,,,5_6,001,2021_Apr_07_1600,ComputerHuman,2020.1.3,60.064526445520016,
Human.xlsx,h,Sychronize.jpg,Number6.jpg,6,Human,,,,,1,2,12,2,0,9,9,1,,,,,,,,,,,,,,,,,,,,,,,,,,,,,,,,,,,,,,,,,,,,,,,,,,,,,,,,,1677.6006352687036,None,1677.6006352687036,None,1678.0507522083135,None,1678.0507522083135,None,v,3.8977488122363866,1678.0507522083135,None,t,4.729344223960652,1678.0507522083135,None,3.8977488122363866,4.729344223960652,6,False,False,False,1682.8328894300757,None,1682.8328894300757,None,1682.8328894300757,None,1682.8328894300757,None,1682.8328894300757,None,1682.8328894300757,None,1683.8493325091476,None,1683.8493325091476,None,h,,,,,,,,,,,,,,,,,,,,,,,,,,,5_6,001,2021_Apr_07_1600,ComputerHuman,2020.1.3,60.064526445520016,
Human.xlsx,h,,,,,,,,,1,2,12,2,,,,,,,,,,,,,,,,,,,,,,,,,,,,,,,,,,,,,,,,,,,,,,,,,,,,,,,,,,,,,,,,,,,,,,,,,,,,,,,,,,,,,,,,,,,,,,,,,,,h,1684.8491159840123,None,1684.8491159840123,None,a,0,1.883019649896596,1684.8491159840123,None,o,1,2.1865022401543683,1684.8491159840123,None,c,h,1687.098540748906,None,None,None,None,None,None,,,,5_6,001,2021_Apr_07_1600,ComputerHuman,2020.1.3,60.064526445520016,
Computer.xlsx,c,Sychronize.jpg,Number6.jpg,6,Computer,,,,,1,3,13,9,0,0,0,1,,,,,,,,,,,,,,,,,,,,,,,,,,,,,,,,,,,,,,,,,,,,,,,,,,,,,1692.0973413600514,None,1692.0973413600514,None,1695.1628490345029,None,1695.1628490345029,None,1695.6131481760058,None,1695.6131481760058,None,v,4.56996664871258,1695.6131481760058,None,t,0.1056732472134172,1695.6131481760058,None,4.56996664871258,0.1056732472134172,6,False,False,False,1700.2620377549247,None,1700.2620377549247,None,1700.2620377549247,None,1700.2620377549247,None,1700.2620377549247,None,1700.2620377549247,None,1701.2617676598675,None,1701.2617676598675,None,c,,,,,,,,,,,,,,,,,,,,,,,,,,,5_6,001,2021_Apr_07_1600,ComputerHuman,2020.1.3,60.064526445520016,
Computer.xlsx,c,Sychronize.jpg,Number8.jpg,8,Computer,,,,,1,3,13,9,0,1,1,5,,,,,,,,,,,,,,,,,,,,,,,,,,,,,,,,,,,,,,,,,,,,,,,,,,,,,,,,,1702.2942361650857,None,1702.2942361650857,None,1702.761390264579,None,1702.761390264579,None,v,5.625110949080408,1702.761390264579,None,t,7.20815314966967,1702.761390264579,None,5.625110949080408,7.20815314966967,8,False,False,False,1710.0263230407436,None,1710.0263230407436,None,1710.0263230407436,None,1710.0263230407436,None,1710.0263230407436,None,1710.0263230407436,None,1711.0261148558347,None,1711.0261148558347,None,c,,,,,,,,,,,,,,,,,,,,,,,,,,,5_6,001,2021_Apr_07_1600,ComputerHuman,2020.1.3,60.064526445520016,
Computer.xlsx,c,Sychronize.jpg,Number7.jpg,7,Computer,,,,,1,3,13,9,0,2,2,3,,,,,,,,,,,,,,,,,,,,,,,,,,,,,,,,,,,,,,,,,,,,,,,,,,,,,,,,,1712.0922733888037,None,1712.0922733888037,None,1712.5423608168385,None,1712.5423608168385,None,v,7.827223528678587,1712.5423608168385,None,t,5.698253460152046,1712.5423608168385,None,7.827223528678587,5.698253460152046,7,False,False,False,1720.4234878766765,None,1720.4234878766765,None,1720.4234878766765,None,1720.4234878766765,None,1720.4234878766765,None,1720.4234878766765,None,1721.4401571042217,None,1721.4401571042217,None,c,,,,,,,,,,,,,,,,,,,,,,,,,,,5_6,001,2021_Apr_07_1600,ComputerHuman,2020.1.3,60.064526445520016,
Computer.xlsx,c,Sychronize.jpg,Number10.jpg,10,Computer,,,,,1,3,13,9,0,3,3,8,,,,,,,,,,,,,,,,,,,,,,,,,,,,,,,,,,,,,,,,,,,,,,,,,,,,,,,,,1722.4563836581583,None,1722.4563836581583,None,1722.9230338154484,None,1722.9230338154484,None,v,10.145608822163922,1722.9230338154484,None,t,9.376989184329432,1722.9230338154484,None,10.145608822163922,9.376989184329432,10,False,True,False,1733.1206692968299,None,1733.1206692968299,None,1733.1206692968299,None,1733.1206692968299,None,1733.1206692968299,None,1733.1206692968299,None,1734.1370761279904,None,1734.1370761279904,None,c,,,,,,,,,,,,,,,,,,,,,,,,,,,5_6,001,2021_Apr_07_1600,ComputerHuman,2020.1.3,60.064526445520016,
Computer.xlsx,c,Sychronize.jpg,Number7.jpg,7,Computer,,,,,1,3,13,9,0,4,4,2,,,,,,,,,,,,,,,,,,,,,,,,,,,,,,,,,,,,,,,,,,,,,,,,,,,,,,,,,1735.186823659682,None,1735.186823659682,None,1735.6367458870627,None,1735.6367458870627,None,v,6.531187157590466,1735.6367458870627,None,t,6.626209613648825,1735.6367458870627,None,6.531187157590466,6.626209613648825,7,False,False,False,1742.3183413469014,None,1742.3183413469014,None,1742.3183413469014,None,1742.3183413469014,None,1742.3183413469014,None,1742.3183413469014,None,1743.3182637186292,None,1743.3182637186292,None,c,,,,,,,,,,,,,,,,,,,,,,,,,,,5_6,001,2021_Apr_07_1600,ComputerHuman,2020.1.3,60.064526445520016,
Computer.xlsx,c,Sychronize.jpg,Number10.jpg,10,Computer,,,,,1,3,13,9,0,5,5,9,,,,,,,,,,,,,,,,,,,,,,,,,,,,,,,,,,,,,,,,,,,,,,,,,,,,,,,,,1744.384209896576,None,1744.384209896576,None,1744.81774678492,None,1744.81774678492,None,v,8.725367539387662,1744.81774678492,None,t,9.728943893045653,1744.81774678492,None,8.725367539387662,9.728943893045653,10,False,False,True,1754.5987199034062,None,1754.5987199034062,None,1754.5987199034062,None,1754.5987199034062,None,1754.5987199034062,None,1754.5987199034062,None,1755.598408107213,None,1755.598408107213,None,c,,,,,,,,,,,,,,,,,,,,,,,,,,,5_6,001,2021_Apr_07_1600,ComputerHuman,2020.1.3,60.064526445520016,
Computer.xlsx,c,Sychronize.jpg,Number6.jpg,6,Computer,,,,,1,3,13,9,0,6,6,0,,,,,,,,,,,,,,,,,,,,,,,,,,,,,,,,,,,,,,,,,,,,,,,,,,,,,,,,,1756.6647071409316,None,1756.6647071409316,None,1757.0981115479735,None,1757.0981115479735,None,v,5.672342939884402,1757.0981115479735,None,t,6.1832113788914285,1757.0981115479735,None,5.672342939884402,6.1832113788914285,6,False,False,True,1763.3632996634042,None,1763.3632996634042,None,1763.3632996634042,None,1763.3632996634042,None,1763.3632996634042,None,1763.3632996634042,None,1764.3630468903611,None,1764.3630468903611,None,c,,,,,,,,,,,,,,,,,,,,,,,,,,,5_6,001,2021_Apr_07_1600,ComputerHuman,2020.1.3,60.064526445520016,
Computer.xlsx,c,Sychronize.jpg,Number8.jpg,8,Computer,,,,,1,3,13,9,0,7,7,4,,,,,,,,,,,,,,,,,,,,,,,,,,,,,,,,,,,,,,,,,,,,,,,,,,,,,,,,,1765.4125862371475,None,1765.4125862371475,None,1765.862585451243,None,1765.862585451243,None,v,6.379104715080757,1765.862585451243,None,t,9.254042363863846,1765.862585451243,None,6.379104715080757,9.254042363863846,8,False,False,False,1775.1770813117619,None,1775.1770813117619,None,1775.1770813117619,None,1775.1770813117619,None,1775.1770813117619,None,1775.1770813117619,None,1776.176768232457,None,1776.176768232457,None,c,,,,,,,,,,,,,,,,,,,,,,,,,,,5_6,001,2021_Apr_07_1600,ComputerHuman,2020.1.3,60.064526445520016,
Computer.xlsx,c,Sychronize.jpg,Number9.jpg,9,Computer,,,,,1,3,13,9,0,8,8,6,,,,,,,,,,,,,,,,,,,,,,,,,,,,,,,,,,,,,,,,,,,,,,,,,,,,,,,,,1777.2263929061846,None,1777.2263929061846,None,1777.6764691069948,None,1777.6764691069948,None,v,6.752287547944434,1777.6764691069948,None,t,9.514996210007666,1777.6764691069948,None,6.752287547944434,9.514996210007666,9,False,False,False,1787.2407688919775,None,1787.2407688919775,None,1787.2407688919775,None,1787.2407688919775,None,1787.2407688919775,None,1787.2407688919775,None,1788.2572071593786,None,1788.2572071593786,None,c,,,,,,,,,,,,,,,,,,,,,,,,,,,5_6,001,2021_Apr_07_1600,ComputerHuman,2020.1.3,60.064526445520016,
