Condition,CorrectTuringReply,Sychronize,NumberImage,Number,Partner,trials.thisRepN,trials.thisTrialN,trials.thisN,trials.thisIndex,Block.thisRepN,Block.thisTrialN,Block.thisN,Block.thisIndex,trials_loop.thisRepN,trials_loop.thisTrialN,trials_loop.thisN,trials_loop.thisIndex,textLeft.started,textLeft.stopped,textRight.started,textRight.stopped,key_resp_Istr.keys,key_resp_Istr.rt,key_resp_Istr.started,key_resp_Istr.stopped,SychroLeftPr.started,SychroLeftPr.stopped,SychroRightPr.started,SychroRightPr.stopped,NumberLeftPr.started,NumberLeftPr.stopped,NumberRightPr.started,NumberRightPr.stopped,CrossLeftPr.started,CrossLeftPr.stopped,CrossRightPr.started,CrossRightPr.stopped,key_respPrLeft.keys,key_respPrLeft.rt,key_respPrLeft.started,key_respPrLeft.stopped,key_respPrRight.keys,key_respPrRight.rt,key_respPrRight.started,key_respPrRight.stopped,RTPrLeft,RTPrRight,CompPr,SychronizedRTsPr,SychronizedRTsLeftCPr,SychronizedRTsRightCPr,FeedbackLeftLeftPr.started,FeedbackLeftLeftPr.stopped,FeedbackRightRightPr.started,FeedbackRightRightPr.stopped,LineLeftPr.started,LineLeftPr.stopped,LineRightPr.started,LineRightPr.stopped,CreditLeftPr.started,CreditLeftPr.stopped,CreditRightPr.started,CreditRightPr.stopped,text_StartExp.started,text_StartExp.stopped,key_startExp.keys,key_startExp.rt,key_startExp.started,key_startExp.stopped,SychroLeft.started,SychroLeft.stopped,SychroRight.started,SychroRight.stopped,NumberLeft.started,NumberLeft.stopped,NumberRight.started,NumberRight.stopped,CrossLeft.started,CrossLeft.stopped,CrossRight.started,CrossRight.stopped,key_respLeft.keys,key_respLeft.rt,key_respLeft.started,key_respLeft.stopped,key_respRight.keys,key_respRight.rt,key_respRight.started,key_respRight.stopped,RTLeft,RTRight,Comp,SychronizedRTs,SychronizedRTsLeftC,SychronizedRTsRightC,FeedbackLeftLeft.started,FeedbackLeftLeft.stopped,FeedbackLeftRight.started,FeedbackLeftRight.stopped,FeedbackRightLeft.started,FeedbackRightLeft.stopped,FeedbackRightRight.started,FeedbackRightRight.stopped,LineLeft.started,LineLeft.stopped,LineRight.started,LineRight.stopped,CreditLeft.started,CreditLeft.stopped,CreditRight.started,CreditRight.stopped,CorrectTuringReply,TuringtextLeft.started,TuringtextLeft.stopped,TuringtextRight.started,TuringtextRight.stopped,keyTuringLeft.keys,keyTuringLeft.corr,keyTuringLeft.rt,keyTuringLeft.started,keyTuringLeft.stopped,keyTuringRight.keys,keyTuringRight.corr,keyTuringRight.rt,keyTuringRight.started,keyTuringRight.stopped,RespTuringLeft,RespTuringRight,BlockText.started,BlockText.stopped,text_Pause.started,text_Pause.stopped,key_respPause.keys,key_respPause.started,key_respPause.stopped,key_respPause.rt,EndText.started,EndText.stopped,participant,session,date,expName,psychopyVersion,frameRate,
,,,,,,,,,,,,,,,,,,13.469808951115795,None,13.469808951115795,None,"['t', 't', 't', 't', 'v']","[130.25337788093083, 132.90533624828169, 135.48923784150526, 146.94095465095205, 263.01010533271955]",14.331638150750734,None,,,,,,,,,,,,,,,,,,,,,,,,,,,,,,,,,,,,,,,,,,,,,,,,,,,,,,,,,,,,,,,,,,,,,,,,,,,,,,,,,,,,,,,,,,,,,,,,,,,,,,,,,,,,,,,,,,7_8,001,2021_Apr_08_1013,ComputerHuman,2020.1.3,59.96746988413777,
,,,,,,,,,,,,,,,,,,,,,,,,,,277.3979427478896,None,277.3979427478896,None,336.153225984958,None,336.153225984958,None,336.6031585380133,None,336.6031585380133,None,v,11.824778130829372,336.6031585380133,None,t,10.0844855987541,336.6031585380133,None,11.824778130829372,10.0844855987541,10,False,False,True,348.4842530230827,None,348.4842530230827,None,348.4842530230827,None,348.4842530230827,None,349.48401050279654,None,349.48401050279654,None,350.48383182052214,None,"['space', 'space']","[15.43646016620346, 24.06021175613887]",351.4669805101588,None,,,,,,,,,,,,,,,,,,,,,,,,,,,,,,,,,,,,,,,,,,,,,,,,,,,,,,,,,,,,,,,,,,,,,,7_8,001,2021_Apr_08_1013,ComputerHuman,2020.1.3,59.96746988413777,
Human.xlsx,h,Sychronize.jpg,Number7.jpg,7,Human,,,,,0,0,0,0,0,0,0,2,,,,,,,,,,,,,,,,,,,,,,,,,,,,,,,,,,,,,,,,,,,,,,,,,,,,,375.5784994217688,None,375.5784994217688,None,378.62791806278904,None,378.62791806278904,None,379.07780345912204,None,379.07780345912204,None,v,6.157174638665538,379.07780345912204,None,t,7.388581015730097,379.07780345912204,None,6.157174638665538,7.388581015730097,7,False,False,False,386.526432626036,None,386.526432626036,None,386.526432626036,None,386.526432626036,None,386.526432626036,None,386.526432626036,None,387.5427100358809,None,387.5427100358809,None,h,,,,,,,,,,,,,,,,,,,,,,,,,,,7_8,001,2021_Apr_08_1013,ComputerHuman,2020.1.3,59.96746988413777,
Human.xlsx,h,Sychronize.jpg,Number6.jpg,6,Human,,,,,0,0,0,0,0,1,1,0,,,,,,,,,,,,,,,,,,,,,,,,,,,,,,,,,,,,,,,,,,,,,,,,,,,,,,,,,388.575915105068,None,388.575915105068,None,389.0425180406543,None,389.0425180406543,None,v,5.612186002794033,389.0425180406543,None,t,4.7476910047749925,389.0425180406543,None,5.612186002794033,4.7476910047749925,6,False,False,False,394.70814929112544,None,394.70814929112544,None,394.70814929112544,None,394.70814929112544,None,394.70814929112544,None,394.70814929112544,None,395.7079718920271,None,395.7079718920271,None,h,,,,,,,,,,,,,,,,,,,,,,,,,,,7_8,001,2021_Apr_08_1013,ComputerHuman,2020.1.3,59.96746988413777,
Human.xlsx,h,Sychronize.jpg,Number7.jpg,7,Human,,,,,0,0,0,0,0,2,2,3,,,,,,,,,,,,,,,,,,,,,,,,,,,,,,,,,,,,,,,,,,,,,,,,,,,,,,,,,396.74097133224154,None,396.74097133224154,None,397.20746648103386,None,397.20746648103386,None,v,6.663113658928523,397.20746648103386,None,t,6.9067628193304245,397.20746648103386,None,6.663113658928523,6.9067628193304245,7,True,False,False,404.1900630841459,None,404.1900630841459,None,404.1900630841459,None,404.1900630841459,None,404.1900630841459,None,404.1900630841459,None,405.1897644249045,None,405.1897644249045,None,h,,,,,,,,,,,,,,,,,,,,,,,,,,,7_8,001,2021_Apr_08_1013,ComputerHuman,2020.1.3,59.96746988413777,
Human.xlsx,h,Sychronize.jpg,Number8.jpg,8,Human,,,,,0,0,0,0,0,3,3,5,,,,,,,,,,,,,,,,,,,,,,,,,,,,,,,,,,,,,,,,,,,,,,,,,,,,,,,,,406.2395118798049,None,406.2395118798049,None,406.6889982083653,None,406.6889982083653,None,v,8.153267367387798,406.6889982083653,None,t,7.916619215883202,406.6889982083653,None,8.153267367387798,7.916619215883202,8,True,False,False,414.9045932893097,None,414.9045932893097,None,414.9045932893097,None,414.9045932893097,None,414.9045932893097,None,414.9045932893097,None,415.90447619948895,None,415.90447619948895,None,h,,,,,,,,,,,,,,,,,,,,,,,,,,,7_8,001,2021_Apr_08_1013,ComputerHuman,2020.1.3,59.96746988413777,
Human.xlsx,h,Sychronize.jpg,Number6.jpg,6,Human,,,,,0,0,0,0,0,4,4,1,,,,,,,,,,,,,,,,,,,,,,,,,,,,,,,,,,,,,,,,,,,,,,,,,,,,,,,,,416.9540982239239,None,416.9540982239239,None,417.40419149478794,None,417.40419149478794,None,v,5.129860310239906,417.40419149478794,None,t,6.329587635314965,417.40419149478794,None,5.129860310239906,6.329587635314965,6,False,False,False,423.7862616748977,None,423.7862616748977,None,423.7862616748977,None,423.7862616748977,None,423.7862616748977,None,423.7862616748977,None,424.8027844921751,None,424.8027844921751,None,h,,,,,,,,,,,,,,,,,,,,,,,,,,,7_8,001,2021_Apr_08_1013,ComputerHuman,2020.1.3,59.96746988413777,
Human.xlsx,h,Sychronize.jpg,Number10.jpg,10,Human,,,,,0,0,0,0,0,5,5,8,,,,,,,,,,,,,,,,,,,,,,,,,,,,,,,,,,,,,,,,,,,,,,,,,,,,,,,,,425.85258070776786,None,425.85258070776786,None,426.3024574426621,None,426.3024574426621,None,v,10.675260524851069,426.3024574426621,None,t,10.738716150214941,426.3024574426621,None,10.675260524851069,10.738716150214941,10,True,False,False,437.1170253411243,None,437.1170253411243,None,437.1170253411243,None,437.1170253411243,None,437.1170253411243,None,437.1170253411243,None,438.1168710391962,None,438.1168710391962,None,h,,,,,,,,,,,,,,,,,,,,,,,,,,,7_8,001,2021_Apr_08_1013,ComputerHuman,2020.1.3,59.96746988413777,
Human.xlsx,h,Sychronize.jpg,Number8.jpg,8,Human,,,,,0,0,0,0,0,6,6,4,,,,,,,,,,,,,,,,,,,,,,,,,,,,,,,,,,,,,,,,,,,,,,,,,,,,,,,,,439.1666107950399,None,439.1666107950399,None,439.61655714223843,None,439.61655714223843,None,v,8.128913967853236,439.61655714223843,None,t,8.608518685450235,439.61655714223843,None,8.128913967853236,8.608518685450235,8,False,False,False,448.28158080881803,None,448.28158080881803,None,448.28158080881803,None,448.28158080881803,None,448.28158080881803,None,448.28158080881803,None,449.28145345358837,None,449.28145345358837,None,h,,,,,,,,,,,,,,,,,,,,,,,,,,,7_8,001,2021_Apr_08_1013,ComputerHuman,2020.1.3,59.96746988413777,
Human.xlsx,h,Sychronize.jpg,Number10.jpg,10,Human,,,,,0,0,0,0,0,7,7,9,,,,,,,,,,,,,,,,,,,,,,,,,,,,,,,,,,,,,,,,,,,,,,,,,,,,,,,,,450.3475556296946,None,450.3475556296946,None,450.7810702651202,None,450.7810702651202,None,v,10.356048010034442,450.7810702651202,None,t,10.447518898778299,450.7810702651202,None,10.356048010034442,10.447518898778299,10,True,False,False,461.2790542350426,None,461.2790542350426,None,461.2790542350426,None,461.2790542350426,None,461.2790542350426,None,461.2790542350426,None,462.2788508516279,None,462.2788508516279,None,h,,,,,,,,,,,,,,,,,,,,,,,,,,,7_8,001,2021_Apr_08_1013,ComputerHuman,2020.1.3,59.96746988413777,
Human.xlsx,h,Sychronize.jpg,Number9.jpg,9,Human,,,,,0,0,0,0,0,8,8,6,,,,,,,,,,,,,,,,,,,,,,,,,,,,,,,,,,,,,,,,,,,,,,,,,,,,,,,,,463.34521222931005,None,463.34521222931005,None,463.7785549191359,None,463.7785549191359,None,v,9.49426628791582,463.7785549191359,None,t,9.925513871935777,463.7785549191359,None,9.49426628791582,9.925513871935777,9,False,False,False,473.76004863237483,None,473.76004863237483,None,473.76004863237483,None,473.76004863237483,None,473.76004863237483,None,473.76004863237483,None,474.77640046643455,None,474.77640046643455,None,h,,,,,,,,,,,,,,,,,,,,,,,,,,,7_8,001,2021_Apr_08_1013,ComputerHuman,2020.1.3,59.96746988413777,
Human.xlsx,h,Sychronize.jpg,Number9.jpg,9,Human,,,,,0,0,0,0,0,9,9,7,,,,,,,,,,,,,,,,,,,,,,,,,,,,,,,,,,,,,,,,,,,,,,,,,,,,,,,,,475.8093476172221,None,475.8093476172221,None,476.27607630406783,None,476.27607630406783,None,v,9.636378042931824,476.27607630406783,None,t,9.439543317619723,476.27607630406783,None,9.636378042931824,9.439543317619723,9,True,False,False,485.9908984317984,None,485.9908984317984,None,485.9908984317984,None,485.9908984317984,None,485.9908984317984,None,485.9908984317984,None,486.9907338644613,None,486.9907338644613,None,h,,,,,,,,,,,,,,,,,,,,,,,,,,,7_8,001,2021_Apr_08_1013,ComputerHuman,2020.1.3,59.96746988413777,
Human.xlsx,h,,,,,,,,,0,0,0,0,,,,,,,,,,,,,,,,,,,,,,,,,,,,,,,,,,,,,,,,,,,,,,,,,,,,,,,,,,,,,,,,,,,,,,,,,,,,,,,,,,,,,,,,,,,,,,,,,,,h,487.99053176422285,None,487.99053176422285,None,q,1,13.933579917010547,487.99053176422285,None,o,1,14.184523612846533,487.99053176422285,None,h,h,502.23774462549704,None,None,None,None,None,None,,,,7_8,001,2021_Apr_08_1013,ComputerHuman,2020.1.3,59.96746988413777,
Computer.xlsx,c,Sychronize.jpg,Number10.jpg,10,Computer,,,,,0,1,1,7,0,0,0,8,,,,,,,,,,,,,,,,,,,,,,,,,,,,,,,,,,,,,,,,,,,,,,,,,,,,,507.25348663010686,None,507.25348663010686,None,510.31935623054187,None,510.31935623054187,None,510.7695110938595,None,510.7695110938595,None,v,9.950087656968435,510.7695110938595,None,t,11.24125764091275,510.7695110938595,None,9.950087656968435,11.24125764091275,10,False,True,False,522.0668390399918,None,522.0668390399918,None,522.0668390399918,None,522.0668390399918,None,522.0668390399918,None,522.0668390399918,None,523.0837907588864,None,523.0837907588864,None,c,,,,,,,,,,,,,,,,,,,,,,,,,,,7_8,001,2021_Apr_08_1013,ComputerHuman,2020.1.3,59.96746988413777,
Computer.xlsx,c,Sychronize.jpg,Number7.jpg,7,Computer,,,,,0,1,1,7,0,1,1,2,,,,,,,,,,,,,,,,,,,,,,,,,,,,,,,,,,,,,,,,,,,,,,,,,,,,,,,,,524.1334220863481,None,524.1334220863481,None,524.5834816738391,None,524.5834816738391,None,v,6.611891834669109,524.5834816738391,None,t,7.327603203449257,524.5834816738391,None,6.611891834669109,7.327603203449257,7,False,False,False,531.9653234486,None,531.9653234486,None,531.9653234486,None,531.9653234486,None,531.9653234486,None,531.9653234486,None,532.965147974266,None,532.965147974266,None,c,,,,,,,,,,,,,,,,,,,,,,,,,,,7_8,001,2021_Apr_08_1013,ComputerHuman,2020.1.3,59.96746988413777,
Computer.xlsx,c,Sychronize.jpg,Number9.jpg,9,Computer,,,,,0,1,1,7,0,2,2,6,,,,,,,,,,,,,,,,,,,,,,,,,,,,,,,,,,,,,,,,,,,,,,,,,,,,,,,,,534.0482830301562,None,534.0482830301562,None,534.4649049727886,None,534.4649049727886,None,v,8.82222621432561,534.4649049727886,None,t,9.53758470967341,534.4649049727886,None,8.82222621432561,9.53758470967341,9,False,True,False,544.0630238366003,None,544.0630238366003,None,544.0630238366003,None,544.0630238366003,None,544.0630238366003,None,544.0630238366003,None,545.0628618356155,None,545.0628618356155,None,c,,,,,,,,,,,,,,,,,,,,,,,,,,,7_8,001,2021_Apr_08_1013,ComputerHuman,2020.1.3,59.96746988413777,
Computer.xlsx,c,Sychronize.jpg,Number6.jpg,6,Computer,,,,,0,1,1,7,0,3,3,1,,,,,,,,,,,,,,,,,,,,,,,,,,,,,,,,,,,,,,,,,,,,,,,,,,,,,,,,,546.1291635456081,None,546.1291635456081,None,546.5626018320547,None,546.5626018320547,None,v,5.284248211172212,546.5626018320547,None,t,6.627583795410374,546.5626018320547,None,5.284248211172212,6.627583795410374,6,False,False,False,553.2612466376776,None,553.2612466376776,None,553.2612466376776,None,553.2612466376776,None,553.2612466376776,None,553.2612466376776,None,554.261087523839,None,554.261087523839,None,c,,,,,,,,,,,,,,,,,,,,,,,,,,,7_8,001,2021_Apr_08_1013,ComputerHuman,2020.1.3,59.96746988413777,
Computer.xlsx,c,Sychronize.jpg,Number8.jpg,8,Computer,,,,,0,1,1,7,0,4,4,5,,,,,,,,,,,,,,,,,,,,,,,,,,,,,,,,,,,,,,,,,,,,,,,,,,,,,,,,,555.3106877342799,None,555.3106877342799,None,555.7607627198843,None,555.7607627198843,None,v,7.345808585410623,555.7607627198843,None,t,9.00954939666667,555.7607627198843,None,7.345808585410623,9.00954939666667,8,False,False,False,564.8257270395684,None,564.8257270395684,None,564.8257270395684,None,564.8257270395684,None,564.8257270395684,None,564.8257270395684,None,565.8254912559568,None,565.8254912559568,None,c,,,,,,,,,,,,,,,,,,,,,,,,,,,7_8,001,2021_Apr_08_1013,ComputerHuman,2020.1.3,59.96746988413777,
Computer.xlsx,c,Sychronize.jpg,Number6.jpg,6,Computer,,,,,0,1,1,7,0,5,5,0,,,,,,,,,,,,,,,,,,,,,,,,,,,,,,,,,,,,,,,,,,,,,,,,,,,,,,,,,566.8750340442664,None,566.8750340442664,None,567.3251959650527,None,567.3251959650527,None,v,6.353063663179114,567.3251959650527,None,t,6.956596888618719,567.3251959650527,None,6.353063663179114,6.956596888618719,6,False,False,False,574.3405113136034,None,574.3405113136034,None,574.3405113136034,None,574.3405113136034,None,574.3405113136034,None,574.3405113136034,None,575.3569792751017,None,575.3569792751017,None,c,,,,,,,,,,,,,,,,,,,,,,,,,,,7_8,001,2021_Apr_08_1013,ComputerHuman,2020.1.3,59.96746988413777,
Computer.xlsx,c,Sychronize.jpg,Number9.jpg,9,Computer,,,,,0,1,1,7,0,6,6,7,,,,,,,,,,,,,,,,,,,,,,,,,,,,,,,,,,,,,,,,,,,,,,,,,,,,,,,,,576.4065688993396,None,576.4065688993396,None,576.8567183091589,None,576.8567183091589,None,v,9.061282887402967,576.8567183091589,None,t,10.624475301265761,576.8567183091589,None,9.061282887402967,10.624475301265761,9,False,True,False,587.5547391703946,None,587.5547391703946,None,587.5547391703946,None,587.5547391703946,None,587.5547391703946,None,587.5547391703946,None,588.5543846929921,None,588.5543846929921,None,c,,,,,,,,,,,,,,,,,,,,,,,,,,,7_8,001,2021_Apr_08_1013,ComputerHuman,2020.1.3,59.96746988413777,
Computer.xlsx,c,Sychronize.jpg,Number7.jpg,7,Computer,,,,,0,1,1,7,0,7,7,3,,,,,,,,,,,,,,,,,,,,,,,,,,,,,,,,,,,,,,,,,,,,,,,,,,,,,,,,,589.6208705387576,None,589.6208705387576,None,590.0541724877417,None,590.0541724877417,None,v,7.203527130352995,590.0541724877417,None,t,8.87854385174171,590.0541724877417,None,7.203527130352995,8.87854385174171,7,False,True,False,598.9857067012268,None,598.9857067012268,None,598.9857067012268,None,598.9857067012268,None,598.9857067012268,None,598.9857067012268,None,599.9855918569643,None,599.9855918569643,None,c,,,,,,,,,,,,,,,,,,,,,,,,,,,7_8,001,2021_Apr_08_1013,ComputerHuman,2020.1.3,59.96746988413777,
Computer.xlsx,c,Sychronize.jpg,Number8.jpg,8,Computer,,,,,0,1,1,7,0,8,8,4,,,,,,,,,,,,,,,,,,,,,,,,,,,,,,,,,,,,,,,,,,,,,,,,,,,,,,,,,601.0519532346465,None,601.0519532346465,None,601.4852452390156,None,601.4852452390156,None,v,7.880180222085755,601.4852452390156,None,t,6.915558991616081,601.4852452390156,None,7.880180222085755,6.915558991616081,8,False,True,False,609.4170681671272,None,609.4170681671272,None,609.4170681671272,None,609.4170681671272,None,609.4170681671272,None,609.4170681671272,None,610.4335261840107,None,610.4335261840107,None,c,,,,,,,,,,,,,,,,,,,,,,,,,,,7_8,001,2021_Apr_08_1013,ComputerHuman,2020.1.3,59.96746988413777,
Computer.xlsx,c,Sychronize.jpg,Number10.jpg,10,Computer,,,,,0,1,1,7,0,9,9,9,,,,,,,,,,,,,,,,,,,,,,,,,,,,,,,,,,,,,,,,,,,,,,,,,,,,,,,,,611.4832887162305,None,611.4832887162305,None,611.9166150455609,None,611.9166150455609,None,v,10.200484078190357,611.9166150455609,None,t,9.199277251051853,611.9166150455609,None,10.200484078190357,9.199277251051853,10,False,True,False,622.1812386819857,None,622.1812386819857,None,622.1812386819857,None,622.1812386819857,None,622.1812386819857,None,622.1812386819857,None,623.1977278158898,None,623.1977278158898,None,c,,,,,,,,,,,,,,,,,,,,,,,,,,,7_8,001,2021_Apr_08_1013,ComputerHuman,2020.1.3,59.96746988413777,
Computer.xlsx,c,,,,,,,,,0,1,1,7,,,,,,,,,,,,,,,,,,,,,,,,,,,,,,,,,,,,,,,,,,,,,,,,,,,,,,,,,,,,,,,,,,,,,,,,,,,,,,,,,,,,,,,,,,,,,,,,,,,c,624.1975911576334,None,624.1975911576334,None,q,0,3.051394732241306,624.1975911576334,None,l,1,94.58439593682283,624.1975911576334,None,h,c,718.8462026808758,None,None,None,None,None,None,,,,7_8,001,2021_Apr_08_1013,ComputerHuman,2020.1.3,59.96746988413777,
Computer.xlsx,c,Sychronize.jpg,Number7.jpg,7,Computer,,,,,0,2,2,5,0,0,0,2,,,,,,,,,,,,,,,,,,,,,,,,,,,,,,,,,,,,,,,,,,,,,,,,,,,,,723.8615946991994,None,723.8615946991994,None,726.927512418739,None,726.927512418739,None,727.3775906122836,None,727.3775906122836,None,v,7.140721433692761,727.3775906122836,None,t,8.711515703669875,727.3775906122836,None,7.140721433692761,8.711515703669875,7,False,True,False,736.1591728646746,None,736.1591728646746,None,736.1591728646746,None,736.1591728646746,None,736.1591728646746,None,736.1591728646746,None,737.1590150340122,None,737.1590150340122,None,c,,,,,,,,,,,,,,,,,,,,,,,,,,,7_8,001,2021_Apr_08_1013,ComputerHuman,2020.1.3,59.96746988413777,
Computer.xlsx,c,Sychronize.jpg,Number10.jpg,10,Computer,,,,,0,2,2,5,0,1,1,9,,,,,,,,,,,,,,,,,,,,,,,,,,,,,,,,,,,,,,,,,,,,,,,,,,,,,,,,,738.2087599225603,None,738.2087599225603,None,738.6586674536815,None,738.6586674536815,None,v,9.551310523808525,738.6586674536815,None,t,11.298455537145628,738.6586674536815,None,9.551310523808525,11.298455537145628,10,False,False,False,750.006497041477,None,750.006497041477,None,750.006497041477,None,750.006497041477,None,750.006497041477,None,750.006497041477,None,751.0064033696204,None,751.0064033696204,None,c,,,,,,,,,,,,,,,,,,,,,,,,,,,7_8,001,2021_Apr_08_1013,ComputerHuman,2020.1.3,59.96746988413777,
Computer.xlsx,c,Sychronize.jpg,Number9.jpg,9,Computer,,,,,0,2,2,5,0,2,2,7,,,,,,,,,,,,,,,,,,,,,,,,,,,,,,,,,,,,,,,,,,,,,,,,,,,,,,,,,752.0725806115296,None,752.0725806115296,None,752.5227094905309,None,752.5227094905309,None,v,11.314839450608133,752.5227094905309,None,t,9.054584387275327,752.5227094905309,None,11.314839450608133,9.054584387275327,9,False,False,True,763.8871456228457,None,763.8871456228457,None,763.8871456228457,None,763.8871456228457,None,763.8871456228457,None,763.8871456228457,None,764.886952825634,None,764.886952825634,None,c,,,,,,,,,,,,,,,,,,,,,,,,,,,7_8,001,2021_Apr_08_1013,ComputerHuman,2020.1.3,59.96746988413777,
Computer.xlsx,c,Sychronize.jpg,Number8.jpg,8,Computer,,,,,0,2,2,5,0,3,3,4,,,,,,,,,,,,,,,,,,,,,,,,,,,,,,,,,,,,,,,,,,,,,,,,,,,,,,,,,765.9534402753696,None,765.9534402753696,None,766.3866556099657,None,766.3866556099657,None,v,9.094645145664572,766.3866556099657,None,t,7.997687075048134,766.3866556099657,None,9.094645145664572,7.997687075048134,8,False,False,True,775.5348294097549,None,775.5348294097549,None,775.5348294097549,None,775.5348294097549,None,775.5348294097549,None,775.5348294097549,None,776.5513794945249,None,776.5513794945249,None,c,,,,,,,,,,,,,,,,,,,,,,,,,,,7_8,001,2021_Apr_08_1013,ComputerHuman,2020.1.3,59.96746988413777,
Computer.xlsx,c,Sychronize.jpg,Number10.jpg,10,Computer,,,,,0,2,2,5,0,4,4,8,,,,,,,,,,,,,,,,,,,,,,,,,,,,,,,,,,,,,,,,,,,,,,,,,,,,,,,,,777.6009408888882,None,777.6009408888882,None,778.0344651481347,None,778.0344651481347,None,v,10.614523628886218,778.0344651481347,None,t,9.721522873416461,778.0344651481347,None,10.614523628886218,9.721522873416461,10,False,False,True,788.7156674199979,None,788.7156674199979,None,788.7156674199979,None,788.7156674199979,None,788.7156674199979,None,788.7156674199979,None,789.71516441496,None,789.71516441496,None,c,,,,,,,,,,,,,,,,,,,,,,,,,,,7_8,001,2021_Apr_08_1013,ComputerHuman,2020.1.3,59.96746988413777,
Computer.xlsx,c,Sychronize.jpg,Number6.jpg,6,Computer,,,,,0,2,2,5,0,5,5,1,,,,,,,,,,,,,,,,,,,,,,,,,,,,,,,,,,,,,,,,,,,,,,,,,,,,,,,,,790.7479623965238,None,790.7479623965238,None,791.2151912012613,None,791.2151912012613,None,v,6.085566353839113,791.2151912012613,None,t,5.868558816783207,791.2151912012613,None,6.085566353839113,5.868558816783207,6,False,True,True,797.3639658482676,None,797.3639658482676,None,797.3639658482676,None,797.3639658482676,None,797.3639658482676,None,797.3639658482676,None,798.3638561367096,None,798.3638561367096,None,c,,,,,,,,,,,,,,,,,,,,,,,,,,,7_8,001,2021_Apr_08_1013,ComputerHuman,2020.1.3,59.96746988413777,
Computer.xlsx,c,Sychronize.jpg,Number9.jpg,9,Computer,,,,,0,2,2,5,0,6,6,6,,,,,,,,,,,,,,,,,,,,,,,,,,,,,,,,,,,,,,,,,,,,,,,,,,,,,,,,,799.4133649208521,None,799.4133649208521,None,799.8635756023308,None,799.8635756023308,None,v,9.640855365199968,799.8635756023308,None,t,8.88054207775076,799.8635756023308,None,9.640855365199968,8.88054207775076,9,False,False,True,809.5616856443067,None,809.5616856443067,None,809.5616856443067,None,809.5616856443067,None,809.5616856443067,None,809.5616856443067,None,810.578085918265,None,810.578085918265,None,c,,,,,,,,,,,,,,,,,,,,,,,,,,,7_8,001,2021_Apr_08_1013,ComputerHuman,2020.1.3,59.96746988413777,
Computer.xlsx,c,Sychronize.jpg,Number7.jpg,7,Computer,,,,,0,2,2,5,0,7,7,3,,,,,,,,,,,,,,,,,,,,,,,,,,,,,,,,,,,,,,,,,,,,,,,,,,,,,,,,,811.6276380096014,None,811.6276380096014,None,812.0611965938091,None,812.0611965938091,None,v,7.235011139572634,812.0611965938091,None,t,8.2304959636092,812.0611965938091,None,7.235011139572634,8.2304959636092,7,False,True,False,820.359526700489,None,820.359526700489,None,820.359526700489,None,820.359526700489,None,820.359526700489,None,820.359526700489,None,821.3593669450623,None,821.3593669450623,None,c,,,,,,,,,,,,,,,,,,,,,,,,,,,7_8,001,2021_Apr_08_1013,ComputerHuman,2020.1.3,59.96746988413777,
Computer.xlsx,c,Sychronize.jpg,Number6.jpg,6,Computer,,,,,0,2,2,5,0,8,8,0,,,,,,,,,,,,,,,,,,,,,,,,,,,,,,,,,,,,,,,,,,,,,,,,,,,,,,,,,822.4092154500821,None,822.4092154500821,None,822.8590745413047,None,822.8590745413047,None,v,5.216903920584173,822.8590745413047,None,t,5.960611946690278,822.8590745413047,None,5.216903920584173,5.960611946690278,6,False,False,True,828.8747286483505,None,828.8747286483505,None,828.8747286483505,None,828.8747286483505,None,828.8747286483505,None,828.8747286483505,None,829.8743629431568,None,829.8743629431568,None,c,,,,,,,,,,,,,,,,,,,,,,,,,,,7_8,001,2021_Apr_08_1013,ComputerHuman,2020.1.3,59.96746988413777,
Computer.xlsx,c,Sychronize.jpg,Number8.jpg,8,Computer,,,,,0,2,2,5,0,9,9,5,,,,,,,,,,,,,,,,,,,,,,,,,,,,,,,,,,,,,,,,,,,,,,,,,,,,,,,,,830.940691599848,None,830.940691599848,None,831.374134698205,None,831.374134698205,None,v,8.461553316769596,831.374134698205,None,t,8.47652477412089,831.374134698205,None,8.461553316769596,8.47652477412089,8,False,False,False,839.9057494309917,None,839.9057494309917,None,839.9057494309917,None,839.9057494309917,None,839.9057494309917,None,839.9057494309917,None,840.9222767393854,None,840.9222767393854,None,c,,,,,,,,,,,,,,,,,,,,,,,,,,,7_8,001,2021_Apr_08_1013,ComputerHuman,2020.1.3,59.96746988413777,
Computer.xlsx,c,,,,,,,,,0,2,2,5,,,,,,,,,,,,,,,,,,,,,,,,,,,,,,,,,,,,,,,,,,,,,,,,,,,,,,,,,,,,,,,,,,,,,,,,,,,,,,,,,,,,,,,,,,,,,,,,,,,c,841.9220861877319,None,841.9220861877319,None,q,0,2.165478712910044,841.9220861877319,None,o,0,3.3687036552873906,841.9220861877319,None,h,h,845.3547619467707,None,None,None,None,None,None,,,,7_8,001,2021_Apr_08_1013,ComputerHuman,2020.1.3,59.96746988413777,
Human.xlsx,h,Sychronize.jpg,Number10.jpg,10,Human,,,,,0,3,3,4,0,0,0,8,,,,,,,,,,,,,,,,,,,,,,,,,,,,,,,,,,,,,,,,,,,,,,,,,,,,,850.3537158374407,None,850.3537158374407,None,853.4529252405554,None,853.4529252405554,None,853.8864196659571,None,853.8864196659571,None,v,10.58072412836259,853.8864196659571,None,t,9.591503128543764,853.8864196659571,None,10.58072412836259,9.591503128543764,10,False,False,False,864.5176634004489,None,864.5176634004489,None,864.5176634004489,None,864.5176634004489,None,864.5176634004489,None,864.5176634004489,None,865.517458413064,None,865.517458413064,None,h,,,,,,,,,,,,,,,,,,,,,,,,,,,7_8,001,2021_Apr_08_1013,ComputerHuman,2020.1.3,59.96746988413777,
Human.xlsx,h,Sychronize.jpg,Number9.jpg,9,Human,,,,,0,3,3,4,0,1,1,7,,,,,,,,,,,,,,,,,,,,,,,,,,,,,,,,,,,,,,,,,,,,,,,,,,,,,,,,,866.567059906681,None,866.567059906681,None,867.0172564732226,None,867.0172564732226,None,v,9.349518568360509,867.0172564732226,None,t,8.600555615258827,867.0172564732226,None,9.349518568360509,8.600555615258827,9,False,False,False,876.432045077977,None,876.432045077977,None,876.432045077977,None,876.432045077977,None,876.432045077977,None,876.432045077977,None,877.4484989245381,None,877.4484989245381,None,h,,,,,,,,,,,,,,,,,,,,,,,,,,,7_8,001,2021_Apr_08_1013,ComputerHuman,2020.1.3,59.96746988413777,
Human.xlsx,h,Sychronize.jpg,Number6.jpg,6,Human,,,,,0,3,3,4,0,2,2,0,,,,,,,,,,,,,,,,,,,,,,,,,,,,,,,,,,,,,,,,,,,,,,,,,,,,,,,,,878.4981568779043,None,878.4981568779043,None,878.9315836157658,None,878.9315836157658,None,v,5.947000656023647,878.9315836157658,None,t,6.474580120714791,878.9315836157658,None,5.947000656023647,6.474580120714791,6,False,False,False,885.4802998782587,None,885.4802998782587,None,885.4802998782587,None,885.4802998782587,None,885.4802998782587,None,885.4802998782587,None,886.4800846254649,None,886.4800846254649,None,h,,,,,,,,,,,,,,,,,,,,,,,,,,,7_8,001,2021_Apr_08_1013,ComputerHuman,2020.1.3,59.96746988413777,
Human.xlsx,h,Sychronize.jpg,Number9.jpg,9,Human,,,,,0,3,3,4,0,3,3,6,,,,,,,,,,,,,,,,,,,,,,,,,,,,,,,,,,,,,,,,,,,,,,,,,,,,,,,,,887.5296684754104,None,887.5296684754104,None,887.9798127525252,None,887.9798127525252,None,v,9.23044142862409,887.9798127525252,None,t,9.469475004531205,887.9798127525252,None,9.23044142862409,9.469475004531205,9,True,False,False,897.5113014132581,None,897.5113014132581,None,897.5113014132581,None,897.5113014132581,None,897.5113014132581,None,897.5113014132581,None,898.5111198438375,None,898.5111198438375,None,h,,,,,,,,,,,,,,,,,,,,,,,,,,,7_8,001,2021_Apr_08_1013,ComputerHuman,2020.1.3,59.96746988413777,
Human.xlsx,h,Sychronize.jpg,Number7.jpg,7,Human,,,,,0,3,3,4,0,4,4,2,,,,,,,,,,,,,,,,,,,,,,,,,,,,,,,,,,,,,,,,,,,,,,,,,,,,,,,,,899.577442726236,None,899.577442726236,None,900.0108065884677,None,900.0108065884677,None,v,6.6233611836016735,900.0108065884677,None,t,7.246590841651141,900.0108065884677,None,6.6233611836016735,7.246590841651141,7,False,False,False,907.3093041496312,None,907.3093041496312,None,907.3093041496312,None,907.3093041496312,None,907.3093041496312,None,907.3093041496312,None,908.3258863138038,None,908.3258863138038,None,h,,,,,,,,,,,,,,,,,,,,,,,,,,,7_8,001,2021_Apr_08_1013,ComputerHuman,2020.1.3,59.96746988413777,
Human.xlsx,h,Sychronize.jpg,Number6.jpg,6,Human,,,,,0,3,3,4,0,5,5,1,,,,,,,,,,,,,,,,,,,,,,,,,,,,,,,,,,,,,,,,,,,,,,,,,,,,,,,,,909.3757101176833,None,909.3757101176833,None,909.8256064210133,None,909.8256064210133,None,v,6.340188594809888,909.8256064210133,None,t,6.51556829464289,909.8256064210133,None,6.340188594809888,6.51556829464289,6,True,False,False,916.39106973581,None,916.39106973581,None,916.39106973581,None,916.39106973581,None,916.39106973581,None,916.39106973581,None,917.3907970608851,None,917.3907970608851,None,h,,,,,,,,,,,,,,,,,,,,,,,,,,,7_8,001,2021_Apr_08_1013,ComputerHuman,2020.1.3,59.96746988413777,
Human.xlsx,h,Sychronize.jpg,Number10.jpg,10,Human,,,,,0,3,3,4,0,6,6,9,,,,,,,,,,,,,,,,,,,,,,,,,,,,,,,,,,,,,,,,,,,,,,,,,,,,,,,,,918.4570214595166,None,918.4570214595166,None,918.9071480929598,None,918.9071480929598,None,v,11.142348821803807,918.9071480929598,None,t,12.597424023944086,918.9071480929598,None,11.142348821803807,12.597424023944086,10,False,False,False,931.5546708412663,None,931.5546708412663,None,931.5546708412663,None,931.5546708412663,None,931.5546708412663,None,931.5546708412663,None,932.554513010604,None,932.554513010604,None,h,,,,,,,,,,,,,,,,,,,,,,,,,,,7_8,001,2021_Apr_08_1013,ComputerHuman,2020.1.3,59.96746988413777,
Human.xlsx,h,Sychronize.jpg,Number7.jpg,7,Human,,,,,0,3,3,4,0,7,7,3,,,,,,,,,,,,,,,,,,,,,,,,,,,,,,,,,,,,,,,,,,,,,,,,,,,,,,,,,933.6041693599999,None,933.6041693599999,None,934.054240175282,None,934.054240175282,None,v,8.326933385515758,934.054240175282,None,t,7.542567603331918,934.054240175282,None,8.326933385515758,7.542567603331918,7,False,False,False,942.4359719176906,None,942.4359719176906,None,942.4359719176906,None,942.4359719176906,None,942.4359719176906,None,942.4359719176906,None,943.4523997799353,None,943.4523997799353,None,h,,,,,,,,,,,,,,,,,,,,,,,,,,,7_8,001,2021_Apr_08_1013,ComputerHuman,2020.1.3,59.96746988413777,
Human.xlsx,h,Sychronize.jpg,Number8.jpg,8,Human,,,,,0,3,3,4,0,8,8,4,,,,,,,,,,,,,,,,,,,,,,,,,,,,,,,,,,,,,,,,,,,,,,,,,,,,,,,,,944.5019493049195,None,944.5019493049195,None,944.9355184753302,None,944.9355184753302,None,v,8.085369065510804,944.9355184753302,None,t,8.18055924023156,944.9355184753302,None,8.085369065510804,8.18055924023156,8,True,False,False,953.1838133748655,None,953.1838133748655,None,953.1838133748655,None,953.1838133748655,None,953.1838133748655,None,953.1838133748655,None,954.1836889067821,None,954.1836889067821,None,h,,,,,,,,,,,,,,,,,,,,,,,,,,,7_8,001,2021_Apr_08_1013,ComputerHuman,2020.1.3,59.96746988413777,
Human.xlsx,h,Sychronize.jpg,Number8.jpg,8,Human,,,,,0,3,3,4,0,9,9,5,,,,,,,,,,,,,,,,,,,,,,,,,,,,,,,,,,,,,,,,,,,,,,,,,,,,,,,,,955.2334453439154,None,955.2334453439154,None,955.6833827088811,None,955.6833827088811,None,v,8.821239772685203,955.6833827088811,None,t,8.98066029035067,955.6833827088811,None,8.821239772685203,8.98066029035067,8,True,False,False,964.7148753795394,None,964.7148753795394,None,964.7148753795394,None,964.7148753795394,None,964.7148753795394,None,964.7148753795394,None,965.7147640640113,None,965.7147640640113,None,h,,,,,,,,,,,,,,,,,,,,,,,,,,,7_8,001,2021_Apr_08_1013,ComputerHuman,2020.1.3,59.96746988413777,
Human.xlsx,h,,,,,,,,,0,3,3,4,,,,,,,,,,,,,,,,,,,,,,,,,,,,,,,,,,,,,,,,,,,,,,,,,,,,,,,,,,,,,,,,,,,,,,,,,,,,,,,,,,,,,,,,,,,,,,,,,,,h,966.7145523399519,None,966.7145523399519,None,q,1,1.7421152837503087,966.7145523399519,None,o,1,1.981669508367304,966.7145523399519,None,h,h,None,None,968.7475241918797,None,"['space', 'space']",969.7306995074208,None,"[2.993686773501622, 4.085796363158124]",,,7_8,001,2021_Apr_08_1013,ComputerHuman,2020.1.3,59.96746988413777,
Computer.xlsx,c,Sychronize.jpg,Number8.jpg,8,Computer,,,,,0,4,4,1,0,0,0,5,,,,,,,,,,,,,,,,,,,,,,,,,,,,,,,,,,,,,,,,,,,,,,,,,,,,,973.879854616146,None,973.879854616146,None,976.9460312164671,None,976.9460312164671,None,977.3958373766746,None,977.3958373766746,None,v,8.09625777725023,977.3958373766746,None,t,7.8875934513107495,977.3958373766746,None,8.09625777725023,7.8875934513107495,8,False,True,True,985.5609298535736,None,985.5609298535736,None,985.5609298535736,None,985.5609298535736,None,985.5609298535736,None,985.5609298535736,None,986.5606979194903,None,986.5606979194903,None,c,,,,,,,,,,,,,,,,,,,,,,,,,,,7_8,001,2021_Apr_08_1013,ComputerHuman,2020.1.3,59.96746988413777,
Computer.xlsx,c,Sychronize.jpg,Number10.jpg,10,Computer,,,,,0,4,4,1,0,1,1,8,,,,,,,,,,,,,,,,,,,,,,,,,,,,,,,,,,,,,,,,,,,,,,,,,,,,,,,,,987.6102358958896,None,987.6102358958896,None,988.0605473066936,None,988.0605473066936,None,v,10.355304730268244,988.0605473066936,None,t,10.182464435971951,988.0605473066936,None,10.355304730268244,10.182464435971951,10,False,False,True,998.4750481592038,None,998.4750481592038,None,998.4750481592038,None,998.4750481592038,None,998.4750481592038,None,998.4750481592038,None,999.4749583368754,None,999.4749583368754,None,c,,,,,,,,,,,,,,,,,,,,,,,,,,,7_8,001,2021_Apr_08_1013,ComputerHuman,2020.1.3,59.96746988413777,
Computer.xlsx,c,Sychronize.jpg,Number6.jpg,6,Computer,,,,,0,4,4,1,0,2,2,1,,,,,,,,,,,,,,,,,,,,,,,,,,,,,,,,,,,,,,,,,,,,,,,,,,,,,,,,,1000.5411538640443,None,1000.5411538640443,None,1000.9745712988789,None,1000.9745712988789,None,v,5.936947933525062,1000.9745712988789,None,t,6.076566798138856,1000.9745712988789,None,5.936947933525062,6.076566798138856,6,False,True,True,1007.1067807837961,None,1007.1067807837961,None,1007.1067807837961,None,1007.1067807837961,None,1007.1067807837961,None,1007.1067807837961,None,1008.1232474621182,None,1008.1232474621182,None,c,,,,,,,,,,,,,,,,,,,,,,,,,,,7_8,001,2021_Apr_08_1013,ComputerHuman,2020.1.3,59.96746988413777,
Computer.xlsx,c,Sychronize.jpg,Number7.jpg,7,Computer,,,,,0,4,4,1,0,3,3,3,,,,,,,,,,,,,,,,,,,,,,,,,,,,,,,,,,,,,,,,,,,,,,,,,,,,,,,,,1009.1727687572278,None,1009.1727687572278,None,1009.6229531335963,None,1009.6229531335963,None,v,6.948368842559148,1009.6229531335963,None,t,7.631541110557009,1009.6229531335963,None,6.948368842559148,7.631541110557009,7,False,True,False,1017.304793464784,None,1017.304793464784,None,1017.304793464784,None,1017.304793464784,None,1017.304793464784,None,1017.304793464784,None,1018.3212652758108,None,1018.3212652758108,None,c,,,,,,,,,,,,,,,,,,,,,,,,,,,7_8,001,2021_Apr_08_1013,ComputerHuman,2020.1.3,59.96746988413777,
Computer.xlsx,c,Sychronize.jpg,Number10.jpg,10,Computer,,,,,0,4,4,1,0,4,4,9,,,,,,,,,,,,,,,,,,,,,,,,,,,,,,,,,,,,,,,,,,,,,,,,,,,,,,,,,1019.3708327652606,None,1019.3708327652606,None,1019.820961644262,None,1019.820961644262,None,v,10.410000753865916,1019.820961644262,None,t,11.333476621333148,1019.820961644262,None,10.410000753865916,11.333476621333148,10,False,False,False,1031.21877767851,None,1031.21877767851,None,1031.21877767851,None,1031.21877767851,None,1031.21877767851,None,1031.21877767851,None,1032.21855953857,None,1032.21855953857,None,c,,,,,,,,,,,,,,,,,,,,,,,,,,,7_8,001,2021_Apr_08_1013,ComputerHuman,2020.1.3,59.96746988413777,
Computer.xlsx,c,Sychronize.jpg,Number8.jpg,8,Computer,,,,,0,4,4,1,0,5,5,4,,,,,,,,,,,,,,,,,,,,,,,,,,,,,,,,,,,,,,,,,,,,,,,,,,,,,,,,,1033.2681328023123,None,1033.2681328023123,None,1033.718300818185,None,1033.718300818185,None,v,9.072394871786628,1033.718300818185,None,t,8.651527220175467,1033.718300818185,None,9.072394871786628,8.651527220175467,8,False,False,False,1042.84981033053,None,1042.84981033053,None,1042.84981033053,None,1042.84981033053,None,1042.84981033053,None,1042.84981033053,None,1043.866327373515,None,1043.866327373515,None,c,,,,,,,,,,,,,,,,,,,,,,,,,,,7_8,001,2021_Apr_08_1013,ComputerHuman,2020.1.3,59.96746988413777,
Computer.xlsx,c,Sychronize.jpg,Number6.jpg,6,Computer,,,,,0,4,4,1,0,6,6,0,,,,,,,,,,,,,,,,,,,,,,,,,,,,,,,,,,,,,,,,,,,,,,,,,,,,,,,,,1044.9161325713408,None,1044.9161325713408,None,1045.349385438838,None,1045.349385438838,None,v,4.957193244719292,1045.349385438838,None,t,6.184577185449598,1045.349385438838,None,4.957193244719292,6.184577185449598,6,False,False,True,1051.6147716026708,None,1051.6147716026708,None,1051.6147716026708,None,1051.6147716026708,None,1051.6147716026708,None,1051.6147716026708,None,1052.6146038273937,None,1052.6146038273937,None,c,,,,,,,,,,,,,,,,,,,,,,,,,,,7_8,001,2021_Apr_08_1013,ComputerHuman,2020.1.3,59.96746988413777,
Computer.xlsx,c,Sychronize.jpg,Number9.jpg,9,Computer,,,,,0,4,4,1,0,7,7,7,,,,,,,,,,,,,,,,,,,,,,,,,,,,,,,,,,,,,,,,,,,,,,,,,,,,,,,,,1053.6811182238275,None,1053.6811182238275,None,1054.1143191226925,None,1054.1143191226925,None,v,9.403797880513821,1054.1143191226925,None,t,9.607511392197921,1054.1143191226925,None,9.403797880513821,9.607511392197921,9,False,False,False,1063.7791288196545,None,1063.7791288196545,None,1063.7791288196545,None,1063.7791288196545,None,1063.7791288196545,None,1063.7791288196545,None,1064.778952062144,None,1064.778952062144,None,c,,,,,,,,,,,,,,,,,,,,,,,,,,,7_8,001,2021_Apr_08_1013,ComputerHuman,2020.1.3,59.96746988413777,
Computer.xlsx,c,Sychronize.jpg,Number7.jpg,7,Computer,,,,,0,4,4,1,0,8,8,2,,,,,,,,,,,,,,,,,,,,,,,,,,,,,,,,,,,,,,,,,,,,,,,,,,,,,,,,,1065.8451838390383,None,1065.8451838390383,None,1066.2786291829539,None,1066.2786291829539,None,v,7.655308098605474,1066.2786291829539,None,t,7.4745836494489595,1066.2786291829539,None,7.655308098605474,7.4745836494489595,7,False,False,False,1073.9937579897764,None,1073.9937579897764,None,1073.9937579897764,None,1073.9937579897764,None,1073.9937579897764,None,1073.9937579897764,None,1075.0102644465583,None,1075.0102644465583,None,c,,,,,,,,,,,,,,,,,,,,,,,,,,,7_8,001,2021_Apr_08_1013,ComputerHuman,2020.1.3,59.96746988413777,
Computer.xlsx,c,Sychronize.jpg,Number9.jpg,9,Computer,,,,,0,4,4,1,0,9,9,6,,,,,,,,,,,,,,,,,,,,,,,,,,,,,,,,,,,,,,,,,,,,,,,,,,,,,,,,,1076.0601232169865,None,1076.0601232169865,None,1076.5101058139107,None,1076.5101058139107,None,v,9.755603068715573,1076.5101058139107,None,t,9.654568989162044,1076.5101058139107,None,9.755603068715573,9.654568989162044,9,False,False,False,1086.3414069705336,None,1086.3414069705336,None,1086.3414069705336,None,1086.3414069705336,None,1086.3414069705336,None,1086.3414069705336,None,1087.3412395160503,None,1087.3412395160503,None,c,,,,,,,,,,,,,,,,,,,,,,,,,,,7_8,001,2021_Apr_08_1013,ComputerHuman,2020.1.3,59.96746988413777,
Computer.xlsx,c,,,,,,,,,0,4,4,1,,,,,,,,,,,,,,,,,,,,,,,,,,,,,,,,,,,,,,,,,,,,,,,,,,,,,,,,,,,,,,,,,,,,,,,,,,,,,,,,,,,,,,,,,,,,,,,,,,,c,1088.3410175265817,None,1088.3410175265817,None,a,1,2.8844124577153707,1088.3410175265817,None,l,1,2.1716921724653275,1088.3410175265817,None,c,c,1091.2904680866081,None,None,None,None,None,None,,,,7_8,001,2021_Apr_08_1013,ComputerHuman,2020.1.3,59.96746988413777,
Human.xlsx,h,Sychronize.jpg,Number7.jpg,7,Human,,,,,0,5,5,2,0,0,0,3,,,,,,,,,,,,,,,,,,,,,,,,,,,,,,,,,,,,,,,,,,,,,,,,,,,,,1096.2895416334513,None,1096.2895416334513,None,1099.3383077794156,None,1099.3383077794156,None,1099.8055089958666,None,1099.8055089958666,None,v,8.071610851179003,1099.8055089958666,None,t,7.502481823008338,1099.8055089958666,None,8.071610851179003,7.502481823008338,7,False,False,False,1107.937229269889,None,1107.937229269889,None,1107.937229269889,None,1107.937229269889,None,1107.937229269889,None,1107.937229269889,None,1108.9537398969928,None,1108.9537398969928,None,h,,,,,,,,,,,,,,,,,,,,,,,,,,,7_8,001,2021_Apr_08_1013,ComputerHuman,2020.1.3,59.96746988413777,
Human.xlsx,h,Sychronize.jpg,Number9.jpg,9,Human,,,,,0,5,5,2,0,1,1,7,,,,,,,,,,,,,,,,,,,,,,,,,,,,,,,,,,,,,,,,,,,,,,,,,,,,,,,,,1110.0032974418282,None,1110.0032974418282,None,1110.4534843845486,None,1110.4534843845486,None,v,10.027235413094559,1110.4534843845486,None,t,10.118426569444637,1110.4534843845486,None,10.027235413094559,10.118426569444637,9,True,False,False,1120.6514665901036,None,1120.6514665901036,None,1120.6514665901036,None,1120.6514665901036,None,1120.6514665901036,None,1120.6514665901036,None,1121.6512664146294,None,1121.6512664146294,None,h,,,,,,,,,,,,,,,,,,,,,,,,,,,7_8,001,2021_Apr_08_1013,ComputerHuman,2020.1.3,59.96746988413777,
Human.xlsx,h,Sychronize.jpg,Number9.jpg,9,Human,,,,,0,5,5,2,0,2,2,6,,,,,,,,,,,,,,,,,,,,,,,,,,,,,,,,,,,,,,,,,,,,,,,,,,,,,,,,,1122.684125026265,None,1122.684125026265,None,1123.1509807475463,None,1123.1509807475463,None,v,9.965412308546092,1123.1509807475463,None,t,9.080530849959814,1123.1509807475463,None,9.965412308546092,9.080530849959814,9,False,False,False,1133.165747859101,None,1133.165747859101,None,1133.165747859101,None,1133.165747859101,None,1133.165747859101,None,1133.165747859101,None,1134.1655050180207,None,1134.1655050180207,None,h,,,,,,,,,,,,,,,,,,,,,,,,,,,7_8,001,2021_Apr_08_1013,ComputerHuman,2020.1.3,59.96746988413777,
Human.xlsx,h,Sychronize.jpg,Number10.jpg,10,Human,,,,,0,5,5,2,0,3,3,9,,,,,,,,,,,,,,,,,,,,,,,,,,,,,,,,,,,,,,,,,,,,,,,,,,,,,,,,,1135.2486400739108,None,1135.2486400739108,None,1135.6818685610624,None,1135.6818685610624,None,v,10.18221582059914,1135.6818685610624,None,t,10.741456693608143,1135.6818685610624,None,10.18221582059914,10.741456693608143,10,False,False,False,1146.4797997603669,None,1146.4797997603669,None,1146.4797997603669,None,1146.4797997603669,None,1146.4797997603669,None,1146.4797997603669,None,1147.4796085671255,None,1147.4796085671255,None,h,,,,,,,,,,,,,,,,,,,,,,,,,,,7_8,001,2021_Apr_08_1013,ComputerHuman,2020.1.3,59.96746988413777,
Human.xlsx,h,Sychronize.jpg,Number8.jpg,8,Human,,,,,0,5,5,2,0,4,4,5,,,,,,,,,,,,,,,,,,,,,,,,,,,,,,,,,,,,,,,,,,,,,,,,,,,,,,,,,1148.529238611411,None,1148.529238611411,None,1148.9793386189494,None,1148.9793386189494,None,v,7.9565599973052485,1148.9793386189494,None,t,8.491554295191463,1148.9793386189494,None,7.9565599973052485,8.491554295191463,8,False,False,False,1157.5277215764459,None,1157.5277215764459,None,1157.5277215764459,None,1157.5277215764459,None,1157.5277215764459,None,1157.5277215764459,None,1158.5440839967087,None,1158.5440839967087,None,h,,,,,,,,,,,,,,,,,,,,,,,,,,,7_8,001,2021_Apr_08_1013,ComputerHuman,2020.1.3,59.96746988413777,
Human.xlsx,h,Sychronize.jpg,Number6.jpg,6,Human,,,,,0,5,5,2,0,5,5,0,,,,,,,,,,,,,,,,,,,,,,,,,,,,,,,,,,,,,,,,,,,,,,,,,,,,,,,,,1159.5937692175671,None,1159.5937692175671,None,1160.0438865479837,None,1160.0438865479837,None,v,5.783682490901583,1160.0438865479837,None,t,6.3025235262321075,1160.0438865479837,None,5.783682490901583,6.3025235262321075,6,False,False,False,1166.4092141669057,None,1166.4092141669057,None,1166.4092141669057,None,1166.4092141669057,None,1166.4092141669057,None,1166.4092141669057,None,1167.4090771878555,None,1167.4090771878555,None,h,,,,,,,,,,,,,,,,,,,,,,,,,,,7_8,001,2021_Apr_08_1013,ComputerHuman,2020.1.3,59.96746988413777,
Human.xlsx,h,Sychronize.jpg,Number8.jpg,8,Human,,,,,0,5,5,2,0,6,6,4,,,,,,,,,,,,,,,,,,,,,,,,,,,,,,,,,,,,,,,,,,,,,,,,,,,,,,,,,1168.4753035112512,None,1168.4753035112512,None,1168.925481150945,None,1168.925481150945,None,v,8.609823354767741,1168.925481150945,None,t,8.71352932779223,1168.925481150945,None,8.609823354767741,8.71352932779223,8,True,False,False,1177.6904443478497,None,1177.6904443478497,None,1177.6904443478497,None,1177.6904443478497,None,1177.6904443478497,None,1177.6904443478497,None,1178.7069206499928,None,1178.7069206499928,None,h,,,,,,,,,,,,,,,,,,,,,,,,,,,7_8,001,2021_Apr_08_1013,ComputerHuman,2020.1.3,59.96746988413777,
Human.xlsx,h,Sychronize.jpg,Number6.jpg,6,Human,,,,,0,5,5,2,0,7,7,1,,,,,,,,,,,,,,,,,,,,,,,,,,,,,,,,,,,,,,,,,,,,,,,,,,,,,,,,,1179.7565282386963,None,1179.7565282386963,None,1180.1898606631134,None,1180.1898606631134,None,v,5.66530532373713,1180.1898606631134,None,t,6.104613178539694,1180.1898606631134,None,5.66530532373713,6.104613178539694,6,False,False,False,1186.3720973353243,None,1186.3720973353243,None,1186.3720973353243,None,1186.3720973353243,None,1186.3720973353243,None,1186.3720973353243,None,1187.371883044913,None,1187.371883044913,None,h,,,,,,,,,,,,,,,,,,,,,,,,,,,7_8,001,2021_Apr_08_1013,ComputerHuman,2020.1.3,59.96746988413777,
Human.xlsx,h,Sychronize.jpg,Number7.jpg,7,Human,,,,,0,5,5,2,0,8,8,2,,,,,,,,,,,,,,,,,,,,,,,,,,,,,,,,,,,,,,,,,,,,,,,,,,,,,,,,,1188.4383515678005,None,1188.4383515678005,None,1188.8716256077041,None,1188.8716256077041,None,v,6.163241495349212,1188.8716256077041,None,t,7.21058363661723,1188.8716256077041,None,6.163241495349212,7.21058363661723,7,False,False,False,1196.136933497794,None,1196.136933497794,None,1196.136933497794,None,1196.136933497794,None,1196.136933497794,None,1196.136933497794,None,1197.1366829576568,None,1197.1366829576568,None,h,,,,,,,,,,,,,,,,,,,,,,,,,,,7_8,001,2021_Apr_08_1013,ComputerHuman,2020.1.3,59.96746988413777,
Human.xlsx,h,Sychronize.jpg,Number10.jpg,10,Human,,,,,0,5,5,2,0,9,9,8,,,,,,,,,,,,,,,,,,,,,,,,,,,,,,,,,,,,,,,,,,,,,,,,,,,,,,,,,1198.202849613363,None,1198.202849613363,None,1198.6363966489857,None,1198.6363966489857,None,v,10.238182509347098,1198.6363966489857,None,t,10.769487675895334,1198.6363966489857,None,10.238182509347098,10.769487675895334,10,False,False,False,1209.4675656384684,None,1209.4675656384684,None,1209.4675656384684,None,1209.4675656384684,None,1209.4675656384684,None,1209.4675656384684,None,1210.484090701304,None,1210.484090701304,None,h,,,,,,,,,,,,,,,,,,,,,,,,,,,7_8,001,2021_Apr_08_1013,ComputerHuman,2020.1.3,59.96746988413777,
Human.xlsx,h,,,,,,,,,0,5,5,2,,,,,,,,,,,,,,,,,,,,,,,,,,,,,,,,,,,,,,,,,,,,,,,,,,,,,,,,,,,,,,,,,,,,,,,,,,,,,,,,,,,,,,,,,,,,,,,,,,,h,1211.4672336166477,None,1211.4672336166477,None,q,1,2.7151458089063,1211.4672336166477,None,l,0,2.57476826641323,1211.4672336166477,None,h,c,1214.233343652208,None,None,None,None,None,None,,,,7_8,001,2021_Apr_08_1013,ComputerHuman,2020.1.3,59.96746988413777,
Human.xlsx,h,Sychronize.jpg,Number7.jpg,7,Human,,,,,0,6,6,8,0,0,0,2,,,,,,,,,,,,,,,,,,,,,,,,,,,,,,,,,,,,,,,,,,,,,,,,,,,,,1219.2490442743879,None,1219.2490442743879,None,1222.3149757880706,None,1222.3149757880706,None,1222.7650501320868,None,1222.7650501320868,None,v,7.300919876879334,1222.7650501320868,None,t,8.620530497086293,1222.7650501320868,None,7.300919876879334,8.620530497086293,7,False,False,False,1231.4466806639794,None,1231.4466806639794,None,1231.4466806639794,None,1231.4466806639794,None,1231.4466806639794,None,1231.4466806639794,None,1232.4465032648814,None,1232.4465032648814,None,h,,,,,,,,,,,,,,,,,,,,,,,,,,,7_8,001,2021_Apr_08_1013,ComputerHuman,2020.1.3,59.96746988413777,
Human.xlsx,h,Sychronize.jpg,Number9.jpg,9,Human,,,,,0,6,6,8,0,1,1,7,,,,,,,,,,,,,,,,,,,,,,,,,,,,,,,,,,,,,,,,,,,,,,,,,,,,,,,,,1233.5126943009336,None,1233.5126943009336,None,1233.9462182393863,None,1233.9462182393863,None,v,10.183414948681047,1233.9462182393863,None,t,9.242535363531942,1233.9462182393863,None,10.183414948681047,9.242535363531942,9,False,False,False,1244.1942337273217,None,1244.1942337273217,None,1244.1942337273217,None,1244.1942337273217,None,1244.1942337273217,None,1244.1942337273217,None,1245.1940322686714,None,1245.1940322686714,None,h,,,,,,,,,,,,,,,,,,,,,,,,,,,7_8,001,2021_Apr_08_1013,ComputerHuman,2020.1.3,59.96746988413777,
Human.xlsx,h,Sychronize.jpg,Number6.jpg,6,Human,,,,,0,6,6,8,0,2,2,1,,,,,,,,,,,,,,,,,,,,,,,,,,,,,,,,,,,,,,,,,,,,,,,,,,,,,,,,,1246.2602666119178,None,1246.2602666119178,None,1246.6937446768243,None,1246.6937446768243,None,v,5.995702322388524,1246.6937446768243,None,t,5.99845345198446,1246.6937446768243,None,5.995702322388524,5.99845345198446,6,True,False,False,1252.759219379809,None,1252.759219379809,None,1252.759219379809,None,1252.759219379809,None,1252.759219379809,None,1252.759219379809,None,1253.7590297905376,None,1253.7590297905376,None,h,,,,,,,,,,,,,,,,,,,,,,,,,,,7_8,001,2021_Apr_08_1013,ComputerHuman,2020.1.3,59.96746988413777,
Human.xlsx,h,Sychronize.jpg,Number9.jpg,9,Human,,,,,0,6,6,8,0,3,3,6,,,,,,,,,,,,,,,,,,,,,,,,,,,,,,,,,,,,,,,,,,,,,,,,,,,,,,,,,1254.8085844482262,None,1254.8085844482262,None,1255.2587685038006,None,1255.2587685038006,None,v,10.718287344835971,1255.2587685038006,None,t,8.789528320498903,1255.2587685038006,None,10.718287344835971,8.789528320498903,9,False,False,False,1266.040003977846,None,1266.040003977846,None,1266.040003977846,None,1266.040003977846,None,1266.040003977846,None,1266.040003977846,None,1267.0397932161686,None,1267.0397932161686,None,h,,,,,,,,,,,,,,,,,,,,,,,,,,,7_8,001,2021_Apr_08_1013,ComputerHuman,2020.1.3,59.96746988413777,
Human.xlsx,h,Sychronize.jpg,Number10.jpg,10,Human,,,,,0,6,6,8,0,4,4,8,,,,,,,,,,,,,,,,,,,,,,,,,,,,,,,,,,,,,,,,,,,,,,,,,,,,,,,,,1268.1062777787579,None,1268.1062777787579,None,1268.5561904425836,None,1268.5561904425836,None,v,10.79259286586148,1268.5561904425836,None,t,9.959525096518973,1268.5561904425836,None,10.79259286586148,9.959525096518973,10,False,False,False,1279.4040740841733,None,1279.4040740841733,None,1279.4040740841733,None,1279.4040740841733,None,1279.4040740841733,None,1279.4040740841733,None,1280.403831884681,None,1280.403831884681,None,h,,,,,,,,,,,,,,,,,,,,,,,,,,,7_8,001,2021_Apr_08_1013,ComputerHuman,2020.1.3,59.96746988413777,
Human.xlsx,h,Sychronize.jpg,Number6.jpg,6,Human,,,,,0,6,6,8,0,5,5,0,,,,,,,,,,,,,,,,,,,,,,,,,,,,,,,,,,,,,,,,,,,,,,,,,,,,,,,,,1281.4534500595873,None,1281.4534500595873,None,1281.9035975446427,None,1281.9035975446427,None,v,5.4609713964005095,1281.9035975446427,None,t,6.184599320237567,1281.9035975446427,None,5.4609713964005095,6.184599320237567,6,False,False,False,1288.1524037898607,None,1288.1524037898607,None,1288.1524037898607,None,1288.1524037898607,None,1288.1524037898607,None,1288.1524037898607,None,1289.1688669394484,None,1289.1688669394484,None,h,,,,,,,,,,,,,,,,,,,,,,,,,,,7_8,001,2021_Apr_08_1013,ComputerHuman,2020.1.3,59.96746988413777,
Human.xlsx,h,Sychronize.jpg,Number8.jpg,8,Human,,,,,0,6,6,8,0,6,6,5,,,,,,,,,,,,,,,,,,,,,,,,,,,,,,,,,,,,,,,,,,,,,,,,,,,,,,,,,1290.2186621926594,None,1290.2186621926594,None,1290.668567478222,None,1290.668567478222,None,v,7.331791811090852,1290.668567478222,None,t,7.9265365633016245,1290.668567478222,None,7.331791811090852,7.9265365633016245,8,False,False,False,1298.650320393037,None,1298.650320393037,None,1298.650320393037,None,1298.650320393037,None,1298.650320393037,None,1298.650320393037,None,1299.6501827723982,None,1299.6501827723982,None,h,,,,,,,,,,,,,,,,,,,,,,,,,,,7_8,001,2021_Apr_08_1013,ComputerHuman,2020.1.3,59.96746988413777,
Human.xlsx,h,Sychronize.jpg,Number10.jpg,10,Human,,,,,0,6,6,8,0,7,7,9,,,,,,,,,,,,,,,,,,,,,,,,,,,,,,,,,,,,,,,,,,,,,,,,,,,,,,,,,1300.6995234604692,None,1300.6995234604692,None,1301.1498855567302,None,1301.1498855567302,None,v,9.858096440309055,1301.1498855567302,None,t,10.197754762588374,1301.1498855567302,None,9.858096440309055,10.197754762588374,10,False,False,False,1311.397873135585,None,1311.397873135585,None,1311.397873135585,None,1311.397873135585,None,1311.397873135585,None,1311.397873135585,None,1312.3977743310243,None,1312.3977743310243,None,h,,,,,,,,,,,,,,,,,,,,,,,,,,,7_8,001,2021_Apr_08_1013,ComputerHuman,2020.1.3,59.96746988413777,
Human.xlsx,h,Sychronize.jpg,Number7.jpg,7,Human,,,,,0,6,6,8,0,8,8,3,,,,,,,,,,,,,,,,,,,,,,,,,,,,,,,,,,,,,,,,,,,,,,,,,,,,,,,,,1313.4471910472803,None,1313.4471910472803,None,1313.8973709325323,None,1313.8973709325323,None,v,7.41038057399669,1313.8973709325323,None,t,7.093562465815467,1313.8973709325323,None,7.41038057399669,7.093562465815467,7,False,False,False,1321.3625649407413,None,1321.3625649407413,None,1321.3625649407413,None,1321.3625649407413,None,1321.3625649407413,None,1321.3625649407413,None,1322.3790765302278,None,1322.3790765302278,None,h,,,,,,,,,,,,,,,,,,,,,,,,,,,7_8,001,2021_Apr_08_1013,ComputerHuman,2020.1.3,59.96746988413777,
Human.xlsx,h,Sychronize.jpg,Number8.jpg,8,Human,,,,,0,6,6,8,0,9,9,4,,,,,,,,,,,,,,,,,,,,,,,,,,,,,,,,,,,,,,,,,,,,,,,,,,,,,,,,,1323.4289147698382,None,1323.4289147698382,None,1323.8788107523742,None,1323.8788107523742,None,v,8.048807528394263,1323.8788107523742,None,t,7.5555774051933895,1323.8788107523742,None,8.048807528394263,7.5555774051933895,8,False,False,False,1331.9938680221285,None,1331.9938680221285,None,1331.9938680221285,None,1331.9938680221285,None,1331.9938680221285,None,1331.9938680221285,None,1332.993699605263,None,1332.993699605263,None,h,,,,,,,,,,,,,,,,,,,,,,,,,,,7_8,001,2021_Apr_08_1013,ComputerHuman,2020.1.3,59.96746988413777,
Human.xlsx,h,,,,,,,,,0,6,6,8,,,,,,,,,,,,,,,,,,,,,,,,,,,,,,,,,,,,,,,,,,,,,,,,,,,,,,,,,,,,,,,,,,,,,,,,,,,,,,,,,,,,,,,,,,,,,,,,,,,h,1333.9936040086423,None,1333.9936040086423,None,q,1,1.3418836704611294,1333.9936040086423,None,l,0,2.992654779109216,1333.9936040086423,None,h,c,1337.0429376392449,None,None,None,None,None,None,,,,7_8,001,2021_Apr_08_1013,ComputerHuman,2020.1.3,59.96746988413777,
Computer.xlsx,c,Sychronize.jpg,Number10.jpg,10,Computer,,,,,0,7,7,9,0,0,0,9,,,,,,,,,,,,,,,,,,,,,,,,,,,,,,,,,,,,,,,,,,,,,,,,,,,,,1342.0586045780515,None,1342.0586045780515,None,1345.1244764240446,None,1345.1244764240446,None,1345.5579455067182,None,1345.5579455067182,None,v,10.989019220374303,1345.5579455067182,None,t,10.416461224823706,1345.5579455067182,None,10.989019220374303,10.416461224823706,10,False,False,False,1356.6058034847856,None,1356.6058034847856,None,1356.6058034847856,None,1356.6058034847856,None,1356.6058034847856,None,1356.6058034847856,None,1357.6222307054422,None,1357.6222307054422,None,c,,,,,,,,,,,,,,,,,,,,,,,,,,,7_8,001,2021_Apr_08_1013,ComputerHuman,2020.1.3,59.96746988413777,
Computer.xlsx,c,Sychronize.jpg,Number6.jpg,6,Computer,,,,,0,7,7,9,0,1,1,1,,,,,,,,,,,,,,,,,,,,,,,,,,,,,,,,,,,,,,,,,,,,,,,,,,,,,,,,,1358.6718212920623,None,1358.6718212920623,None,1359.1219973277857,None,1359.1219973277857,None,v,5.98064617541354,1359.1219973277857,None,t,5.4236107613564855,1359.1219973277857,None,5.98064617541354,5.4236107613564855,6,False,True,False,1365.1541501925567,None,1365.1541501925567,None,1365.1541501925567,None,1365.1541501925567,None,1365.1541501925567,None,1365.1541501925567,None,1366.1539397516735,None,1366.1539397516735,None,c,,,,,,,,,,,,,,,,,,,,,,,,,,,7_8,001,2021_Apr_08_1013,ComputerHuman,2020.1.3,59.96746988413777,
Computer.xlsx,c,Sychronize.jpg,Number7.jpg,7,Computer,,,,,0,7,7,9,0,2,2,2,,,,,,,,,,,,,,,,,,,,,,,,,,,,,,,,,,,,,,,,,,,,,,,,,,,,,,,,,1367.2202061743228,None,1367.2202061743228,None,1367.653675256996,None,1367.653675256996,None,v,6.392749092553913,1367.653675256996,None,t,7.079515216062873,1367.653675256996,None,6.392749092553913,7.079515216062873,7,False,False,True,1374.78562971066,None,1374.78562971066,None,1374.78562971066,None,1374.78562971066,None,1374.78562971066,None,1374.78562971066,None,1375.8021310347372,None,1375.8021310347372,None,c,,,,,,,,,,,,,,,,,,,,,,,,,,,7_8,001,2021_Apr_08_1013,ComputerHuman,2020.1.3,59.96746988413777,
Computer.xlsx,c,Sychronize.jpg,Number8.jpg,8,Computer,,,,,0,7,7,9,0,3,3,5,,,,,,,,,,,,,,,,,,,,,,,,,,,,,,,,,,,,,,,,,,,,,,,,,,,,,,,,,1376.8516391772914,None,1376.8516391772914,None,1377.2850899747054,None,1377.2850899747054,None,v,7.781060962093306,1377.2850899747054,None,t,8.952461853579962,1377.2850899747054,None,7.781060962093306,8.952461853579962,8,False,True,False,1386.3167029431247,None,1386.3167029431247,None,1386.3167029431247,None,1386.3167029431247,None,1386.3167029431247,None,1386.3167029431247,None,1387.3164912190655,None,1387.3164912190655,None,c,,,,,,,,,,,,,,,,,,,,,,,,,,,7_8,001,2021_Apr_08_1013,ComputerHuman,2020.1.3,59.96746988413777,
Computer.xlsx,c,Sychronize.jpg,Number10.jpg,10,Computer,,,,,0,7,7,9,0,4,4,8,,,,,,,,,,,,,,,,,,,,,,,,,,,,,,,,,,,,,,,,,,,,,,,,,,,,,,,,,1388.3829879718278,None,1388.3829879718278,None,1388.8162395561494,None,1388.8162395561494,None,v,9.74956476270063,1388.8162395561494,None,t,10.68049492102864,1388.8162395561494,None,9.74956476270063,10.68049492102864,10,False,True,False,1399.5474783183336,None,1399.5474783183336,None,1399.5474783183336,None,1399.5474783183336,None,1399.5474783183336,None,1399.5474783183336,None,1400.547298352883,None,1400.547298352883,None,c,,,,,,,,,,,,,,,,,,,,,,,,,,,7_8,001,2021_Apr_08_1013,ComputerHuman,2020.1.3,59.96746988413777,
Computer.xlsx,c,Sychronize.jpg,Number7.jpg,7,Computer,,,,,0,7,7,9,0,5,5,3,,,,,,,,,,,,,,,,,,,,,,,,,,,,,,,,,,,,,,,,,,,,,,,,,,,,,,,,,1401.613627651162,None,1401.613627651162,None,1402.063707769471,None,1402.063707769471,None,v,6.473877902584491,1402.063707769471,None,t,6.789680697662789,1402.063707769471,None,6.473877902584491,6.789680697662789,7,False,False,True,1408.912392754546,None,1408.912392754546,None,1408.912392754546,None,1408.912392754546,None,1408.912392754546,None,1408.912392754546,None,1409.9287853294472,None,1409.9287853294472,None,c,,,,,,,,,,,,,,,,,,,,,,,,,,,7_8,001,2021_Apr_08_1013,ComputerHuman,2020.1.3,59.96746988413777,
Computer.xlsx,c,Sychronize.jpg,Number9.jpg,9,Computer,,,,,0,7,7,9,0,6,6,6,,,,,,,,,,,,,,,,,,,,,,,,,,,,,,,,,,,,,,,,,,,,,,,,,,,,,,,,,1410.9784436036075,None,1410.9784436036075,None,1411.4118754741735,None,1411.4118754741735,None,v,8.965369322146216,1411.4118754741735,None,t,10.364456663132614,1411.4118754741735,None,8.965369322146216,10.364456663132614,9,False,True,False,1421.8264019902063,None,1421.8264019902063,None,1421.8264019902063,None,1421.8264019902063,None,1421.8264019902063,None,1421.8264019902063,None,1422.8429783800866,None,1422.8429783800866,None,c,,,,,,,,,,,,,,,,,,,,,,,,,,,7_8,001,2021_Apr_08_1013,ComputerHuman,2020.1.3,59.96746988413777,
Computer.xlsx,c,Sychronize.jpg,Number9.jpg,9,Computer,,,,,0,7,7,9,0,7,7,7,,,,,,,,,,,,,,,,,,,,,,,,,,,,,,,,,,,,,,,,,,,,,,,,,,,,,,,,,1423.8758908851187,None,1423.8758908851187,None,1424.3426093065555,None,1424.3426093065555,None,v,8.438656963716767,1424.3426093065555,None,t,10.72548243412075,1424.3426093065555,None,8.438656963716767,10.72548243412075,9,False,False,False,1435.1405645654122,None,1435.1405645654122,None,1435.1405645654122,None,1435.1405645654122,None,1435.1405645654122,None,1435.1405645654122,None,1436.140374013759,None,1436.140374013759,None,c,,,,,,,,,,,,,,,,,,,,,,,,,,,7_8,001,2021_Apr_08_1013,ComputerHuman,2020.1.3,59.96746988413777,
Computer.xlsx,c,Sychronize.jpg,Number8.jpg,8,Computer,,,,,0,7,7,9,0,8,8,4,,,,,,,,,,,,,,,,,,,,,,,,,,,,,,,,,,,,,,,,,,,,,,,,,,,,,,,,,1437.190170550146,None,1437.190170550146,None,1437.6401008576427,None,1437.6401008576427,None,v,7.604522875020393,1437.6401008576427,None,t,7.667490251871413,1437.6401008576427,None,7.604522875020393,7.667490251871413,8,False,False,False,1445.371960997862,None,1445.371960997862,None,1445.371960997862,None,1445.371960997862,None,1445.371960997862,None,1445.371960997862,None,1446.3718368505724,None,1446.3718368505724,None,c,,,,,,,,,,,,,,,,,,,,,,,,,,,7_8,001,2021_Apr_08_1013,ComputerHuman,2020.1.3,59.96746988413777,
Computer.xlsx,c,Sychronize.jpg,Number6.jpg,6,Computer,,,,,0,7,7,9,0,9,9,0,,,,,,,,,,,,,,,,,,,,,,,,,,,,,,,,,,,,,,,,,,,,,,,,,,,,,,,,,1447.4378806421655,None,1447.4378806421655,None,1447.8715191040865,None,1447.8715191040865,None,v,5.544938592002836,1447.8715191040865,None,t,6.1365613767195555,1447.8715191040865,None,5.544938592002836,6.1365613767195555,6,False,False,True,1454.0869457681652,None,1454.0869457681652,None,1454.0869457681652,None,1454.0869457681652,None,1454.0869457681652,None,1454.0869457681652,None,1455.0866958696165,None,1455.0866958696165,None,c,,,,,,,,,,,,,,,,,,,,,,,,,,,7_8,001,2021_Apr_08_1013,ComputerHuman,2020.1.3,59.96746988413777,
Computer.xlsx,c,,,,,,,,,0,7,7,9,,,,,,,,,,,,,,,,,,,,,,,,,,,,,,,,,,,,,,,,,,,,,,,,,,,,,,,,,,,,,,,,,,,,,,,,,,,,,,,,,,,,,,,,,,,,,,,,,,,c,1456.0865685143867,None,1456.0865685143867,None,a,1,4.897715144525591,1456.0865685143867,None,l,1,1.7287121884087355,1456.0865685143867,None,c,c,None,None,1461.0355555270407,None,"['space', 'space']",1462.0187613180142,None,"[22.39689182664938, 26.044852138012175]",,,7_8,001,2021_Apr_08_1013,ComputerHuman,2020.1.3,59.96746988413777,
Computer.xlsx,c,Sychronize.jpg,Number7.jpg,7,Computer,,,,,0,8,8,3,0,0,0,2,,,,,,,,,,,,,,,,,,,,,,,,,,,,,,,,,,,,,,,,,,,,,,,,,,,,,1488.1137067268905,None,1488.1137067268905,None,1491.1798217347578,None,1491.1798217347578,None,1491.6297048855326,None,1491.6297048855326,None,v,6.653548543354418,1491.6297048855326,None,t,4.940640593597209,1491.6297048855326,None,6.653548543354418,4.940640593597209,7,False,False,False,1498.3450733254954,None,1498.3450733254954,None,1498.3450733254954,None,1498.3450733254954,None,1498.3450733254954,None,1498.3450733254954,None,1499.344766004815,None,1499.344766004815,None,c,,,,,,,,,,,,,,,,,,,,,,,,,,,7_8,001,2021_Apr_08_1013,ComputerHuman,2020.1.3,59.96746988413777,
Computer.xlsx,c,Sychronize.jpg,Number8.jpg,8,Computer,,,,,0,8,8,3,0,1,1,5,,,,,,,,,,,,,,,,,,,,,,,,,,,,,,,,,,,,,,,,,,,,,,,,,,,,,,,,,1500.4110365977867,None,1500.4110365977867,None,1500.8445592530634,None,1500.8445592530634,None,v,7.98251223428224,1500.8445592530634,None,t,4.937650793243392,1500.8445592530634,None,7.98251223428224,4.937650793243392,8,False,True,False,1508.8762768003362,None,1508.8762768003362,None,1508.8762768003362,None,1508.8762768003362,None,1508.8762768003362,None,1508.8762768003362,None,1509.892859926891,None,1509.892859926891,None,c,,,,,,,,,,,,,,,,,,,,,,,,,,,7_8,001,2021_Apr_08_1013,ComputerHuman,2020.1.3,59.96746988413777,
Computer.xlsx,c,Sychronize.jpg,Number7.jpg,7,Computer,,,,,0,8,8,3,0,2,2,3,,,,,,,,,,,,,,,,,,,,,,,,,,,,,,,,,,,,,,,,,,,,,,,,,,,,,,,,,1510.9423594080067,None,1510.9423594080067,None,1511.3758782137547,None,1511.3758782137547,None,v,6.790966760926722,1511.3758782137547,None,t,4.950600285827477,1511.3758782137547,None,6.790966760926722,4.950600285827477,7,False,True,False,1518.2411793671695,None,1518.2411793671695,None,1518.2411793671695,None,1518.2411793671695,None,1518.2411793671695,None,1518.2411793671695,None,1519.2410131958623,None,1519.2410131958623,None,c,,,,,,,,,,,,,,,,,,,,,,,,,,,7_8,001,2021_Apr_08_1013,ComputerHuman,2020.1.3,59.96746988413777,
Computer.xlsx,c,Sychronize.jpg,Number10.jpg,10,Computer,,,,,0,8,8,3,0,3,3,8,,,,,,,,,,,,,,,,,,,,,,,,,,,,,,,,,,,,,,,,,,,,,,,,,,,,,,,,,1520.2906679412881,None,1520.2906679412881,None,1520.7406935246122,None,1520.7406935246122,None,v,9.281813705283412,1520.7406935246122,None,t,8.07757633694905,1520.7406935246122,None,9.281813705283412,8.07757633694905,10,False,False,False,1530.0721260463902,None,1530.0721260463902,None,1530.0721260463902,None,1530.0721260463902,None,1530.0721260463902,None,1530.0721260463902,None,1531.0719881049572,None,1531.0719881049572,None,c,,,,,,,,,,,,,,,,,,,,,,,,,,,7_8,001,2021_Apr_08_1013,ComputerHuman,2020.1.3,59.96746988413777,
Computer.xlsx,c,Sychronize.jpg,Number10.jpg,10,Computer,,,,,0,8,8,3,0,4,4,9,,,,,,,,,,,,,,,,,,,,,,,,,,,,,,,,,,,,,,,,,,,,,,,,,,,,,,,,,1532.1217262568307,None,1532.1217262568307,None,1532.5717611431814,None,1532.5717611431814,None,v,9.6704566342612,1532.5717611431814,None,t,6.433575265497211,1532.5717611431814,None,9.6704566342612,6.433575265497211,10,False,False,False,1542.303220932452,None,1542.303220932452,None,1542.303220932452,None,1542.303220932452,None,1542.303220932452,None,1542.303220932452,None,1543.3196827988636,None,1543.3196827988636,None,c,,,,,,,,,,,,,,,,,,,,,,,,,,,7_8,001,2021_Apr_08_1013,ComputerHuman,2020.1.3,59.96746988413777,
Computer.xlsx,c,Sychronize.jpg,Number6.jpg,6,Computer,,,,,0,8,8,3,0,5,5,0,,,,,,,,,,,,,,,,,,,,,,,,,,,,,,,,,,,,,,,,,,,,,,,,,,,,,,,,,1544.3694770896923,None,1544.3694770896923,None,1544.8027123135184,None,1544.8027123135184,None,v,5.295357949997651,1544.8027123135184,None,t,6.550572697540929,1544.8027123135184,None,5.295357949997651,6.550572697540929,6,False,False,False,1551.4347798470776,None,1551.4347798470776,None,1551.4347798470776,None,1551.4347798470776,None,1551.4347798470776,None,1551.4347798470776,None,1552.4345976360687,None,1552.4345976360687,None,c,,,,,,,,,,,,,,,,,,,,,,,,,,,7_8,001,2021_Apr_08_1013,ComputerHuman,2020.1.3,59.96746988413777,
Computer.xlsx,c,Sychronize.jpg,Number6.jpg,6,Computer,,,,,0,8,8,3,0,6,6,1,,,,,,,,,,,,,,,,,,,,,,,,,,,,,,,,,,,,,,,,,,,,,,,,,,,,,,,,,1553.4841218183246,None,1553.4841218183246,None,1553.9342689825858,None,1553.9342689825858,None,v,5.167534040256442,1553.9342689825858,None,t,6.554581981320098,1553.9342689825858,None,5.167534040256442,6.554581981320098,6,False,False,False,1560.5496183353034,None,1560.5496183353034,None,1560.5496183353034,None,1560.5496183353034,None,1560.5496183353034,None,1560.5496183353034,None,1561.549504774217,None,1561.549504774217,None,c,,,,,,,,,,,,,,,,,,,,,,,,,,,7_8,001,2021_Apr_08_1013,ComputerHuman,2020.1.3,59.96746988413777,
Computer.xlsx,c,Sychronize.jpg,Number9.jpg,9,Computer,,,,,0,8,8,3,0,7,7,6,,,,,,,,,,,,,,,,,,,,,,,,,,,,,,,,,,,,,,,,,,,,,,,,,,,,,,,,,1562.6159485959647,None,1562.6159485959647,None,1563.0492704341787,None,1563.0492704341787,None,v,8.368249731735887,1563.0492704341787,None,t,8.379515697253964,1563.0492704341787,None,8.368249731735887,8.379515697253964,9,False,False,False,1571.4975849021498,None,1571.4975849021498,None,1571.4975849021498,None,1571.4975849021498,None,1571.4975849021498,None,1571.4975849021498,None,1572.4973539304488,None,1572.4973539304488,None,c,,,,,,,,,,,,,,,,,,,,,,,,,,,7_8,001,2021_Apr_08_1013,ComputerHuman,2020.1.3,59.96746988413777,
Computer.xlsx,c,Sychronize.jpg,Number8.jpg,8,Computer,,,,,0,8,8,3,0,8,8,4,,,,,,,,,,,,,,,,,,,,,,,,,,,,,,,,,,,,,,,,,,,,,,,,,,,,,,,,,1573.546792781493,None,1573.546792781493,None,1573.9970660178074,None,1573.9970660178074,None,v,6.972256128369054,1573.9970660178074,None,t,7.20356466325461,1573.9970660178074,None,6.972256128369054,7.20356466325461,8,False,False,False,1581.2623488859626,None,1581.2623488859626,None,1581.2623488859626,None,1581.2623488859626,None,1581.2623488859626,None,1581.2623488859626,None,1582.2621285004643,None,1582.2621285004643,None,c,,,,,,,,,,,,,,,,,,,,,,,,,,,7_8,001,2021_Apr_08_1013,ComputerHuman,2020.1.3,59.96746988413777,
Computer.xlsx,c,Sychronize.jpg,Number9.jpg,9,Computer,,,,,0,8,8,3,0,9,9,7,,,,,,,,,,,,,,,,,,,,,,,,,,,,,,,,,,,,,,,,,,,,,,,,,,,,,,,,,1583.328400376612,None,1583.328400376612,None,1583.7618287184441,None,1583.7618287184441,None,v,8.5791884873438,1583.7618287184441,None,t,7.822690082492272,1583.7618287184441,None,8.5791884873438,7.822690082492272,9,False,False,False,1592.3934391205112,None,1592.3934391205112,None,1592.3934391205112,None,1592.3934391205112,None,1592.3934391205112,None,1592.3934391205112,None,1593.4099936963971,None,1593.4099936963971,None,c,,,,,,,,,,,,,,,,,,,,,,,,,,,7_8,001,2021_Apr_08_1013,ComputerHuman,2020.1.3,59.96746988413777,
Computer.xlsx,c,,,,,,,,,0,8,8,3,,,,,,,,,,,,,,,,,,,,,,,,,,,,,,,,,,,,,,,,,,,,,,,,,,,,,,,,,,,,,,,,,,,,,,,,,,,,,,,,,,,,,,,,,,,,,,,,,,,c,1594.4097964080693,None,1594.4097964080693,None,q,0,2.8911985346128404,1594.4097964080693,None,l,1,8.018561784128224,1594.4097964080693,None,h,c,1602.4915068176751,None,None,None,None,None,None,,,,7_8,001,2021_Apr_08_1013,ComputerHuman,2020.1.3,59.96746988413777,
Human.xlsx,h,Sychronize.jpg,Number9.jpg,9,Human,,,,,0,9,9,6,0,0,0,6,,,,,,,,,,,,,,,,,,,,,,,,,,,,,,,,,,,,,,,,,,,,,,,,,,,,,1607.5072343865536,None,1607.5072343865536,None,1610.5731075157228,None,1610.5731075157228,None,1611.0232915712972,None,1611.0232915712972,None,v,8.045047180781694,1611.0232915712972,None,t,8.36055388297109,1611.0232915712972,None,8.045047180781694,8.36055388297109,9,False,False,False,1619.4548355690004,None,1619.4548355690004,None,1619.4548355690004,None,1619.4548355690004,None,1619.4548355690004,None,1619.4548355690004,None,1620.4547130256815,None,1620.4547130256815,None,h,,,,,,,,,,,,,,,,,,,,,,,,,,,7_8,001,2021_Apr_08_1013,ComputerHuman,2020.1.3,59.96746988413777,
Human.xlsx,h,Sychronize.jpg,Number8.jpg,8,Human,,,,,0,9,9,6,0,1,1,5,,,,,,,,,,,,,,,,,,,,,,,,,,,,,,,,,,,,,,,,,,,,,,,,,,,,,,,,,1621.5045486989397,None,1621.5045486989397,None,1621.9544851015235,None,1621.9544851015235,None,v,6.329616185983468,1621.9544851015235,None,t,6.672565213416419,1621.9544851015235,None,6.329616185983468,6.672565213416419,8,False,False,False,1628.6866163126974,None,1628.6866163126974,None,1628.6866163126974,None,1628.6866163126974,None,1628.6866163126974,None,1628.6866163126974,None,1629.6864154956347,None,1629.6864154956347,None,h,,,,,,,,,,,,,,,,,,,,,,,,,,,7_8,001,2021_Apr_08_1013,ComputerHuman,2020.1.3,59.96746988413777,
Human.xlsx,h,Sychronize.jpg,Number6.jpg,6,Human,,,,,0,9,9,6,0,2,2,0,,,,,,,,,,,,,,,,,,,,,,,,,,,,,,,,,,,,,,,,,,,,,,,,,,,,,,,,,1630.7524477386428,None,1630.7524477386428,None,1631.186045780516,None,1631.186045780516,None,v,4.88583999114644,1631.186045780516,None,t,5.200633247413862,1631.186045780516,None,4.88583999114644,5.200633247413862,6,False,False,False,1636.4683214292018,None,1636.4683214292018,None,1636.4683214292018,None,1636.4683214292018,None,1636.4683214292018,None,1636.4683214292018,None,1637.4681328023125,None,1637.4681328023125,None,h,,,,,,,,,,,,,,,,,,,,,,,,,,,7_8,001,2021_Apr_08_1013,ComputerHuman,2020.1.3,59.96746988413777,
Human.xlsx,h,Sychronize.jpg,Number10.jpg,10,Human,,,,,0,9,9,6,0,3,3,9,,,,,,,,,,,,,,,,,,,,,,,,,,,,,,,,,,,,,,,,,,,,,,,,,,,,,,,,,1638.5179001464426,None,1638.5179001464426,None,1638.9678484184055,None,1638.9678484184055,None,v,8.239807651900264,1638.9678484184055,None,t,8.422556952969899,1638.9678484184055,None,8.239807651900264,8.422556952969899,10,True,False,False,1647.4495305981368,None,1647.4495305981368,None,1647.4495305981368,None,1647.4495305981368,None,1647.4495305981368,None,1647.4495305981368,None,1648.449352236656,None,1648.449352236656,None,h,,,,,,,,,,,,,,,,,,,,,,,,,,,7_8,001,2021_Apr_08_1013,ComputerHuman,2020.1.3,59.96746988413777,
Human.xlsx,h,Sychronize.jpg,Number9.jpg,9,Human,,,,,0,9,9,6,0,4,4,7,,,,,,,,,,,,,,,,,,,,,,,,,,,,,,,,,,,,,,,,,,,,,,,,,,,,,,,,,1649.49887224859,None,1649.49887224859,None,1649.9490983281821,None,1649.9490983281821,None,v,7.590277695351688,1649.9490983281821,None,t,7.965540305363902,1649.9490983281821,None,7.590277695351688,7.965540305363902,9,False,False,False,1657.964176289151,None,1657.964176289151,None,1657.964176289151,None,1657.964176289151,None,1657.964176289151,None,1657.964176289151,None,1658.9806272485657,None,1658.9806272485657,None,h,,,,,,,,,,,,,,,,,,,,,,,,,,,7_8,001,2021_Apr_08_1013,ComputerHuman,2020.1.3,59.96746988413777,
Human.xlsx,h,Sychronize.jpg,Number7.jpg,7,Human,,,,,0,9,9,6,0,5,5,3,,,,,,,,,,,,,,,,,,,,,,,,,,,,,,,,,,,,,,,,,,,,,,,,,,,,,,,,,1660.0303769490242,None,1660.0303769490242,None,1660.4803903421753,None,1660.4803903421753,None,v,5.630759014713021,1660.4803903421753,None,t,5.209595911800989,1660.4803903421753,None,5.630759014713021,5.209595911800989,7,False,False,False,1666.1626679156248,None,1666.1626679156248,None,1666.1626679156248,None,1666.1626679156248,None,1666.1626679156248,None,1666.1626679156248,None,1667.162386900055,None,1667.162386900055,None,h,,,,,,,,,,,,,,,,,,,,,,,,,,,7_8,001,2021_Apr_08_1013,ComputerHuman,2020.1.3,59.96746988413777,
Human.xlsx,h,Sychronize.jpg,Number8.jpg,8,Human,,,,,0,9,9,6,0,6,6,4,,,,,,,,,,,,,,,,,,,,,,,,,,,,,,,,,,,,,,,,,,,,,,,,,,,,,,,,,1668.2454539476112,None,1668.2454539476112,None,1668.678796958231,None,1668.678796958231,None,v,5.992154982011471,1668.678796958231,None,t,6.25569529699942,1668.678796958231,None,5.992154982011471,6.25569529699942,8,True,False,False,1674.9941807963073,None,1674.9941807963073,None,1674.9941807963073,None,1674.9941807963073,None,1674.9941807963073,None,1674.9941807963073,None,1676.0107109918472,None,1676.0107109918472,None,h,,,,,,,,,,,,,,,,,,,,,,,,,,,7_8,001,2021_Apr_08_1013,ComputerHuman,2020.1.3,59.96746988413777,
Human.xlsx,h,Sychronize.jpg,Number7.jpg,7,Human,,,,,0,9,9,6,0,7,7,2,,,,,,,,,,,,,,,,,,,,,,,,,,,,,,,,,,,,,,,,,,,,,,,,,,,,,,,,,1677.0436587842228,None,1677.0436587842228,None,1677.4937863800478,None,1677.4937863800478,None,v,5.044955112895423,1677.4937863800478,None,t,5.600588336249984,1677.4937863800478,None,5.044955112895423,5.600588336249984,7,False,False,False,1683.1592729524118,None,1683.1592729524118,None,1683.1592729524118,None,1683.1592729524118,None,1683.1592729524118,None,1683.1592729524118,None,1684.1590310737138,None,1684.1590310737138,None,h,,,,,,,,,,,,,,,,,,,,,,,,,,,7_8,001,2021_Apr_08_1013,ComputerHuman,2020.1.3,59.96746988413777,
Human.xlsx,h,Sychronize.jpg,Number10.jpg,10,Human,,,,,0,9,9,6,0,8,8,8,,,,,,,,,,,,,,,,,,,,,,,,,,,,,,,,,,,,,,,,,,,,,,,,,,,,,,,,,1685.2254120198318,None,1685.2254120198318,None,1685.6754834767016,None,1685.6754834767016,None,v,7.774986085559249,1685.6754834767016,None,t,9.578516423852307,1685.6754834767016,None,7.774986085559249,9.578516423852307,10,False,False,False,1695.3068558495988,None,1695.3068558495988,None,1695.3068558495988,None,1695.3068558495988,None,1695.3068558495988,None,1695.3068558495988,None,1696.3067490251874,None,1696.3067490251874,None,h,,,,,,,,,,,,,,,,,,,,,,,,,,,7_8,001,2021_Apr_08_1013,ComputerHuman,2020.1.3,59.96746988413777,
Human.xlsx,h,Sychronize.jpg,Number6.jpg,6,Human,,,,,0,9,9,6,0,9,9,1,,,,,,,,,,,,,,,,,,,,,,,,,,,,,,,,,,,,,,,,,,,,,,,,,,,,,,,,,1697.3563704080343,None,1697.3563704080343,None,1697.806429995525,None,1697.806429995525,None,v,4.42395593573201,1697.806429995525,None,t,4.750583604537951,1697.806429995525,None,4.42395593573201,4.750583604537951,6,False,False,False,1702.6388077369106,None,1702.6388077369106,None,1702.6388077369106,None,1702.6388077369106,None,1702.6388077369106,None,1702.6388077369106,None,1703.638670116272,None,1703.638670116272,None,h,,,,,,,,,,,,,,,,,,,,,,,,,,,7_8,001,2021_Apr_08_1013,ComputerHuman,2020.1.3,59.96746988413777,
Human.xlsx,h,,,,,,,,,0,9,9,6,,,,,,,,,,,,,,,,,,,,,,,,,,,,,,,,,,,,,,,,,,,,,,,,,,,,,,,,,,,,,,,,,,,,,,,,,,,,,,,,,,,,,,,,,,,,,,,,,,,h,1704.6384644872992,None,1704.6384644872992,None,q,1,1.927686289102894,1704.6384644872992,None,o,1,1.5987088040319577,1704.6384644872992,None,h,h,1706.6213988865238,None,None,None,None,None,None,,,,7_8,001,2021_Apr_08_1013,ComputerHuman,2020.1.3,59.96746988413777,
Computer.xlsx,c,Sychronize.jpg,Number7.jpg,7,Computer,,,,,1,0,10,5,0,0,0,2,,,,,,,,,,,,,,,,,,,,,,,,,,,,,,,,,,,,,,,,,,,,,,,,,,,,,1711.637154043689,None,1711.637154043689,None,1714.7029719962852,None,1714.7029719962852,None,1715.1364404373708,None,1715.1364404373708,None,v,8.385296084868969,1715.1364404373708,None,t,8.648473261015624,1715.1364404373708,None,8.385296084868969,8.648473261015624,7,False,False,False,1723.8346913079254,None,1723.8346913079254,None,1723.8346913079254,None,1723.8346913079254,None,1723.8346913079254,None,1723.8346913079254,None,1724.8512057845583,None,1724.8512057845583,None,c,,,,,,,,,,,,,,,,,,,,,,,,,,,7_8,001,2021_Apr_08_1013,ComputerHuman,2020.1.3,59.96746988413777,
Computer.xlsx,c,Sychronize.jpg,Number9.jpg,9,Computer,,,,,1,0,10,5,0,1,1,7,,,,,,,,,,,,,,,,,,,,,,,,,,,,,,,,,,,,,,,,,,,,,,,,,,,,,,,,,1725.9010145111179,None,1725.9010145111179,None,1726.3509477057614,None,1726.3509477057614,None,v,7.422614375101148,1726.3509477057614,None,t,7.589561041490015,1726.3509477057614,None,7.422614375101148,7.589561041490015,9,False,False,False,1733.9994395728309,None,1733.9994395728309,None,1733.9994395728309,None,1733.9994395728309,None,1733.9994395728309,None,1733.9994395728309,None,1735.015908817505,None,1735.015908817505,None,c,,,,,,,,,,,,,,,,,,,,,,,,,,,7_8,001,2021_Apr_08_1013,ComputerHuman,2020.1.3,59.96746988413777,
Computer.xlsx,c,Sychronize.jpg,Number7.jpg,7,Computer,,,,,1,0,10,5,0,2,2,3,,,,,,,,,,,,,,,,,,,,,,,,,,,,,,,,,,,,,,,,,,,,,,,,,,,,,,,,,1736.065691238955,None,1736.065691238955,None,1736.5156844220814,None,1736.5156844220814,None,v,5.529555876706127,1736.5156844220814,None,t,5.8726903230876815,1736.5156844220814,None,5.529555876706127,5.8726903230876815,7,False,False,False,1742.4478210867542,None,1742.4478210867542,None,1742.4478210867542,None,1742.4478210867542,None,1742.4478210867542,None,1742.4478210867542,None,1743.4643294683,None,1743.4643294683,None,c,,,,,,,,,,,,,,,,,,,,,,,,,,,7_8,001,2021_Apr_08_1013,ComputerHuman,2020.1.3,59.96746988413777,
Computer.xlsx,c,Sychronize.jpg,Number6.jpg,6,Computer,,,,,1,0,10,5,0,3,3,0,,,,,,,,,,,,,,,,,,,,,,,,,,,,,,,,,,,,,,,,,,,,,,,,,,,,,,,,,1744.5139030528367,None,1744.5139030528367,None,1744.947383363301,None,1744.947383363301,None,v,4.3898157519493,1744.947383363301,None,t,4.98871093731168,1744.947383363301,None,4.3898157519493,4.98871093731168,6,False,False,False,1749.9963410233008,None,1749.9963410233008,None,1749.9963410233008,None,1749.9963410233008,None,1749.9963410233008,None,1749.9963410233008,None,1750.9961876837551,None,1750.9961876837551,None,c,,,,,,,,,,,,,,,,,,,,,,,,,,,7_8,001,2021_Apr_08_1013,ComputerHuman,2020.1.3,59.96746988413777,
Computer.xlsx,c,Sychronize.jpg,Number6.jpg,6,Computer,,,,,1,0,10,5,0,4,4,1,,,,,,,,,,,,,,,,,,,,,,,,,,,,,,,,,,,,,,,,,,,,,,,,,,,,,,,,,1752.0626302223263,None,1752.0626302223263,None,1752.5124989373699,None,1752.5124989373699,None,v,4.584367706948342,1752.5124989373699,None,t,4.687656326940669,1752.5124989373699,None,4.584367706948342,4.687656326940669,6,False,False,False,1757.2616184379576,None,1757.2616184379576,None,1757.2616184379576,None,1757.2616184379576,None,1757.2616184379576,None,1757.2616184379576,None,1758.2780562448174,None,1758.2780562448174,None,c,,,,,,,,,,,,,,,,,,,,,,,,,,,7_8,001,2021_Apr_08_1013,ComputerHuman,2020.1.3,59.96746988413777,
Computer.xlsx,c,Sychronize.jpg,Number8.jpg,8,Computer,,,,,1,0,10,5,0,5,5,5,,,,,,,,,,,,,,,,,,,,,,,,,,,,,,,,,,,,,,,,,,,,,,,,,,,,,,,,,1759.3109616923812,None,1759.3109616923812,None,1759.7777988076086,None,1759.7777988076086,None,v,6.946861431415073,1759.7777988076086,None,t,4.602639172479485,1759.7777988076086,None,6.946861431415073,4.602639172479485,8,False,False,False,1766.7764517934793,None,1766.7764517934793,None,1766.7764517934793,None,1766.7764517934793,None,1766.7764517934793,None,1766.7764517934793,None,1767.7762439189482,None,1767.7762439189482,None,c,,,,,,,,,,,,,,,,,,,,,,,,,,,7_8,001,2021_Apr_08_1013,ComputerHuman,2020.1.3,59.96746988413777,
Computer.xlsx,c,Sychronize.jpg,Number9.jpg,9,Computer,,,,,1,0,10,5,0,6,6,6,,,,,,,,,,,,,,,,,,,,,,,,,,,,,,,,,,,,,,,,,,,,,,,,,,,,,,,,,1768.842502963335,None,1768.842502963335,None,1769.2926331255126,None,1769.2926331255126,None,v,8.631775931786251,1769.2926331255126,None,t,3.7066604860351617,1769.2926331255126,None,8.631775931786251,3.7066604860351617,9,False,False,False,1777.9743002279242,None,1777.9743002279242,None,1777.9743002279242,None,1777.9743002279242,None,1777.9743002279242,None,1777.9743002279242,None,1778.9740907494229,None,1778.9740907494229,None,c,,,,,,,,,,,,,,,,,,,,,,,,,,,7_8,001,2021_Apr_08_1013,ComputerHuman,2020.1.3,59.96746988413777,
Computer.xlsx,c,Sychronize.jpg,Number10.jpg,10,Computer,,,,,1,0,10,5,0,7,7,9,,,,,,,,,,,,,,,,,,,,,,,,,,,,,,,,,,,,,,,,,,,,,,,,,,,,,,,,,1780.0402577259233,None,1780.0402577259233,None,1780.4738570509726,None,1780.4738570509726,None,v,9.46225457251785,1780.4738570509726,None,t,9.721586390634002,1780.4738570509726,None,9.46225457251785,9.721586390634002,10,False,False,True,1790.2552298248625,None,1790.2552298248625,None,1790.2552298248625,None,1790.2552298248625,None,1790.2552298248625,None,1790.2552298248625,None,1791.2717025982715,None,1791.2717025982715,None,c,,,,,,,,,,,,,,,,,,,,,,,,,,,7_8,001,2021_Apr_08_1013,ComputerHuman,2020.1.3,59.96746988413777,
Computer.xlsx,c,Sychronize.jpg,Number10.jpg,10,Computer,,,,,1,0,10,5,0,8,8,8,,,,,,,,,,,,,,,,,,,,,,,,,,,,,,,,,,,,,,,,,,,,,,,,,,,,,,,,,1792.2875767700211,None,1792.2875767700211,None,1792.77139319243,None,1792.77139319243,None,v,10.10439952971592,1792.77139319243,None,t,9.423523505380672,1792.77139319243,None,10.10439952971592,9.423523505380672,10,False,True,False,1802.9527749485528,None,1802.9527749485528,None,1802.9527749485528,None,1802.9527749485528,None,1802.9527749485528,None,1802.9527749485528,None,1803.9525799057828,None,1803.9525799057828,None,c,,,,,,,,,,,,,,,,,,,,,,,,,,,7_8,001,2021_Apr_08_1013,ComputerHuman,2020.1.3,59.96746988413777,
Computer.xlsx,c,Sychronize.jpg,Number8.jpg,8,Computer,,,,,1,0,10,5,0,9,9,4,,,,,,,,,,,,,,,,,,,,,,,,,,,,,,,,,,,,,,,,,,,,,,,,,,,,,,,,,1805.0024473376502,None,1805.0024473376502,None,1805.4523609638577,None,1805.4523609638577,None,v,7.007172633702794,1805.4523609638577,None,t,7.650533400272252,1805.4523609638577,None,7.007172633702794,7.650533400272252,8,False,False,False,1813.1674567288956,None,1813.1674567288956,None,1813.1674567288956,None,1813.1674567288956,None,1813.1674567288956,None,1813.1674567288956,None,1814.1672851040898,None,1814.1672851040898,None,c,,,,,,,,,,,,,,,,,,,,,,,,,,,7_8,001,2021_Apr_08_1013,ComputerHuman,2020.1.3,59.96746988413777,
Computer.xlsx,c,,,,,,,,,1,0,10,5,,,,,,,,,,,,,,,,,,,,,,,,,,,,,,,,,,,,,,,,,,,,,,,,,,,,,,,,,,,,,,,,,,,,,,,,,,,,,,,,,,,,,,,,,,,,,,,,,,,c,1815.1670698512962,None,1815.1670698512962,None,q,0,1.7043161232681996,1815.1670698512962,None,o,0,3.451666444784223,1815.1670698512962,None,h,h,1818.6830401008579,None,None,None,None,None,None,,,,7_8,001,2021_Apr_08_1013,ComputerHuman,2020.1.3,59.96746988413777,
Computer.xlsx,c,Sychronize.jpg,Number10.jpg,10,Computer,,,,,1,1,11,7,0,0,0,9,,,,,,,,,,,,,,,,,,,,,,,,,,,,,,,,,,,,,,,,,,,,,,,,,,,,,1823.6987259665125,None,1823.6987259665125,None,1826.7646597257535,None,1826.7646597257535,None,1827.2147716026711,None,1827.2147716026711,None,v,8.788248352321716,1827.2147716026711,None,t,9.607521657606867,1827.2147716026711,None,8.788248352321716,9.607521657606867,10,False,False,False,1836.8962366048445,None,1836.8962366048445,None,1836.8962366048445,None,1836.8962366048445,None,1836.8962366048445,None,1836.8962366048445,None,1837.896014294582,None,1837.896014294582,None,c,,,,,,,,,,,,,,,,,,,,,,,,,,,7_8,001,2021_Apr_08_1013,ComputerHuman,2020.1.3,59.96746988413777,
Computer.xlsx,c,Sychronize.jpg,Number10.jpg,10,Computer,,,,,1,1,11,7,0,1,1,8,,,,,,,,,,,,,,,,,,,,,,,,,,,,,,,,,,,,,,,,,,,,,,,,,,,,,,,,,1838.928966898868,None,1838.928966898868,None,1839.3957587821378,None,1839.3957587821378,None,v,11.57880225133249,1839.3957587821378,None,t,9.566496913159426,1839.3957587821378,None,11.57880225133249,9.566496913159426,10,False,False,False,1851.0267612795192,None,1851.0267612795192,None,1851.0267612795192,None,1851.0267612795192,None,1851.0267612795192,None,1851.0267612795192,None,1852.043311364289,None,1852.043311364289,None,c,,,,,,,,,,,,,,,,,,,,,,,,,,,7_8,001,2021_Apr_08_1013,ComputerHuman,2020.1.3,59.96746988413777,
Computer.xlsx,c,Sychronize.jpg,Number7.jpg,7,Computer,,,,,1,1,11,7,0,2,2,2,,,,,,,,,,,,,,,,,,,,,,,,,,,,,,,,,,,,,,,,,,,,,,,,,,,,,,,,,1853.093064914276,None,1853.093064914276,None,1853.5430119030625,None,1853.5430119030625,None,v,6.639367522491739,1853.5430119030625,None,t,7.066576951269781,1853.5430119030625,None,6.639367522491739,7.066576951269781,7,False,False,True,1860.6582032647211,None,1860.6582032647211,None,1860.6582032647211,None,1860.6582032647211,None,1860.6582032647211,None,1860.6582032647211,None,1861.658062756936,None,1861.658062756936,None,c,,,,,,,,,,,,,,,,,,,,,,,,,,,7_8,001,2021_Apr_08_1013,ComputerHuman,2020.1.3,59.96746988413777,
Computer.xlsx,c,Sychronize.jpg,Number6.jpg,6,Computer,,,,,1,1,11,7,0,3,3,0,,,,,,,,,,,,,,,,,,,,,,,,,,,,,,,,,,,,,,,,,,,,,,,,,,,,,,,,,1862.7075702579023,None,1862.7075702579023,None,1863.1577761274707,None,1863.1577761274707,None,v,4.8763797752199025,1863.1577761274707,None,t,5.879618511740318,1863.1577761274707,None,4.8763797752199025,5.879618511740318,6,False,False,True,1869.1066098005786,None,1869.1066098005786,None,1869.1066098005786,None,1869.1066098005786,None,1869.1066098005786,None,1869.1066098005786,None,1870.106394547785,None,1870.106394547785,None,c,,,,,,,,,,,,,,,,,,,,,,,,,,,7_8,001,2021_Apr_08_1013,ComputerHuman,2020.1.3,59.96746988413777,
Computer.xlsx,c,Sychronize.jpg,Number9.jpg,9,Computer,,,,,1,1,11,7,0,4,4,7,,,,,,,,,,,,,,,,,,,,,,,,,,,,,,,,,,,,,,,,,,,,,,,,,,,,,,,,,1871.1562436943923,None,1871.1562436943923,None,1871.6062327071968,None,1871.6062327071968,None,v,8.49959339356792,1871.6062327071968,None,t,7.842585407400293,1871.6062327071968,None,8.49959339356792,7.842585407400293,9,False,False,False,1880.1711365572064,None,1880.1711365572064,None,1880.1711365572064,None,1880.1711365572064,None,1880.1711365572064,None,1880.1711365572064,None,1881.1710306951768,None,1881.1710306951768,None,c,,,,,,,,,,,,,,,,,,,,,,,,,,,7_8,001,2021_Apr_08_1013,ComputerHuman,2020.1.3,59.96746988413777,
Computer.xlsx,c,Sychronize.jpg,Number6.jpg,6,Computer,,,,,1,1,11,7,0,5,5,1,,,,,,,,,,,,,,,,,,,,,,,,,,,,,,,,,,,,,,,,,,,,,,,,,,,,,,,,,1882.220578295397,None,1882.220578295397,None,1882.6706673959384,None,1882.6706673959384,None,v,4.902999263777474,1882.6706673959384,None,t,6.490625596476548,1882.6706673959384,None,4.902999263777474,6.490625596476548,6,False,False,False,1889.2193628068194,None,1889.2193628068194,None,1889.2193628068194,None,1889.2193628068194,None,1889.2193628068194,None,1889.2193628068194,None,1890.2358904360071,None,1890.2358904360071,None,c,,,,,,,,,,,,,,,,,,,,,,,,,,,7_8,001,2021_Apr_08_1013,ComputerHuman,2020.1.3,59.96746988413777,
Computer.xlsx,c,Sychronize.jpg,Number8.jpg,8,Computer,,,,,1,1,11,7,0,6,6,4,,,,,,,,,,,,,,,,,,,,,,,,,,,,,,,,,,,,,,,,,,,,,,,,,,,,,,,,,1891.2856632336361,None,1891.2856632336361,None,1891.7355957866912,None,1891.7355957866912,None,v,1.6979406627287972,1891.7355957866912,None,t,7.744537920260427,1891.7355957866912,None,1.6979406627287972,7.744537920260427,8,False,False,True,1899.5340826012548,None,1899.5340826012548,None,1899.5340826012548,None,1899.5340826012548,None,1899.5340826012548,None,1899.5340826012548,None,1900.533856762258,None,1900.533856762258,None,c,,,,,,,,,,,,,,,,,,,,,,,,,,,7_8,001,2021_Apr_08_1013,ComputerHuman,2020.1.3,59.96746988413777,
Computer.xlsx,c,Sychronize.jpg,Number8.jpg,8,Computer,,,,,1,1,11,7,0,7,7,5,,,,,,,,,,,,,,,,,,,,,,,,,,,,,,,,,,,,,,,,,,,,,,,,,,,,,,,,,1901.6003422872295,None,1901.6003422872295,None,1902.0502517431146,None,1902.0502517431146,None,v,6.446883085011905,1902.0502517431146,None,t,7.038647019101518,1902.0502517431146,None,6.446883085011905,7.038647019101518,8,False,False,False,1909.148878584272,None,1909.148878584272,None,1909.148878584272,None,1909.148878584272,None,1909.148878584272,None,1909.148878584272,None,1910.1653487913286,None,1910.1653487913286,None,c,,,,,,,,,,,,,,,,,,,,,,,,,,,7_8,001,2021_Apr_08_1013,ComputerHuman,2020.1.3,59.96746988413777,
Computer.xlsx,c,Sychronize.jpg,Number9.jpg,9,Computer,,,,,1,1,11,7,0,8,8,6,,,,,,,,,,,,,,,,,,,,,,,,,,,,,,,,,,,,,,,,,,,,,,,,,,,,,,,,,1911.214979156408,None,1911.214979156408,None,1911.648411668562,None,1911.648411668562,None,v,8.108441213692004,1911.648411668562,None,t,8.207545075571034,1911.648411668562,None,8.108441213692004,8.207545075571034,9,False,False,False,1919.9301538367768,None,1919.9301538367768,None,1919.9301538367768,None,1919.9301538367768,None,1919.9301538367768,None,1919.9301538367768,None,1920.9299533405087,None,1920.9299533405087,None,c,,,,,,,,,,,,,,,,,,,,,,,,,,,7_8,001,2021_Apr_08_1013,ComputerHuman,2020.1.3,59.96746988413777,
Computer.xlsx,c,Sychronize.jpg,Number7.jpg,7,Computer,,,,,1,1,11,7,0,9,9,3,,,,,,,,,,,,,,,,,,,,,,,,,,,,,,,,,,,,,,,,,,,,,,,,,,,,,,,,,1921.9797187598747,None,1921.9797187598747,None,1922.429674730894,None,1922.429674730894,None,v,5.6309370553994995,1922.429674730894,None,t,6.1745866969922645,1922.429674730894,None,5.6309370553994995,6.1745866969922645,7,False,False,False,1928.6618333699575,None,1928.6618333699575,None,1928.6618333699575,None,1928.6618333699575,None,1928.6618333699575,None,1928.6618333699575,None,1929.6615744891756,None,1929.6615744891756,None,c,,,,,,,,,,,,,,,,,,,,,,,,,,,7_8,001,2021_Apr_08_1013,ComputerHuman,2020.1.3,59.96746988413777,
Computer.xlsx,c,,,,,,,,,1,1,11,7,,,,,,,,,,,,,,,,,,,,,,,,,,,,,,,,,,,,,,,,,,,,,,,,,,,,,,,,,,,,,,,,,,,,,,,,,,,,,,,,,,,,,,,,,,,,,,,,,,,c,1930.661390994991,None,1930.661390994991,None,q,0,1.4951590576993112,1930.661390994991,None,l,1,2.0387009124983706,1930.661390994991,None,h,c,None,None,1932.7609776518839,None,"['space', 'space']",1933.7441061314967,None,"[8.776203178106243, 10.452130954538461]",,,7_8,001,2021_Apr_08_1013,ComputerHuman,2020.1.3,59.96746988413777,
Computer.xlsx,c,Sychronize.jpg,Number10.jpg,10,Computer,,,,,1,2,12,3,0,0,0,9,,,,,,,,,,,,,,,,,,,,,,,,,,,,,,,,,,,,,,,,,,,,,,,,,,,,,1944.2587745988872,None,1944.2587745988872,None,1947.3245482819075,None,1947.3245482819075,None,1947.7580844105332,None,1947.7580844105332,None,v,10.373830906259172,1947.7580844105332,None,t,6.3736191821999455,1947.7580844105332,None,10.373830906259172,6.3736191821999455,10,False,False,False,1958.1894384981706,None,1958.1894384981706,None,1958.1894384981706,None,1958.1894384981706,None,1958.1894384981706,None,1958.1894384981706,None,1959.205906780463,None,1959.205906780463,None,c,,,,,,,,,,,,,,,,,,,,,,,,,,,7_8,001,2021_Apr_08_1013,ComputerHuman,2020.1.3,59.96746988413777,
Computer.xlsx,c,Sychronize.jpg,Number6.jpg,6,Computer,,,,,1,2,12,3,0,1,1,0,,,,,,,,,,,,,,,,,,,,,,,,,,,,,,,,,,,,,,,,,,,,,,,,,,,,,,,,,1960.255669954271,None,1960.255669954271,None,1960.6889282752672,None,1960.6889282752672,None,v,5.970735564669667,1960.6889282752672,None,t,5.969573007107101,1960.6889282752672,None,5.970735564669667,5.969573007107101,6,False,True,True,1966.7210647795423,None,1966.7210647795423,None,1966.7210647795423,None,1966.7210647795423,None,1966.7210647795423,None,1966.7210647795423,None,1967.720905986498,None,1967.720905986498,None,c,,,,,,,,,,,,,,,,,,,,,,,,,,,7_8,001,2021_Apr_08_1013,ComputerHuman,2020.1.3,59.96746988413777,
Computer.xlsx,c,Sychronize.jpg,Number10.jpg,10,Computer,,,,,1,2,12,3,0,2,2,8,,,,,,,,,,,,,,,,,,,,,,,,,,,,,,,,,,,,,,,,,,,,,,,,,,,,,,,,,1968.786950098885,None,1968.786950098885,None,1969.2372445076053,None,1969.2372445076053,None,v,10.634118369789121,1969.2372445076053,None,t,7.769484788748741,1969.2372445076053,None,10.634118369789121,7.769484788748741,10,False,False,False,1979.9351742633366,None,1979.9351742633366,None,1979.9351742633366,None,1979.9351742633366,None,1979.9351742633366,None,1979.9351742633366,None,1980.9350299060234,None,1980.9350299060234,None,c,,,,,,,,,,,,,,,,,,,,,,,,,,,7_8,001,2021_Apr_08_1013,ComputerHuman,2020.1.3,59.96746988413777,
Computer.xlsx,c,Sychronize.jpg,Number8.jpg,8,Computer,,,,,1,2,12,3,0,3,3,5,,,,,,,,,,,,,,,,,,,,,,,,,,,,,,,,,,,,,,,,,,,,,,,,,,,,,,,,,1981.9845794310077,None,1981.9845794310077,None,1982.4346852128388,None,1982.4346852128388,None,v,7.688536585756992,1982.4346852128388,None,t,7.095577373113883,1982.4346852128388,None,7.688536585756992,7.095577373113883,8,False,False,False,1990.1832106028842,None,1990.1832106028842,None,1990.1832106028842,None,1990.1832106028842,None,1990.1832106028842,None,1990.1832106028842,None,1991.1996869050276,None,1991.1996869050276,None,c,,,,,,,,,,,,,,,,,,,,,,,,,,,7_8,001,2021_Apr_08_1013,ComputerHuman,2020.1.3,59.96746988413777,
Computer.xlsx,c,Sychronize.jpg,Number8.jpg,8,Computer,,,,,1,2,12,3,0,4,4,4,,,,,,,,,,,,,,,,,,,,,,,,,,,,,,,,,,,,,,,,,,,,,,,,,,,,,,,,,1992.249210445695,None,1992.249210445695,None,1992.699351835664,None,1992.699351835664,None,v,8.127494133479559,1992.699351835664,None,t,6.890572986255847,1992.699351835664,None,8.127494133479559,6.890572986255847,8,False,True,False,2000.8811714756366,None,2000.8811714756366,None,2000.8811714756366,None,2000.8811714756366,None,2000.8811714756366,None,2000.8811714756366,None,2001.897597733911,None,2001.897597733911,None,c,,,,,,,,,,,,,,,,,,,,,,,,,,,7_8,001,2021_Apr_08_1013,ComputerHuman,2020.1.3,59.96746988413777,
Computer.xlsx,c,Sychronize.jpg,Number9.jpg,9,Computer,,,,,1,2,12,3,0,5,5,6,,,,,,,,,,,,,,,,,,,,,,,,,,,,,,,,,,,,,,,,,,,,,,,,,,,,,,,,,2002.9474083852351,None,2002.9474083852351,None,2003.3972883280699,None,2003.3972883280699,None,v,8.001292158350225,2003.3972883280699,None,t,6.2886940956254875,2003.3972883280699,None,8.001292158350225,6.2886940956254875,9,False,False,False,2011.4624999799503,None,2011.4624999799503,None,2011.4624999799503,None,2011.4624999799503,None,2011.4624999799503,None,2011.4624999799503,None,2012.4621740532166,None,2012.4621740532166,None,c,,,,,,,,,,,,,,,,,,,,,,,,,,,7_8,001,2021_Apr_08_1013,ComputerHuman,2020.1.3,59.96746988413777,
Computer.xlsx,c,Sychronize.jpg,Number6.jpg,6,Computer,,,,,1,2,12,3,0,6,6,1,,,,,,,,,,,,,,,,,,,,,,,,,,,,,,,,,,,,,,,,,,,,,,,,,,,,,,,,,2013.5118082678246,None,2013.5118082678246,None,2013.9620179869212,None,2013.9620179869212,None,v,5.208357326053374,2013.9620179869212,None,t,0.4917082763254257,2013.9620179869212,None,5.208357326053374,0.4917082763254257,6,False,False,False,2019.2442679720848,None,2019.2442679720848,None,2019.2442679720848,None,2019.2442679720848,None,2019.2442679720848,None,2019.2442679720848,None,2020.244055606437,None,2020.244055606437,None,c,,,,,,,,,,,,,,,,,,,,,,,,,,,7_8,001,2021_Apr_08_1013,ComputerHuman,2020.1.3,59.96746988413777,
Computer.xlsx,c,Sychronize.jpg,Number7.jpg,7,Computer,,,,,1,2,12,3,0,7,7,2,,,,,,,,,,,,,,,,,,,,,,,,,,,,,,,,,,,,,,,,,,,,,,,,,,,,,,,,,2021.3105443393488,None,2021.3105443393488,None,2021.7437696185598,None,2021.7437696185598,None,v,6.770440434162538,2021.7437696185598,None,t,8.013520505956421,2021.7437696185598,None,6.770440434162538,8.013520505956421,7,False,True,False,2029.8088256853366,None,2029.8088256853366,None,2029.8088256853366,None,2029.8088256853366,None,2029.8088256853366,None,2029.8088256853366,None,2030.80875190271,None,2030.80875190271,None,c,,,,,,,,,,,,,,,,,,,,,,,,,,,7_8,001,2021_Apr_08_1013,ComputerHuman,2020.1.3,59.96746988413777,
Computer.xlsx,c,Sychronize.jpg,Number9.jpg,9,Computer,,,,,1,2,12,3,0,8,8,7,,,,,,,,,,,,,,,,,,,,,,,,,,,,,,,,,,,,,,,,,,,,,,,,,,,,,,,,,2031.8748791007501,None,2031.8748791007501,None,2032.308330218958,None,2032.308330218958,None,v,8.665469891074736,2032.308330218958,None,t,9.400538292381498,2032.308330218958,None,8.665469891074736,9.400538292381498,9,False,False,False,2041.773214981723,None,2041.773214981723,None,2041.773214981723,None,2041.773214981723,None,2041.773214981723,None,2041.773214981723,None,2042.7896713946361,None,2042.7896713946361,None,c,,,,,,,,,,,,,,,,,,,,,,,,,,,7_8,001,2021_Apr_08_1013,ComputerHuman,2020.1.3,59.96746988413777,
Computer.xlsx,c,Sychronize.jpg,Number7.jpg,7,Computer,,,,,1,2,12,3,0,9,9,3,,,,,,,,,,,,,,,,,,,,,,,,,,,,,,,,,,,,,,,,,,,,,,,,,,,,,,,,,2043.8392523574353,None,2043.8392523574353,None,2044.2727323471058,None,2044.2727323471058,None,v,6.764987577250849,2044.2727323471058,None,t,7.464635185010138,2044.2727323471058,None,6.764987577250849,7.464635185010138,7,False,True,False,2051.804562011892,None,2051.804562011892,None,2051.804562011892,None,2051.804562011892,None,2051.804562011892,None,2051.804562011892,None,2052.8044272783995,None,2052.8044272783995,None,c,,,,,,,,,,,,,,,,,,,,,,,,,,,7_8,001,2021_Apr_08_1013,ComputerHuman,2020.1.3,59.96746988413777,
Computer.xlsx,c,,,,,,,,,1,2,12,3,,,,,,,,,,,,,,,,,,,,,,,,,,,,,,,,,,,,,,,,,,,,,,,,,,,,,,,,,,,,,,,,,,,,,,,,,,,,,,,,,,,,,,,,,,,,,,,,,,,c,2053.8042312732478,None,2053.8042312732478,None,a,1,2.637222052022935,2053.8042312732478,None,l,1,6.632555140483419,2053.8042312732478,None,c,c,2060.486309312811,None,None,None,None,None,None,,,,7_8,001,2021_Apr_08_1013,ComputerHuman,2020.1.3,59.96746988413777,
Human.xlsx,h,Sychronize.jpg,Number6.jpg,6,Human,,,,,1,3,13,0,0,0,0,1,,,,,,,,,,,,,,,,,,,,,,,,,,,,,,,,,,,,,,,,,,,,,,,,,,,,,2065.4853167760843,None,2065.4853167760843,None,2068.5846955584466,None,2068.5846955584466,None,2069.0179586913528,None,2069.0179586913528,None,v,5.515122390941997,2069.0179586913528,None,t,5.45058825605156,2069.0179586913528,None,5.515122390941997,5.45058825605156,6,True,False,False,2074.5835082997437,None,2074.5835082997437,None,2074.5835082997437,None,2074.5835082997437,None,2074.5835082997437,None,2074.5835082997437,None,2075.6000599884837,None,2075.6000599884837,None,h,,,,,,,,,,,,,,,,,,,,,,,,,,,7_8,001,2021_Apr_08_1013,ComputerHuman,2020.1.3,59.96746988413777,
Human.xlsx,h,Sychronize.jpg,Number10.jpg,10,Human,,,,,1,3,13,0,0,1,1,9,,,,,,,,,,,,,,,,,,,,,,,,,,,,,,,,,,,,,,,,,,,,,,,,,,,,,,,,,2076.6498141800585,None,2076.6498141800585,None,2077.0997531489943,None,2077.0997531489943,None,v,9.476953996532302,2077.0997531489943,None,t,8.224558386919398,2077.0997531489943,None,9.476953996532302,8.224558386919398,10,False,False,False,2086.6478461086886,None,2086.6478461086886,None,2086.6478461086886,None,2086.6478461086886,None,2086.6478461086886,None,2086.6478461086886,None,2087.6476869948497,None,2087.6476869948497,None,h,,,,,,,,,,,,,,,,,,,,,,,,,,,7_8,001,2021_Apr_08_1013,ComputerHuman,2020.1.3,59.96746988413777,
Human.xlsx,h,Sychronize.jpg,Number9.jpg,9,Human,,,,,1,3,13,0,0,2,2,6,,,,,,,,,,,,,,,,,,,,,,,,,,,,,,,,,,,,,,,,,,,,,,,,,,,,,,,,,2088.697228179189,None,2088.697228179189,None,2089.147408706029,None,2089.147408706029,None,v,8.500984998066997,2089.147408706029,None,t,6.5125727199965695,2089.147408706029,None,8.500984998066997,6.5125727199965695,9,False,False,False,2097.7123536176746,None,2097.7123536176746,None,2097.7123536176746,None,2097.7123536176746,None,2097.7123536176746,None,2097.7123536176746,None,2098.712206694009,None,2098.712206694009,None,h,,,,,,,,,,,,,,,,,,,,,,,,,,,7_8,001,2021_Apr_08_1013,ComputerHuman,2020.1.3,59.96746988413777,
Human.xlsx,h,Sychronize.jpg,Number8.jpg,8,Human,,,,,1,3,13,0,0,3,3,5,,,,,,,,,,,,,,,,,,,,,,,,,,,,,,,,,,,,,,,,,,,,,,,,,,,,,,,,,2099.761751727877,None,2099.761751727877,None,2100.211953747917,None,2100.211953747917,None,v,6.8922337369454,2100.211953747917,None,t,6.419492407607322,2100.211953747917,None,6.8922337369454,6.419492407607322,8,False,False,False,2107.1605676771146,None,2107.1605676771146,None,2107.1605676771146,None,2107.1605676771146,None,2107.1605676771146,None,2107.1605676771146,None,2108.1770186365293,None,2108.1770186365293,None,h,,,,,,,,,,,,,,,,,,,,,,,,,,,7_8,001,2021_Apr_08_1013,ComputerHuman,2020.1.3,59.96746988413777,
Human.xlsx,h,Sychronize.jpg,Number7.jpg,7,Human,,,,,1,3,13,0,0,4,4,2,,,,,,,,,,,,,,,,,,,,,,,,,,,,,,,,,,,,,,,,,,,,,,,,,,,,,,,,,2109.2268741990174,None,2109.2268741990174,None,2109.6767281575358,None,2109.6767281575358,None,v,5.295270373227595,2109.6767281575358,None,t,5.9586175702097535,2109.6767281575358,None,5.295270373227595,5.9586175702097535,7,False,False,False,2115.6922411152086,None,2115.6922411152086,None,2115.6922411152086,None,2115.6922411152086,None,2115.6922411152086,None,2115.6922411152086,None,2116.692048959585,None,2116.692048959585,None,h,,,,,,,,,,,,,,,,,,,,,,,,,,,7_8,001,2021_Apr_08_1013,ComputerHuman,2020.1.3,59.96746988413777,
Human.xlsx,h,Sychronize.jpg,Number7.jpg,7,Human,,,,,1,3,13,0,0,5,5,3,,,,,,,,,,,,,,,,,,,,,,,,,,,,,,,,,,,,,,,,,,,,,,,,,,,,,,,,,2117.741685740545,None,2117.741685740545,None,2118.191778369821,None,2118.191778369821,None,v,6.327981098815599,2118.191778369821,None,t,4.547592841801816,2118.191778369821,None,6.327981098815599,4.547592841801816,7,False,False,False,2124.5739005185637,None,2124.5739005185637,None,2124.5739005185637,None,2124.5739005185637,None,2124.5739005185637,None,2124.5739005185637,None,2125.5903771415005,None,2125.5903771415005,None,h,,,,,,,,,,,,,,,,,,,,,,,,,,,7_8,001,2021_Apr_08_1013,ComputerHuman,2020.1.3,59.96746988413777,
Human.xlsx,h,Sychronize.jpg,Number8.jpg,8,Human,,,,,1,3,13,0,0,6,6,4,,,,,,,,,,,,,,,,,,,,,,,,,,,,,,,,,,,,,,,,,,,,,,,,,,,,,,,,,2126.639946234921,None,2126.639946234921,None,2127.090064206925,None,2127.090064206925,None,v,5.925433673428415,2127.090064206925,None,t,6.1765887725296125,2127.090064206925,None,5.925433673428415,6.1765887725296125,8,True,False,False,2133.3221121720485,None,2133.3221121720485,None,2133.3221121720485,None,2133.3221121720485,None,2133.3221121720485,None,2133.3221121720485,None,2134.3218715765265,None,2134.3218715765265,None,h,,,,,,,,,,,,,,,,,,,,,,,,,,,7_8,001,2021_Apr_08_1013,ComputerHuman,2020.1.3,59.96746988413777,
Human.xlsx,h,Sychronize.jpg,Number6.jpg,6,Human,,,,,1,3,13,0,0,7,7,0,,,,,,,,,,,,,,,,,,,,,,,,,,,,,,,,,,,,,,,,,,,,,,,,,,,,,,,,,2135.3884533397068,None,2135.3884533397068,None,2135.8383830056155,None,2135.8383830056155,None,v,3.844960887187881,2135.8383830056155,None,t,4.736577416421369,2135.8383830056155,None,3.844960887187881,4.736577416421369,6,False,False,False,2140.637432813701,None,2140.637432813701,None,2140.637432813701,None,2140.637432813701,None,2140.637432813701,None,2140.637432813701,None,2141.6538998128167,None,2141.6538998128167,None,h,,,,,,,,,,,,,,,,,,,,,,,,,,,7_8,001,2021_Apr_08_1013,ComputerHuman,2020.1.3,59.96746988413777,
Human.xlsx,h,Sychronize.jpg,Number10.jpg,10,Human,,,,,1,3,13,0,0,8,8,8,,,,,,,,,,,,,,,,,,,,,,,,,,,,,,,,,,,,,,,,,,,,,,,,,,,,,,,,,2142.703646946923,None,2142.703646946923,None,2143.153598426826,None,2143.153598426826,None,v,6.785528339746634,2143.153598426826,None,t,7.676552362407165,2143.153598426826,None,6.785528339746634,7.676552362407165,10,False,False,False,2150.8854268084365,None,2150.8854268084365,None,2150.8854268084365,None,2150.8854268084365,None,2150.8854268084365,None,2150.8854268084365,None,2151.9018934867586,None,2151.9018934867586,None,h,,,,,,,,,,,,,,,,,,,,,,,,,,,7_8,001,2021_Apr_08_1013,ComputerHuman,2020.1.3,59.96746988413777,
