Condition,CorrectTuringReply,Sychronize,NumberImage,Number,Partner,trials.thisRepN,trials.thisTrialN,trials.thisN,trials.thisIndex,Block.thisRepN,Block.thisTrialN,Block.thisN,Block.thisIndex,trials_loop.thisRepN,trials_loop.thisTrialN,trials_loop.thisN,trials_loop.thisIndex,textLeft.started,textLeft.stopped,textRight.started,textRight.stopped,key_resp_Istr.keys,key_resp_Istr.rt,key_resp_Istr.started,key_resp_Istr.stopped,SychroLeftPr.started,SychroLeftPr.stopped,SychroRightPr.started,SychroRightPr.stopped,NumberLeftPr.started,NumberLeftPr.stopped,NumberRightPr.started,NumberRightPr.stopped,CrossLeftPr.started,CrossLeftPr.stopped,CrossRightPr.started,CrossRightPr.stopped,key_respPrLeft.keys,key_respPrLeft.rt,key_respPrLeft.started,key_respPrLeft.stopped,key_respPrRight.keys,key_respPrRight.rt,key_respPrRight.started,key_respPrRight.stopped,RTPrLeft,RTPrRight,CompPr,SychronizedRTsPr,SychronizedRTsLeftCPr,SychronizedRTsRightCPr,FeedbackLeftLeftPr.started,FeedbackLeftLeftPr.stopped,FeedbackRightRightPr.started,FeedbackRightRightPr.stopped,LineLeftPr.started,LineLeftPr.stopped,LineRightPr.started,LineRightPr.stopped,CreditLeftPr.started,CreditLeftPr.stopped,CreditRightPr.started,CreditRightPr.stopped,text_StartExp.started,text_StartExp.stopped,key_startExp.keys,key_startExp.rt,key_startExp.started,key_startExp.stopped,SychroLeft.started,SychroLeft.stopped,SychroRight.started,SychroRight.stopped,NumberLeft.started,NumberLeft.stopped,NumberRight.started,NumberRight.stopped,CrossLeft.started,CrossLeft.stopped,CrossRight.started,CrossRight.stopped,key_respLeft.keys,key_respLeft.rt,key_respLeft.started,key_respLeft.stopped,key_respRight.keys,key_respRight.rt,key_respRight.started,key_respRight.stopped,RTLeft,RTRight,Comp,SychronizedRTs,SychronizedRTsLeftC,SychronizedRTsRightC,FeedbackLeftLeft.started,FeedbackLeftLeft.stopped,FeedbackLeftRight.started,FeedbackLeftRight.stopped,FeedbackRightLeft.started,FeedbackRightLeft.stopped,FeedbackRightRight.started,FeedbackRightRight.stopped,LineLeft.started,LineLeft.stopped,LineRight.started,LineRight.stopped,CreditLeft.started,CreditLeft.stopped,CreditRight.started,CreditRight.stopped,CorrectTuringReply,TuringtextLeft.started,TuringtextLeft.stopped,TuringtextRight.started,TuringtextRight.stopped,keyTuringLeft.keys,keyTuringLeft.corr,keyTuringLeft.rt,keyTuringLeft.started,keyTuringLeft.stopped,keyTuringRight.keys,keyTuringRight.corr,keyTuringRight.rt,keyTuringRight.started,keyTuringRight.stopped,RespTuringLeft,RespTuringRight,BlockText.started,BlockText.stopped,text_Pause.started,text_Pause.stopped,key_respPause.keys,key_respPause.started,key_respPause.stopped,key_respPause.rt,EndText.started,EndText.stopped,participant,session,date,expName,psychopyVersion,frameRate,
,,,,,,,,,,,,,,,,,,18.251334102169494,None,18.251334102169494,None,"['v', 'v', 't']","[1143.965277895848, 1148.885256787602, 1165.5969409081372]",19.126516032483778,None,,,,,,,,,,,,,,,,,,,,,,,,,,,,,,,,,,,,,,,,,,,,,,,,,,,,,,,,,,,,,,,,,,,,,,,,,,,,,,,,,,,,,,,,,,,,,,,,,,,,,,,,,,,,,,,,,,9_10,001,2021_Apr_08_1506,ComputerHuman,2020.1.3,59.99158995966379,
,,,,,,,,,,,,,,,,,,,,,,,,,,1184.7843080392595,None,1184.7843080392595,None,1234.1578377199257,None,1234.1578377199257,None,1234.6080201715267,None,1234.6080201715267,None,v,7.745797036826843,1234.6080201715267,None,t,5.572794420750142,1234.6080201715267,None,7.745797036826843,5.572794420750142,6,False,False,False,1242.4065166099135,None,1242.4065166099135,None,1242.4065166099135,None,1242.4065166099135,None,1243.4229024481392,None,1243.4229024481392,None,1244.4228132673998,None,"['space', 'space']","[2.87979430687119, 7.903653683599259]",1245.4058727762967,None,,,,,,,,,,,,,,,,,,,,,,,,,,,,,,,,,,,,,,,,,,,,,,,,,,,,,,,,,,,,,,,,,,,,,,9_10,001,2021_Apr_08_1506,ComputerHuman,2020.1.3,59.99158995966379,
Computer.xlsx,c,Sychronize.jpg,Number7.jpg,7,Computer,,,,,0,0,0,7,0,0,0,2,,,,,,,,,,,,,,,,,,,,,,,,,,,,,,,,,,,,,,,,,,,,,,,,,,,,,1253.3876795845063,None,1253.3876795845063,None,1256.4535026698068,None,1256.4535026698068,None,1256.8870548381346,None,1256.8870548381346,None,v,7.686222056836414,1256.8870548381346,None,t,6.525787509242946,1256.8870548381346,None,7.686222056836414,6.525787509242946,7,False,False,False,1264.6354952177644,None,1264.6354952177644,None,1264.6354952177644,None,1264.6354952177644,None,1264.6354952177644,None,1264.6354952177644,None,1265.6352809273521,None,1265.6352809273521,None,c,,,,,,,,,,,,,,,,,,,,,,,,,,,9_10,001,2021_Apr_08_1506,ComputerHuman,2020.1.3,59.99158995966379,
Computer.xlsx,c,Sychronize.jpg,Number10.jpg,10,Computer,,,,,0,0,0,7,0,1,1,8,,,,,,,,,,,,,,,,,,,,,,,,,,,,,,,,,,,,,,,,,,,,,,,,,,,,,,,,,1266.6848849873204,None,1266.6848849873204,None,1267.1350542863693,None,1267.1350542863693,None,v,8.922175689265714,1267.1350542863693,None,None,,1267.1350542863693,None,8.922175689265714,13,10,False,False,False,1280.182509026341,None,1280.182509026341,None,1280.182509026341,None,1280.182509026341,None,1280.182509026341,None,1280.182509026341,None,1281.1823813503179,None,1281.1823813503179,None,c,,,,,,,,,,,,,,,,,,,,,,,,,,,9_10,001,2021_Apr_08_1506,ComputerHuman,2020.1.3,59.99158995966379,
Computer.xlsx,c,Sychronize.jpg,Number8.jpg,8,Computer,,,,,0,0,0,7,0,2,2,4,,,,,,,,,,,,,,,,,,,,,,,,,,,,,,,,,,,,,,,,,,,,,,,,,,,,,,,,,1282.2486301292956,None,1282.2486301292956,None,1282.6820122767858,None,1282.6820122767858,None,None,,1282.6820122767858,None,t,7.5017747929668985,1282.6820122767858,None,13,7.5017747929668985,8,False,False,False,1295.7295337419164,None,1295.7295337419164,None,1295.7295337419164,None,1295.7295337419164,None,1295.7295337419164,None,1295.7295337419164,None,1296.7293149603902,None,1296.7293149603902,None,c,,,,,,,,,,,,,,,,,,,,,,,,,,,9_10,001,2021_Apr_08_1506,ComputerHuman,2020.1.3,59.99158995966379,
Computer.xlsx,c,Sychronize.jpg,Number10.jpg,10,Computer,,,,,0,0,0,7,0,3,3,9,,,,,,,,,,,,,,,,,,,,,,,,,,,,,,,,,,,,,,,,,,,,,,,,,,,,,,,,,1297.795591969243,None,1297.795591969243,None,1298.229005554549,None,1298.229005554549,None,v,12.263051104091574,1298.229005554549,None,t,12.1866463069382,1298.229005554549,None,12.263051104091574,12.1866463069382,10,False,False,False,1310.5433339802694,None,1310.5433339802694,None,1310.5433339802694,None,1310.5433339802694,None,1310.5433339802694,None,1310.5433339802694,None,1311.5597698623642,None,1311.5597698623642,None,c,,,,,,,,,,,,,,,,,,,,,,,,,,,9_10,001,2021_Apr_08_1506,ComputerHuman,2020.1.3,59.99158995966379,
Computer.xlsx,c,Sychronize.jpg,Number6.jpg,6,Computer,,,,,0,0,0,7,0,4,4,1,,,,,,,,,,,,,,,,,,,,,,,,,,,,,,,,,,,,,,,,,,,,,,,,,,,,,,,,,1312.6091711805057,None,1312.6091711805057,None,1313.0428118879863,None,1313.0428118879863,None,v,5.641117453920742,1313.0428118879863,None,t,7.224780697182723,1313.0428118879863,None,5.641117453920742,7.224780697182723,6,False,False,False,1320.3414060081523,None,1320.3414060081523,None,1320.3414060081523,None,1320.3414060081523,None,1320.3414060081523,None,1320.3414060081523,None,1321.3412042287055,None,1321.3412042287055,None,c,,,,,,,,,,,,,,,,,,,,,,,,,,,9_10,001,2021_Apr_08_1506,ComputerHuman,2020.1.3,59.99158995966379,
Computer.xlsx,c,Sychronize.jpg,Number6.jpg,6,Computer,,,,,0,0,0,7,0,5,5,0,,,,,,,,,,,,,,,,,,,,,,,,,,,,,,,,,,,,,,,,,,,,,,,,,,,,,,,,,1322.3909933868308,None,1322.3909933868308,None,1322.8409307517977,None,1322.8409307517977,None,v,8.206661608812283,1322.8409307517977,None,t,5.889787682470342,1322.8409307517977,None,8.206661608812283,5.889787682470342,6,False,False,True,1331.1060089533603,None,1331.1060089533603,None,1331.1060089533603,None,1331.1060089533603,None,1331.1060089533603,None,1331.1060089533603,None,1332.1058283463208,None,1332.1058283463208,None,c,,,,,,,,,,,,,,,,,,,,,,,,,,,9_10,001,2021_Apr_08_1506,ComputerHuman,2020.1.3,59.99158995966379,
Computer.xlsx,c,Sychronize.jpg,Number9.jpg,9,Computer,,,,,0,0,0,7,0,6,6,7,,,,,,,,,,,,,,,,,,,,,,,,,,,,,,,,,,,,,,,,,,,,,,,,,,,,,,,,,1333.1553294314072,None,1333.1553294314072,None,1333.605582457698,None,1333.605582457698,None,v,8.401736137286207,1333.605582457698,None,t,9.024720067111048,1333.605582457698,None,8.401736137286207,9.024720067111048,9,False,False,True,1342.6870654243394,None,1342.6870654243394,None,1342.6870654243394,None,1342.6870654243394,None,1342.6870654243394,None,1342.6870654243394,None,1343.7035603325348,None,1343.7035603325348,None,c,,,,,,,,,,,,,,,,,,,,,,,,,,,9_10,001,2021_Apr_08_1506,ComputerHuman,2020.1.3,59.99158995966379,
Computer.xlsx,c,Sychronize.jpg,Number8.jpg,8,Computer,,,,,0,0,0,7,0,7,7,5,,,,,,,,,,,,,,,,,,,,,,,,,,,,,,,,,,,,,,,,,,,,,,,,,,,,,,,,,1344.736438833399,None,1344.736438833399,None,1345.2033134815283,None,1345.2033134815283,None,v,8.191756876618456,1345.2033134815283,None,t,7.710778839784325,1345.2033134815283,None,8.191756876618456,7.710778839784325,8,False,True,True,1353.4683397144618,None,1353.4683397144618,None,1353.4683397144618,None,1353.4683397144618,None,1353.4683397144618,None,1353.4683397144618,None,1354.4681183665816,None,1354.4681183665816,None,c,,,,,,,,,,,,,,,,,,,,,,,,,,,9_10,001,2021_Apr_08_1506,ComputerHuman,2020.1.3,59.99158995966379,
Computer.xlsx,c,Sychronize.jpg,Number7.jpg,7,Computer,,,,,0,0,0,7,0,8,8,3,,,,,,,,,,,,,,,,,,,,,,,,,,,,,,,,,,,,,,,,,,,,,,,,,,,,,,,,,1355.5176685331535,None,1355.5176685331535,None,1355.9678891592484,None,1355.9678891592484,None,v,6.439399601895275,1355.9678891592484,None,t,7.325757354603411,1355.9678891592484,None,6.439399601895275,7.325757354603411,7,False,False,False,1363.3497857897855,None,1363.3497857897855,None,1363.3497857897855,None,1363.3497857897855,None,1363.3497857897855,None,1363.3497857897855,None,1364.3495840103424,None,1364.3495840103424,None,c,,,,,,,,,,,,,,,,,,,,,,,,,,,9_10,001,2021_Apr_08_1506,ComputerHuman,2020.1.3,59.99158995966379,
Computer.xlsx,c,Sychronize.jpg,Number9.jpg,9,Computer,,,,,0,0,0,7,0,9,9,6,,,,,,,,,,,,,,,,,,,,,,,,,,,,,,,,,,,,,,,,,,,,,,,,,,,,,,,,,1365.4157583651067,None,1365.4157583651067,None,1365.849273000531,None,1365.849273000531,None,v,7.97330448325738,1365.849273000531,None,t,8.624722954256868,1365.849273000531,None,7.97330448325738,8.624722954256868,9,False,False,False,1374.5309121938626,None,1374.5309121938626,None,1374.5309121938626,None,1374.5309121938626,None,1374.5309121938626,None,1374.5309121938626,None,1375.5473817593302,None,1375.5473817593302,None,c,,,,,,,,,,,,,,,,,,,,,,,,,,,9_10,001,2021_Apr_08_1506,ComputerHuman,2020.1.3,59.99158995966379,
Computer.xlsx,c,,,,,,,,,0,0,0,7,,,,,,,,,,,,,,,,,,,,,,,,,,,,,,,,,,,,,,,,,,,,,,,,,,,,,,,,,,,,,,,,,,,,,,,,,,,,,,,,,,,,,,,,,,,,,,,,,,,c,1376.5472123800828,None,1376.5472123800828,None,q,0,17.574826650925388,1376.5472123800828,None,l,1,9.670703004074312,1376.5472123800828,None,h,c,1394.1771334807927,None,None,None,None,None,None,,,,9_10,001,2021_Apr_08_1506,ComputerHuman,2020.1.3,59.99158995966379,
Human.xlsx,h,Sychronize.jpg,Number8.jpg,8,Human,,,,,0,1,1,8,0,0,0,4,,,,,,,,,,,,,,,,,,,,,,,,,,,,,,,,,,,,,,,,,,,,,,,,,,,,,1399.176136132155,None,1399.176136132155,None,1402.2588663459792,None,1402.2588663459792,None,1402.6921403858832,None,1402.6921403858832,None,v,6.481568939438148,1402.6921403858832,None,t,7.212813475915027,1402.6921403858832,None,6.481568939438148,7.212813475915027,8,False,False,False,1409.9574463512072,None,1409.9574463512072,None,1409.9574463512072,None,1409.9574463512072,None,1409.9574463512072,None,1409.9574463512072,None,1410.973841171668,None,1410.973841171668,None,h,,,,,,,,,,,,,,,,,,,,,,,,,,,9_10,001,2021_Apr_08_1506,ComputerHuman,2020.1.3,59.99158995966379,
Human.xlsx,h,Sychronize.jpg,Number9.jpg,9,Human,,,,,0,1,1,8,0,1,1,6,,,,,,,,,,,,,,,,,,,,,,,,,,,,,,,,,,,,,,,,,,,,,,,,,,,,,,,,,1412.0234866140672,None,1412.0234866140672,None,1412.4569996455211,None,1412.4569996455211,None,v,10.716322160613345,1412.4569996455211,None,t,7.395744346405991,1412.4569996455211,None,10.716322160613345,7.395744346405991,9,False,False,False,1423.2381356734186,None,1423.2381356734186,None,1423.2381356734186,None,1423.2381356734186,None,1423.2381356734186,None,1423.2381356734186,None,1424.2547165544165,None,1424.2547165544165,None,h,,,,,,,,,,,,,,,,,,,,,,,,,,,9_10,001,2021_Apr_08_1506,ComputerHuman,2020.1.3,59.99158995966379,
Human.xlsx,h,Sychronize.jpg,Number6.jpg,6,Human,,,,,0,1,1,8,0,2,2,1,,,,,,,,,,,,,,,,,,,,,,,,,,,,,,,,,,,,,,,,,,,,,,,,,,,,,,,,,1425.3043866979533,None,1425.3043866979533,None,1425.7544408319482,None,1425.7544408319482,None,v,5.042694477371697,1425.7544408319482,None,t,8.893722221244388,1425.7544408319482,None,5.042694477371697,8.893722221244388,6,False,False,False,1434.7026178396773,None,1434.7026178396773,None,1434.7026178396773,None,1434.7026178396773,None,1434.7026178396773,None,1434.7026178396773,None,1435.702459367425,None,1435.702459367425,None,h,,,,,,,,,,,,,,,,,,,,,,,,,,,9_10,001,2021_Apr_08_1506,ComputerHuman,2020.1.3,59.99158995966379,
Human.xlsx,h,Sychronize.jpg,Number10.jpg,10,Human,,,,,0,1,1,8,0,3,3,9,,,,,,,,,,,,,,,,,,,,,,,,,,,,,,,,,,,,,,,,,,,,,,,,,,,,,,,,,1436.7688547492762,None,1436.7688547492762,None,1437.2187658091316,None,1437.2187658091316,None,v,9.498101701330597,1437.2187658091316,None,t,8.59791259324993,1437.2187658091316,None,9.498101701330597,8.59791259324993,10,False,False,False,1446.7669261355695,None,1446.7669261355695,None,1446.7669261355695,None,1446.7669261355695,None,1446.7669261355695,None,1446.7669261355695,None,1447.7667525860015,None,1447.7667525860015,None,h,,,,,,,,,,,,,,,,,,,,,,,,,,,9_10,001,2021_Apr_08_1506,ComputerHuman,2020.1.3,59.99158995966379,
Human.xlsx,h,Sychronize.jpg,Number6.jpg,6,Human,,,,,0,1,1,8,0,4,4,0,,,,,,,,,,,,,,,,,,,,,,,,,,,,,,,,,,,,,,,,,,,,,,,,,,,,,,,,,1448.816326491331,None,1448.816326491331,None,1449.2664685228883,None,1449.2664685228883,None,v,6.914079489553842,1449.2664685228883,None,t,4.737886256061756,1449.2664685228883,None,6.914079489553842,4.737886256061756,6,False,False,False,1456.231806728014,None,1456.231806728014,None,1456.231806728014,None,1456.231806728014,None,1456.231806728014,None,1456.231806728014,None,1457.2483054857366,None,1457.2483054857366,None,h,,,,,,,,,,,,,,,,,,,,,,,,,,,9_10,001,2021_Apr_08_1506,ComputerHuman,2020.1.3,59.99158995966379,
Human.xlsx,h,Sychronize.jpg,Number8.jpg,8,Human,,,,,0,1,1,8,0,5,5,5,,,,,,,,,,,,,,,,,,,,,,,,,,,,,,,,,,,,,,,,,,,,,,,,,,,,,,,,,1458.298053261431,None,1458.298053261431,None,1458.7479514895276,None,1458.7479514895276,None,v,7.544287700919085,1458.7479514895276,None,t,8.195791503127111,1458.7479514895276,None,7.544287700919085,8.195791503127111,8,False,False,False,1466.9963705363516,None,1466.9963705363516,None,1466.9963705363516,None,1466.9963705363516,None,1466.9963705363516,None,1466.9963705363516,None,1467.9961735688157,None,1467.9961735688157,None,h,,,,,,,,,,,,,,,,,,,,,,,,,,,9_10,001,2021_Apr_08_1506,ComputerHuman,2020.1.3,59.99158995966379,
Human.xlsx,h,Sychronize.jpg,Number10.jpg,10,Human,,,,,0,1,1,8,0,6,6,8,,,,,,,,,,,,,,,,,,,,,,,,,,,,,,,,,,,,,,,,,,,,,,,,,,,,,,,,,1469.0792582600443,None,1469.0792582600443,None,1469.4958240637206,None,1469.4958240637206,None,v,11.692039014968032,1469.4958240637206,None,t,9.572173363507318,1469.4958240637206,None,11.692039014968032,9.572173363507318,10,False,False,False,1481.2436084195615,None,1481.2436084195615,None,1481.2436084195615,None,1481.2436084195615,None,1481.2436084195615,None,1481.2436084195615,None,1482.2434306996693,None,1482.2434306996693,None,h,,,,,,,,,,,,,,,,,,,,,,,,,,,9_10,001,2021_Apr_08_1506,ComputerHuman,2020.1.3,59.99158995966379,
Human.xlsx,h,Sychronize.jpg,Number9.jpg,9,Human,,,,,0,1,1,8,0,7,7,7,,,,,,,,,,,,,,,,,,,,,,,,,,,,,,,,,,,,,,,,,,,,,,,,,,,,,,,,,1483.309636813039,None,1483.309636813039,None,1483.7431264265324,None,1483.7431264265324,None,v,11.952425924650015,1483.7431264265324,None,t,8.971727780604851,1483.7431264265324,None,11.952425924650015,8.971727780604851,9,False,False,False,1495.7575403438605,None,1495.7575403438605,None,1495.7575403438605,None,1495.7575403438605,None,1495.7575403438605,None,1495.7575403438605,None,1496.7572846710173,None,1496.7572846710173,None,h,,,,,,,,,,,,,,,,,,,,,,,,,,,9_10,001,2021_Apr_08_1506,ComputerHuman,2020.1.3,59.99158995966379,
Human.xlsx,h,Sychronize.jpg,Number7.jpg,7,Human,,,,,0,1,1,8,0,8,8,2,,,,,,,,,,,,,,,,,,,,,,,,,,,,,,,,,,,,,,,,,,,,,,,,,,,,,,,,,1497.823514202355,None,1497.823514202355,None,1498.2570689370332,None,1498.2570689370332,None,v,6.938516616326524,1498.2570689370332,None,t,9.538008799379895,1498.2570689370332,None,6.938516616326524,9.538008799379895,7,False,False,False,1507.8551903671978,None,1507.8551903671978,None,1507.8551903671978,None,1507.8551903671978,None,1507.8551903671978,None,1507.8551903671978,None,1508.8715973778308,None,1508.8715973778308,None,h,,,,,,,,,,,,,,,,,,,,,,,,,,,9_10,001,2021_Apr_08_1506,ComputerHuman,2020.1.3,59.99158995966379,
Human.xlsx,h,Sychronize.jpg,Number7.jpg,7,Human,,,,,0,1,1,8,0,9,9,3,,,,,,,,,,,,,,,,,,,,,,,,,,,,,,,,,,,,,,,,,,,,,,,,,,,,,,,,,1509.9044813321925,None,1509.9044813321925,None,1510.3712783481678,None,1510.3712783481678,None,v,6.96371594971788,1510.3712783481678,None,t,7.118778801290318,1510.3712783481678,None,6.96371594971788,7.118778801290318,7,True,False,False,1517.5531162734005,None,1517.5531162734005,None,1517.5531162734005,None,1517.5531162734005,None,1517.5531162734005,None,1517.5531162734005,None,1518.5530572472999,None,1518.5530572472999,None,h,,,,,,,,,,,,,,,,,,,,,,,,,,,9_10,001,2021_Apr_08_1506,ComputerHuman,2020.1.3,59.99158995966379,
Human.xlsx,h,,,,,,,,,0,1,1,8,,,,,,,,,,,,,,,,,,,,,,,,,,,,,,,,,,,,,,,,,,,,,,,,,,,,,,,,,,,,,,,,,,,,,,,,,,,,,,,,,,,,,,,,,,,,,,,,,,,h,1519.5528930007567,None,1519.5528930007567,None,a,0,8.197892383228464,1519.5528930007567,None,o,1,4.556880470539909,1519.5528930007567,None,c,h,1527.8012639284752,None,None,None,None,None,None,,,,9_10,001,2021_Apr_08_1506,ComputerHuman,2020.1.3,59.99158995966379,
Human.xlsx,h,Sychronize.jpg,Number10.jpg,10,Human,,,,,0,2,2,2,0,0,0,8,,,,,,,,,,,,,,,,,,,,,,,,,,,,,,,,,,,,,,,,,,,,,,,,,,,,,1532.800342287228,None,1532.800342287228,None,1535.8827667843434,None,1535.8827667843434,None,1536.3163455785761,None,1536.3163455785761,None,None,,1536.3163455785761,None,t,11.116625310969539,1536.3163455785761,None,13,11.116625310969539,10,False,False,False,1549.3637695223224,None,1549.3637695223224,None,1549.3637695223224,None,1549.3637695223224,None,1549.3637695223224,None,1549.3637695223224,None,1550.3634782413428,None,1550.3634782413428,None,h,,,,,,,,,,,,,,,,,,,,,,,,,,,9_10,001,2021_Apr_08_1506,ComputerHuman,2020.1.3,59.99158995966379,
Human.xlsx,h,Sychronize.jpg,Number6.jpg,6,Human,,,,,0,2,2,2,0,1,1,1,,,,,,,,,,,,,,,,,,,,,,,,,,,,,,,,,,,,,,,,,,,,,,,,,,,,,,,,,1551.4131727652275,None,1551.4131727652275,None,1551.863267640063,None,1551.863267640063,None,v,4.774732658275752,1551.863267640063,None,t,6.9417864698698395,1551.863267640063,None,4.774732658275752,6.9417864698698395,6,False,False,False,1558.862007240321,None,1558.862007240321,None,1558.862007240321,None,1558.862007240321,None,1558.862007240321,None,1558.862007240321,None,1559.8783799259909,None,1559.8783799259909,None,h,,,,,,,,,,,,,,,,,,,,,,,,,,,9_10,001,2021_Apr_08_1506,ComputerHuman,2020.1.3,59.99158995966379,
Human.xlsx,h,Sychronize.jpg,Number9.jpg,9,Human,,,,,0,2,2,2,0,2,2,6,,,,,,,,,,,,,,,,,,,,,,,,,,,,,,,,,,,,,,,,,,,,,,,,,,,,,,,,,1560.9112731833848,None,1560.9112731833848,None,1561.378096504468,None,1561.378096504468,None,v,7.895616509984393,1561.378096504468,None,t,9.054743180317018,1561.378096504468,None,7.895616509984393,9.054743180317018,9,False,False,False,1570.5096804410277,None,1570.5096804410277,None,1570.5096804410277,None,1570.5096804410277,None,1570.5096804410277,None,1570.5096804410277,None,1571.5094895685797,None,1571.5094895685797,None,h,,,,,,,,,,,,,,,,,,,,,,,,,,,9_10,001,2021_Apr_08_1506,ComputerHuman,2020.1.3,59.99158995966379,
Human.xlsx,h,Sychronize.jpg,Number6.jpg,6,Human,,,,,0,2,2,2,0,3,3,0,,,,,,,,,,,,,,,,,,,,,,,,,,,,,,,,,,,,,,,,,,,,,,,,,,,,,,,,,1572.5759035564843,None,1572.5759035564843,None,1573.0092042222896,None,1573.0092042222896,None,v,6.504192938358756,1573.0092042222896,None,t,3.5358068691639346,1573.0092042222896,None,6.504192938358756,3.5358068691639346,6,False,False,False,1579.5746800480556,None,1579.5746800480556,None,1579.5746800480556,None,1579.5746800480556,None,1579.5746800480556,None,1579.5746800480556,None,1580.5744587001755,None,1580.5744587001755,None,h,,,,,,,,,,,,,,,,,,,,,,,,,,,9_10,001,2021_Apr_08_1506,ComputerHuman,2020.1.3,59.99158995966379,
Human.xlsx,h,Sychronize.jpg,Number7.jpg,7,Human,,,,,0,2,2,2,0,4,4,2,,,,,,,,,,,,,,,,,,,,,,,,,,,,,,,,,,,,,,,,,,,,,,,,,,,,,,,,,1581.6239530485873,None,1581.6239530485873,None,1582.0741791281762,None,1582.0741791281762,None,v,5.403054279951903,1582.0741791281762,None,t,6.962775381623942,1582.0741791281762,None,5.403054279951903,6.962775381623942,7,False,False,False,1589.1060711874015,None,1589.1060711874015,None,1589.1060711874015,None,1589.1060711874015,None,1589.1060711874015,None,1589.1060711874015,None,1590.1058668416044,None,1590.1058668416044,None,h,,,,,,,,,,,,,,,,,,,,,,,,,,,9_10,001,2021_Apr_08_1506,ComputerHuman,2020.1.3,59.99158995966379,
Human.xlsx,h,Sychronize.jpg,Number8.jpg,8,Human,,,,,0,2,2,2,0,5,5,4,,,,,,,,,,,,,,,,,,,,,,,,,,,,,,,,,,,,,,,,,,,,,,,,,,,,,,,,,1591.1554391429672,None,1591.1554391429672,None,1591.6056113291634,None,1591.6056113291634,None,None,,1591.6056113291634,None,t,6.755094610180095,1591.6056113291634,None,13,6.755094610180095,8,False,False,False,1604.6697309981646,None,1604.6697309981646,None,1604.6697309981646,None,1604.6697309981646,None,1604.6697309981646,None,1604.6697309981646,None,1605.669531143485,None,1605.669531143485,None,h,,,,,,,,,,,,,,,,,,,,,,,,,,,9_10,001,2021_Apr_08_1506,ComputerHuman,2020.1.3,59.99158995966379,
Human.xlsx,h,Sychronize.jpg,Number9.jpg,9,Human,,,,,0,2,2,2,0,6,6,7,,,,,,,,,,,,,,,,,,,,,,,,,,,,,,,,,,,,,,,,,,,,,,,,,,,,,,,,,1606.7191175597836,None,1606.7191175597836,None,1607.169301936152,None,1607.169301936152,None,v,7.615321122844762,1607.169301936152,None,t,9.762717638699542,1607.169301936152,None,7.615321122844762,9.762717638699542,9,False,False,False,1616.9840116255764,None,1616.9840116255764,None,1616.9840116255764,None,1616.9840116255764,None,1616.9840116255764,None,1616.9840116255764,None,1617.983820111538,None,1617.983820111538,None,h,,,,,,,,,,,,,,,,,,,,,,,,,,,9_10,001,2021_Apr_08_1506,ComputerHuman,2020.1.3,59.99158995966379,
Human.xlsx,h,Sychronize.jpg,Number7.jpg,7,Human,,,,,0,2,2,2,0,7,7,3,,,,,,,,,,,,,,,,,,,,,,,,,,,,,,,,,,,,,,,,,,,,,,,,,,,,,,,,,1619.0334479102676,None,1619.0334479102676,None,1619.4835366900152,None,1619.4835366900152,None,v,5.9367724591902515,1619.4835366900152,None,t,6.9358347782435885,1619.4835366900152,None,5.9367724591902515,6.9358347782435885,7,False,False,False,1626.482145085516,None,1626.482145085516,None,1626.482145085516,None,1626.482145085516,None,1626.482145085516,None,1626.482145085516,None,1627.4986518630903,None,1627.4986518630903,None,h,,,,,,,,,,,,,,,,,,,,,,,,,,,9_10,001,2021_Apr_08_1506,ComputerHuman,2020.1.3,59.99158995966379,
Human.xlsx,h,Sychronize.jpg,Number10.jpg,10,Human,,,,,0,2,2,2,0,8,8,9,,,,,,,,,,,,,,,,,,,,,,,,,,,,,,,,,,,,,,,,,,,,,,,,,,,,,,,,,1628.5483938644938,None,1628.5483938644938,None,1628.9983116610238,None,1628.9983116610238,None,None,,1628.9983116610238,None,t,10.040715178209211,1628.9983116610238,None,13,10.040715178209211,10,False,False,False,1642.0458709798477,None,1642.0458709798477,None,1642.0458709798477,None,1642.0458709798477,None,1642.0458709798477,None,1642.0458709798477,None,1643.062337016585,None,1643.062337016585,None,h,,,,,,,,,,,,,,,,,,,,,,,,,,,9_10,001,2021_Apr_08_1506,ComputerHuman,2020.1.3,59.99158995966379,
Human.xlsx,h,Sychronize.jpg,Number8.jpg,8,Human,,,,,0,2,2,2,0,9,9,5,,,,,,,,,,,,,,,,,,,,,,,,,,,,,,,,,,,,,,,,,,,,,,,,,,,,,,,,,1644.1118066638555,None,1644.1118066638555,None,1644.5620952982827,None,1644.5620952982827,None,v,5.937544610416808,1644.5620952982827,None,None,,1644.5620952982827,None,5.937544610416808,13,8,False,False,False,1657.6095205252022,None,1657.6095205252022,None,1657.6095205252022,None,1657.6095205252022,None,1657.6095205252022,None,1657.6095205252022,None,1658.6259323477461,None,1658.6259323477461,None,h,,,,,,,,,,,,,,,,,,,,,,,,,,,9_10,001,2021_Apr_08_1506,ComputerHuman,2020.1.3,59.99158995966379,
Human.xlsx,h,,,,,,,,,0,2,2,2,,,,,,,,,,,,,,,,,,,,,,,,,,,,,,,,,,,,,,,,,,,,,,,,,,,,,,,,,,,,,,,,,,,,,,,,,,,,,,,,,,,,,,,,,,,,,,,,,,,h,1659.6257389089478,None,1659.6257389089478,None,q,1,4.873878864967992,1659.6257389089478,None,o,1,3.164973141520022,1659.6257389089478,None,h,h,1664.5581318880504,None,None,None,None,None,None,,,,9_10,001,2021_Apr_08_1506,ComputerHuman,2020.1.3,59.99158995966379,
Computer.xlsx,c,Sychronize.jpg,Number6.jpg,6,Computer,,,,,0,3,3,1,0,0,0,1,,,,,,,,,,,,,,,,,,,,,,,,,,,,,,,,,,,,,,,,,,,,,,,,,,,,,1669.5572157003007,None,1669.5572157003007,None,1672.656575555815,None,1672.656575555815,None,1673.0898062885244,None,1673.0898062885244,None,v,4.429224336079642,1673.0898062885244,None,t,6.368814329227462,1673.0898062885244,None,4.429224336079642,6.368814329227462,6,False,False,False,1679.5221651030624,None,1679.5221651030624,None,1679.5221651030624,None,1679.5221651030624,None,1679.5221651030624,None,1679.5221651030624,None,1680.5383998473008,None,1680.5383998473008,None,c,,,,,,,,,,,,,,,,,,,,,,,,,,,9_10,001,2021_Apr_08_1506,ComputerHuman,2020.1.3,59.99158995966379,
Computer.xlsx,c,Sychronize.jpg,Number9.jpg,9,Computer,,,,,0,3,3,1,0,1,1,7,,,,,,,,,,,,,,,,,,,,,,,,,,,,,,,,,,,,,,,,,,,,,,,,,,,,,,,,,1681.5881957421007,None,1681.5881957421007,None,1682.0214255124265,None,1682.0214255124265,None,v,8.005567701173277,1682.0214255124265,None,t,9.144746115583985,1682.0214255124265,None,8.005567701173277,9.144746115583985,9,False,False,True,1691.2196316322152,None,1691.2196316322152,None,1691.2196316322152,None,1691.2196316322152,None,1691.2196316322152,None,1691.2196316322152,None,1692.2361332770888,None,1692.2361332770888,None,c,,,,,,,,,,,,,,,,,,,,,,,,,,,9_10,001,2021_Apr_08_1506,ComputerHuman,2020.1.3,59.99158995966379,
Computer.xlsx,c,Sychronize.jpg,Number8.jpg,8,Computer,,,,,0,3,3,1,0,2,2,5,,,,,,,,,,,,,,,,,,,,,,,,,,,,,,,,,,,,,,,,,,,,,,,,,,,,,,,,,1693.285855068465,None,1693.285855068465,None,1693.7358379861835,None,1693.7358379861835,None,v,7.102581269158691,1693.7358379861835,None,t,8.145743785018567,1693.7358379861835,None,7.102581269158691,8.145743785018567,8,False,False,True,1701.9342555092371,None,1701.9342555092371,None,1701.9342555092371,None,1701.9342555092371,None,1701.9342555092371,None,1701.9342555092371,None,1702.9340418604115,None,1702.9340418604115,None,c,,,,,,,,,,,,,,,,,,,,,,,,,,,9_10,001,2021_Apr_08_1506,ComputerHuman,2020.1.3,59.99158995966379,
Computer.xlsx,c,Sychronize.jpg,Number7.jpg,7,Computer,,,,,0,3,3,1,0,3,3,3,,,,,,,,,,,,,,,,,,,,,,,,,,,,,,,,,,,,,,,,,,,,,,,,,,,,,,,,,1704.0170678463328,None,1704.0170678463328,None,1704.4503925716926,None,1704.4503925716926,None,v,6.979766237393051,1704.4503925716926,None,None,,1704.4503925716926,None,6.979766237393051,13,7,False,True,False,1717.497884844568,None,1717.497884844568,None,1717.497884844568,None,1717.497884844568,None,1717.497884844568,None,1717.497884844568,None,1718.497663175891,None,1718.497663175891,None,c,,,,,,,,,,,,,,,,,,,,,,,,,,,9_10,001,2021_Apr_08_1506,ComputerHuman,2020.1.3,59.99158995966379,
Computer.xlsx,c,Sychronize.jpg,Number9.jpg,9,Computer,,,,,0,3,3,1,0,4,4,6,,,,,,,,,,,,,,,,,,,,,,,,,,,,,,,,,,,,,,,,,,,,,,,,,,,,,,,,,1719.5642000279076,None,1719.5642000279076,None,1720.0141531117806,None,1720.0141531117806,None,v,8.947593162592966,1720.0141531117806,None,t,9.19074797939902,1720.0141531117806,None,8.947593162592966,9.19074797939902,9,False,True,True,1729.2622478358426,None,1729.2622478358426,None,1729.2622478358426,None,1729.2622478358426,None,1729.2622478358426,None,1729.2622478358426,None,1730.2787616708883,None,1730.2787616708883,None,c,,,,,,,,,,,,,,,,,,,,,,,,,,,9_10,001,2021_Apr_08_1506,ComputerHuman,2020.1.3,59.99158995966379,
Computer.xlsx,c,Sychronize.jpg,Number10.jpg,10,Computer,,,,,0,3,3,1,0,5,5,8,,,,,,,,,,,,,,,,,,,,,,,,,,,,,,,,,,,,,,,,,,,,,,,,,,,,,,,,,1731.3285710390373,None,1731.3285710390373,None,1731.7618794039008,None,1731.7618794039008,None,v,10.139512040201225,1731.7618794039008,None,None,,1731.7618794039008,None,10.139512040201225,13,10,False,True,False,1744.8092969317659,None,1744.8092969317659,None,1744.8092969317659,None,1744.8092969317659,None,1744.8092969317659,None,1744.8092969317659,None,1745.8257459664164,None,1745.8257459664164,None,c,,,,,,,,,,,,,,,,,,,,,,,,,,,9_10,001,2021_Apr_08_1506,ComputerHuman,2020.1.3,59.99158995966379,
Computer.xlsx,c,Sychronize.jpg,Number8.jpg,8,Computer,,,,,0,3,3,1,0,6,6,4,,,,,,,,,,,,,,,,,,,,,,,,,,,,,,,,,,,,,,,,,,,,,,,,,,,,,,,,,1746.8753195509526,None,1746.8753195509526,None,1747.308840602258,None,1747.308840602258,None,v,7.612224818869436,1747.308840602258,None,t,7.8720314121528645,1747.308840602258,None,7.612224818869436,7.8720314121528645,8,False,False,True,1755.2405945596547,None,1755.2405945596547,None,1755.2405945596547,None,1755.2405945596547,None,1755.2405945596547,None,1755.2405945596547,None,1756.2570775984714,None,1756.2570775984714,None,c,,,,,,,,,,,,,,,,,,,,,,,,,,,9_10,001,2021_Apr_08_1506,ComputerHuman,2020.1.3,59.99158995966379,
Computer.xlsx,c,Sychronize.jpg,Number10.jpg,10,Computer,,,,,0,3,3,1,0,7,7,9,,,,,,,,,,,,,,,,,,,,,,,,,,,,,,,,,,,,,,,,,,,,,,,,,,,,,,,,,1757.306852320864,None,1757.306852320864,None,1757.7567457370496,None,1757.7567457370496,None,v,10.15602170492275,1757.7567457370496,None,t,8.972077125301439,1757.7567457370496,None,10.15602170492275,8.972077125301439,10,False,True,False,1767.9714073073665,None,1767.9714073073665,None,1767.9714073073665,None,1767.9714073073665,None,1767.9714073073665,None,1767.9714073073665,None,1768.9712507598815,None,1768.9712507598815,None,c,,,,,,,,,,,,,,,,,,,,,,,,,,,9_10,001,2021_Apr_08_1506,ComputerHuman,2020.1.3,59.99158995966379,
Computer.xlsx,c,Sychronize.jpg,Number7.jpg,7,Computer,,,,,0,3,3,1,0,8,8,2,,,,,,,,,,,,,,,,,,,,,,,,,,,,,,,,,,,,,,,,,,,,,,,,,,,,,,,,,1770.0375675471914,None,1770.0375675471914,None,1770.4876460615305,None,1770.4876460615305,None,v,7.596842103572271,1770.4876460615305,None,t,6.939794018151588,1770.4876460615305,None,7.596842103572271,6.939794018151588,7,False,False,True,1778.136138249396,None,1778.136138249396,None,1778.136138249396,None,1778.136138249396,None,1778.136138249396,None,1778.136138249396,None,1779.1526052485096,None,1779.1526052485096,None,c,,,,,,,,,,,,,,,,,,,,,,,,,,,9_10,001,2021_Apr_08_1506,ComputerHuman,2020.1.3,59.99158995966379,
Computer.xlsx,c,Sychronize.jpg,Number6.jpg,6,Computer,,,,,0,3,3,1,0,9,9,0,,,,,,,,,,,,,,,,,,,,,,,,,,,,,,,,,,,,,,,,,,,,,,,,,,,,,,,,,1780.202264485055,None,1780.202264485055,None,1780.6357547401312,None,1780.6357547401312,None,v,6.100539094368287,1780.6357547401312,None,t,8.555731065534928,1780.6357547401312,None,6.100539094368287,8.555731065534928,6,False,True,False,1789.2673128527713,None,1789.2673128527713,None,1789.2673128527713,None,1789.2673128527713,None,1789.2673128527713,None,1789.2673128527713,None,1790.2671213387366,None,1790.2671213387366,None,c,,,,,,,,,,,,,,,,,,,,,,,,,,,9_10,001,2021_Apr_08_1506,ComputerHuman,2020.1.3,59.99158995966379,
Computer.xlsx,c,,,,,,,,,0,3,3,1,,,,,,,,,,,,,,,,,,,,,,,,,,,,,,,,,,,,,,,,,,,,,,,,,,,,,,,,,,,,,,,,,,,,,,,,,,,,,,,,,,,,,,,,,,,,,,,,,,,c,1791.2669590169571,None,1791.2669590169571,None,a,1,2.9091440734118805,1791.2669590169571,None,l,1,4.252883858127461,1791.2669590169571,None,c,c,None,None,1795.5827852300026,None,"['space', 'space']",1796.5659287869348,None,"[4.409964183345437, 8.085882015162497]",,,9_10,001,2021_Apr_08_1506,ComputerHuman,2020.1.3,59.99158995966379,
Computer.xlsx,c,Sychronize.jpg,Number7.jpg,7,Computer,,,,,0,4,4,9,0,0,0,3,,,,,,,,,,,,,,,,,,,,,,,,,,,,,,,,,,,,,,,,,,,,,,,,,,,,,1804.7143736576763,None,1804.7143736576763,None,1807.797090398155,None,1807.797090398155,None,1808.2303625132918,None,1808.2303625132918,None,v,6.149200340682,1808.2303625132918,None,t,9.436687288376561,1808.2303625132918,None,6.149200340682,9.436687288376561,7,False,False,False,1817.728463893829,None,1817.728463893829,None,1817.728463893829,None,1817.728463893829,None,1817.728463893829,None,1817.728463893829,None,1818.7283182533392,None,1818.7283182533392,None,c,,,,,,,,,,,,,,,,,,,,,,,,,,,9_10,001,2021_Apr_08_1506,ComputerHuman,2020.1.3,59.99158995966379,
Computer.xlsx,c,Sychronize.jpg,Number9.jpg,9,Computer,,,,,0,4,4,9,0,1,1,7,,,,,,,,,,,,,,,,,,,,,,,,,,,,,,,,,,,,,,,,,,,,,,,,,,,,,,,,,1819.7947550176177,None,1819.7947550176177,None,1820.2446817963828,None,1820.2446817963828,None,v,7.762589321086125,1820.2446817963828,None,t,8.353696269005013,1820.2446817963828,None,7.762589321086125,8.353696269005013,9,False,False,False,1828.6596968817212,None,1828.6596968817212,None,1828.6596968817212,None,1828.6596968817212,None,1828.6596968817212,None,1828.6596968817212,None,1829.659440246498,None,1829.659440246498,None,c,,,,,,,,,,,,,,,,,,,,,,,,,,,9_10,001,2021_Apr_08_1506,ComputerHuman,2020.1.3,59.99158995966379,
Computer.xlsx,c,Sychronize.jpg,Number8.jpg,8,Computer,,,,,0,4,4,9,0,2,2,5,,,,,,,,,,,,,,,,,,,,,,,,,,,,,,,,,,,,,,,,,,,,,,,,,,,,,,,,,1830.7257772438352,None,1830.7257772438352,None,1831.15922194616,None,1831.15922194616,None,v,8.411758705147804,1831.15922194616,None,t,6.8587781276219175,1831.15922194616,None,8.411758705147804,6.8587781276219175,8,False,False,False,1839.6243027140772,None,1839.6243027140772,None,1839.6243027140772,None,1839.6243027140772,None,1839.6243027140772,None,1839.6243027140772,None,1840.640742445703,None,1840.640742445703,None,c,,,,,,,,,,,,,,,,,,,,,,,,,,,9_10,001,2021_Apr_08_1506,ComputerHuman,2020.1.3,59.99158995966379,
Computer.xlsx,c,Sychronize.jpg,Number10.jpg,10,Computer,,,,,0,4,4,9,0,3,3,9,,,,,,,,,,,,,,,,,,,,,,,,,,,,,,,,,,,,,,,,,,,,,,,,,,,,,,,,,1841.6736353822962,None,1841.6736353822962,None,1842.1404760262594,None,1842.1404760262594,None,v,11.442140466082492,1842.1404760262594,None,t,10.337947848514887,1842.1404760262594,None,11.442140466082492,10.337947848514887,10,False,False,False,1853.654872781106,None,1853.654872781106,None,1853.654872781106,None,1853.654872781106,None,1853.654872781106,None,1853.654872781106,None,1854.6546841542186,None,1854.6546841542186,None,c,,,,,,,,,,,,,,,,,,,,,,,,,,,9_10,001,2021_Apr_08_1506,ComputerHuman,2020.1.3,59.99158995966379,
Computer.xlsx,c,Sychronize.jpg,Number10.jpg,10,Computer,,,,,0,4,4,9,0,4,4,8,,,,,,,,,,,,,,,,,,,,,,,,,,,,,,,,,,,,,,,,,,,,,,,,,,,,,,,,,1855.7044652924924,None,1855.7044652924924,None,1856.1543927128441,None,1856.1543927128441,None,v,10.435935667966987,1856.1543927128441,None,t,9.950650650491298,1856.1543927128441,None,10.435935667966987,9.950650650491298,10,False,False,True,1866.6523757203831,None,1866.6523757203831,None,1866.6523757203831,None,1866.6523757203831,None,1866.6523757203831,None,1866.6523757203831,None,1867.6522294383067,None,1867.6522294383067,None,c,,,,,,,,,,,,,,,,,,,,,,,,,,,9_10,001,2021_Apr_08_1506,ComputerHuman,2020.1.3,59.99158995966379,
Computer.xlsx,c,Sychronize.jpg,Number9.jpg,9,Computer,,,,,0,4,4,9,0,5,5,6,,,,,,,,,,,,,,,,,,,,,,,,,,,,,,,,,,,,,,,,,,,,,,,,,,,,,,,,,1868.7017148044833,None,1868.7017148044833,None,1869.151912974994,None,1869.151912974994,None,v,9.754045613703056,1869.151912974994,None,t,7.769825472008961,1869.151912974994,None,9.754045613703056,7.769825472008961,9,False,False,False,1878.9666637260561,None,1878.9666637260561,None,1878.9666637260561,None,1878.9666637260561,None,1878.9666637260561,None,1878.9666637260561,None,1879.9664715704312,None,1879.9664715704312,None,c,,,,,,,,,,,,,,,,,,,,,,,,,,,9_10,001,2021_Apr_08_1506,ComputerHuman,2020.1.3,59.99158995966379,
Computer.xlsx,c,Sychronize.jpg,Number6.jpg,6,Computer,,,,,0,4,4,9,0,6,6,0,,,,,,,,,,,,,,,,,,,,,,,,,,,,,,,,,,,,,,,,,,,,,,,,,,,,,,,,,1881.01607883834,None,1881.01607883834,None,1881.4661936024058,None,1881.4661936024058,None,v,6.811555963318824,1881.4661936024058,None,t,6.202793474407372,1881.4661936024058,None,6.811555963318824,6.202793474407372,6,False,False,True,1888.3481734789966,None,1888.3481734789966,None,1888.3481734789966,None,1888.3481734789966,None,1888.3481734789966,None,1888.3481734789966,None,1889.348038745502,None,1889.348038745502,None,c,,,,,,,,,,,,,,,,,,,,,,,,,,,9_10,001,2021_Apr_08_1506,ComputerHuman,2020.1.3,59.99158995966379,
Computer.xlsx,c,Sychronize.jpg,Number7.jpg,7,Computer,,,,,0,4,4,9,0,7,7,2,,,,,,,,,,,,,,,,,,,,,,,,,,,,,,,,,,,,,,,,,,,,,,,,,,,,,,,,,1890.3975093551562,None,1890.3975093551562,None,1890.847741529833,None,1890.847741529833,None,v,7.461761832888442,1890.847741529833,None,t,7.408776603850129,1890.847741529833,None,7.461761832888442,7.408776603850129,7,False,False,False,1898.3628029699103,None,1898.3628029699103,None,1898.3628029699103,None,1898.3628029699103,None,1898.3628029699103,None,1898.3628029699103,None,1899.362706731703,None,1899.362706731703,None,c,,,,,,,,,,,,,,,,,,,,,,,,,,,9_10,001,2021_Apr_08_1506,ComputerHuman,2020.1.3,59.99158995966379,
Computer.xlsx,c,Sychronize.jpg,Number6.jpg,6,Computer,,,,,0,4,4,9,0,8,8,1,,,,,,,,,,,,,,,,,,,,,,,,,,,,,,,,,,,,,,,,,,,,,,,,,,,,,,,,,1900.4122479160433,None,1900.4122479160433,None,1900.8624165735018,None,1900.8624165735018,None,v,5.17094696793356,1900.8624165735018,None,t,5.457834672382887,1900.8624165735018,None,5.17094696793356,5.457834672382887,6,False,False,False,1906.3779855097346,None,1906.3779855097346,None,1906.3779855097346,None,1906.3779855097346,None,1906.3779855097346,None,1906.3779855097346,None,1907.394487475398,None,1907.394487475398,None,c,,,,,,,,,,,,,,,,,,,,,,,,,,,9_10,001,2021_Apr_08_1506,ComputerHuman,2020.1.3,59.99158995966379,
Computer.xlsx,c,Sychronize.jpg,Number8.jpg,8,Computer,,,,,0,4,4,9,0,9,9,4,,,,,,,,,,,,,,,,,,,,,,,,,,,,,,,,,,,,,,,,,,,,,,,,,,,,,,,,,1908.4442923524293,None,1908.4442923524293,None,1908.894208865786,None,1908.894208865786,None,v,7.298868078265514,1908.894208865786,None,t,12.269895886296581,1908.894208865786,None,7.298868078265514,12.269895886296581,8,False,False,False,1921.2418196720537,None,1921.2418196720537,None,1921.2418196720537,None,1921.2418196720537,None,1921.2418196720537,None,1921.2418196720537,None,1922.2416230253111,None,1922.2416230253111,None,c,,,,,,,,,,,,,,,,,,,,,,,,,,,9_10,001,2021_Apr_08_1506,ComputerHuman,2020.1.3,59.99158995966379,
Computer.xlsx,c,,,,,,,,,0,4,4,9,,,,,,,,,,,,,,,,,,,,,,,,,,,,,,,,,,,,,,,,,,,,,,,,,,,,,,,,,,,,,,,,,,,,,,,,,,,,,,,,,,,,,,,,,,,,,,,,,,,c,1923.2414183587207,None,1923.2414183587207,None,q,0,5.779328353539313,1923.2414183587207,None,o,0,10.718655937176663,1923.2414183587207,None,h,h,1934.0226618526176,None,None,None,None,None,None,,,,9_10,001,2021_Apr_08_1506,ComputerHuman,2020.1.3,59.99158995966379,
Computer.xlsx,c,Sychronize.jpg,Number7.jpg,7,Computer,,,,,0,5,5,5,0,0,0,2,,,,,,,,,,,,,,,,,,,,,,,,,,,,,,,,,,,,,,,,,,,,,,,,,,,,,1939.0383627955925,None,1939.0383627955925,None,1942.1203795634938,None,1942.1203795634938,None,1942.5543362530916,None,1942.5543362530916,None,v,5.389959146879846,1942.5543362530916,None,t,6.728808426618343,1942.5543362530916,None,5.389959146879846,6.728808426618343,7,False,False,True,1949.3363028167332,None,1949.3363028167332,None,1949.3363028167332,None,1949.3363028167332,None,1949.3363028167332,None,1949.3363028167332,None,1950.3362707373271,None,1950.3362707373271,None,c,,,,,,,,,,,,,,,,,,,,,,,,,,,9_10,001,2021_Apr_08_1506,ComputerHuman,2020.1.3,59.99158995966379,
Computer.xlsx,c,Sychronize.jpg,Number9.jpg,9,Computer,,,,,0,5,5,5,0,1,1,7,,,,,,,,,,,,,,,,,,,,,,,,,,,,,,,,,,,,,,,,,,,,,,,,,,,,,,,,,1951.3857028516977,None,1951.3857028516977,None,1951.835922515409,None,1951.835922515409,None,v,9.048021583021182,1951.835922515409,None,t,8.363728460688435,1951.835922515409,None,9.048021583021182,8.363728460688435,9,False,True,False,1960.93412526686,None,1960.93412526686,None,1960.93412526686,None,1960.93412526686,None,1960.93412526686,None,1960.93412526686,None,1961.950958612757,None,1961.950958612757,None,c,,,,,,,,,,,,,,,,,,,,,,,,,,,9_10,001,2021_Apr_08_1506,ComputerHuman,2020.1.3,59.99158995966379,
Computer.xlsx,c,Sychronize.jpg,Number10.jpg,10,Computer,,,,,0,5,5,5,0,2,2,9,,,,,,,,,,,,,,,,,,,,,,,,,,,,,,,,,,,,,,,,,,,,,,,,,,,,,,,,,1963.0000968797976,None,1963.0000968797976,None,1963.4336557847964,None,1963.4336557847964,None,v,10.773940938612213,1963.4336557847964,None,t,11.989692567043676,1963.4336557847964,None,10.773940938612213,11.989692567043676,10,False,False,False,1975.4813857660483,None,1975.4813857660483,None,1975.4813857660483,None,1975.4813857660483,None,1975.4813857660483,None,1975.4813857660483,None,1976.4977555645746,None,1976.4977555645746,None,c,,,,,,,,,,,,,,,,,,,,,,,,,,,9_10,001,2021_Apr_08_1506,ComputerHuman,2020.1.3,59.99158995966379,
Computer.xlsx,c,Sychronize.jpg,Number6.jpg,6,Computer,,,,,0,5,5,5,0,3,3,0,,,,,,,,,,,,,,,,,,,,,,,,,,,,,,,,,,,,,,,,,,,,,,,,,,,,,,,,,1977.5473291491107,None,1977.5473291491107,None,1977.9975372642366,None,1977.9975372642366,None,v,6.081933682249655,1977.9975372642366,None,t,5.7688464086313616,1977.9975372642366,None,6.081933682249655,5.7688464086313616,6,False,True,True,1984.1298397794235,None,1984.1298397794235,None,1984.1298397794235,None,1984.1298397794235,None,1984.1298397794235,None,1984.1298397794235,None,1985.129414727333,None,1985.129414727333,None,c,,,,,,,,,,,,,,,,,,,,,,,,,,,9_10,001,2021_Apr_08_1506,ComputerHuman,2020.1.3,59.99158995966379,
Computer.xlsx,c,Sychronize.jpg,Number9.jpg,9,Computer,,,,,0,5,5,5,0,4,4,6,,,,,,,,,,,,,,,,,,,,,,,,,,,,,,,,,,,,,,,,,,,,,,,,,,,,,,,,,1986.1959101969187,None,1986.1959101969187,None,1986.6458828492287,None,1986.6458828492287,None,v,8.757234627148136,1986.6458828492287,None,t,8.864742651010602,1986.6458828492287,None,8.757234627148136,8.864742651010602,9,False,True,True,1995.5607341692157,None,1995.5607341692157,None,1995.5607341692157,None,1995.5607341692157,None,1995.5607341692157,None,1995.5607341692157,None,1996.5771309144402,None,1996.5771309144402,None,c,,,,,,,,,,,,,,,,,,,,,,,,,,,9_10,001,2021_Apr_08_1506,ComputerHuman,2020.1.3,59.99158995966379,
Computer.xlsx,c,Sychronize.jpg,Number6.jpg,6,Computer,,,,,0,5,5,5,0,5,5,1,,,,,,,,,,,,,,,,,,,,,,,,,,,,,,,,,,,,,,,,,,,,,,,,,,,,,,,,,1997.6101409408548,None,1997.6101409408548,None,1998.060347452014,None,1998.060347452014,None,v,8.990449961744162,1998.060347452014,None,t,5.909780528763804,1998.060347452014,None,8.990449961744162,5.909780528763804,6,False,False,True,2007.108507618057,None,2007.108507618057,None,2007.108507618057,None,2007.108507618057,None,2007.108507618057,None,2007.108507618057,None,2008.1249912984604,None,2008.1249912984604,None,c,,,,,,,,,,,,,,,,,,,,,,,,,,,9_10,001,2021_Apr_08_1506,ComputerHuman,2020.1.3,59.99158995966379,
Computer.xlsx,c,Sychronize.jpg,Number8.jpg,8,Computer,,,,,0,5,5,5,0,6,6,4,,,,,,,,,,,,,,,,,,,,,,,,,,,,,,,,,,,,,,,,,,,,,,,,,,,,,,,,,2009.174765058473,None,2009.174765058473,None,2009.6247197463163,None,2009.6247197463163,None,v,6.925831778818974,2009.6247197463163,None,t,7.956738679578848,2009.6247197463163,None,6.925831778818974,7.956738679578848,8,False,False,True,2017.639840693686,None,2017.639840693686,None,2017.639840693686,None,2017.639840693686,None,2017.639840693686,None,2017.639840693686,None,2018.6396247993034,None,2018.6396247993034,None,c,,,,,,,,,,,,,,,,,,,,,,,,,,,9_10,001,2021_Apr_08_1506,ComputerHuman,2020.1.3,59.99158995966379,
Computer.xlsx,c,Sychronize.jpg,Number10.jpg,10,Computer,,,,,0,5,5,5,0,7,7,8,,,,,,,,,,,,,,,,,,,,,,,,,,,,,,,,,,,,,,,,,,,,,,,,,,,,,,,,,2019.7060699042268,None,2019.7060699042268,None,2020.1559790393185,None,2020.1559790393185,None,v,10.102249247338477,2020.1559790393185,None,t,9.213693413938017,2020.1559790393185,None,10.102249247338477,9.213693413938017,10,False,True,False,2030.3206532008007,None,2030.3206532008007,None,2030.3206532008007,None,2030.3206532008007,None,2030.3206532008007,None,2030.3206532008007,None,2031.3205098058716,None,2031.3205098058716,None,c,,,,,,,,,,,,,,,,,,,,,,,,,,,9_10,001,2021_Apr_08_1506,ComputerHuman,2020.1.3,59.99158995966379,
Computer.xlsx,c,Sychronize.jpg,Number8.jpg,8,Computer,,,,,0,5,5,5,0,8,8,5,,,,,,,,,,,,,,,,,,,,,,,,,,,,,,,,,,,,,,,,,,,,,,,,,,,,,,,,,2032.3867207311523,None,2032.3867207311523,None,2032.8202032871777,None,2032.8202032871777,None,v,8.44174845577436,2032.8202032871777,None,t,7.572771002785885,2032.8202032871777,None,8.44174845577436,7.572771002785885,8,False,False,False,2041.3185895328097,None,2041.3185895328097,None,2041.3185895328097,None,2041.3185895328097,None,2041.3185895328097,None,2041.3185895328097,None,2042.3350414546076,None,2042.3350414546076,None,c,,,,,,,,,,,,,,,,,,,,,,,,,,,9_10,001,2021_Apr_08_1506,ComputerHuman,2020.1.3,59.99158995966379,
Computer.xlsx,c,Sychronize.jpg,Number7.jpg,7,Computer,,,,,0,5,5,5,0,9,9,3,,,,,,,,,,,,,,,,,,,,,,,,,,,,,,,,,,,,,,,,,,,,,,,,,,,,,,,,,2043.3846240213788,None,2043.3846240213788,None,2043.834754504347,None,2043.834754504347,None,v,6.530910910689272,2043.834754504347,None,t,7.5457598247194255,2043.834754504347,None,6.530910910689272,7.5457598247194255,7,False,False,False,2051.4333038737495,None,2051.4333038737495,None,2051.4333038737495,None,2051.4333038737495,None,2051.4333038737495,None,2051.4333038737495,None,2052.433151175788,None,2052.433151175788,None,c,,,,,,,,,,,,,,,,,,,,,,,,,,,9_10,001,2021_Apr_08_1506,ComputerHuman,2020.1.3,59.99158995966379,
Computer.xlsx,c,,,,,,,,,0,5,5,5,,,,,,,,,,,,,,,,,,,,,,,,,,,,,,,,,,,,,,,,,,,,,,,,,,,,,,,,,,,,,,,,,,,,,,,,,,,,,,,,,,,,,,,,,,,,,,,,,,,c,2053.449576150888,None,2053.449576150888,None,a,1,2.8243495500028075,2053.449576150888,None,l,1,4.1668645431163895,2053.449576150888,None,c,c,2057.6821566340986,None,None,None,None,None,None,,,,9_10,001,2021_Apr_08_1506,ComputerHuman,2020.1.3,59.99158995966379,
Computer.xlsx,c,Sychronize.jpg,Number9.jpg,9,Computer,,,,,0,6,6,3,0,0,0,7,,,,,,,,,,,,,,,,,,,,,,,,,,,,,,,,,,,,,,,,,,,,,,,,,,,,,2062.680403494731,None,2062.680403494731,None,2065.7636437710607,None,2065.7636437710607,None,2066.197105475472,None,2066.197105475472,None,v,8.303993404475477,2066.197105475472,None,t,8.327750447911967,2066.197105475472,None,8.303993404475477,8.327750447911967,9,False,False,False,2074.578813479122,None,2074.578813479122,None,2074.578813479122,None,2074.578813479122,None,2074.578813479122,None,2074.578813479122,None,2075.595239416605,None,2075.595239416605,None,c,,,,,,,,,,,,,,,,,,,,,,,,,,,9_10,001,2021_Apr_08_1506,ComputerHuman,2020.1.3,59.99158995966379,
Computer.xlsx,c,Sychronize.jpg,Number10.jpg,10,Computer,,,,,0,6,6,3,0,1,1,8,,,,,,,,,,,,,,,,,,,,,,,,,,,,,,,,,,,,,,,,,,,,,,,,,,,,,,,,,2076.645088563211,None,2076.645088563211,None,2077.0950252865878,None,2077.0950252865878,None,v,9.373796581297938,2077.0950252865878,None,t,11.47663063615255,2077.0950252865878,None,9.373796581297938,11.47663063615255,10,False,False,False,2088.6425767459623,None,2088.6425767459623,None,2088.6425767459623,None,2088.6425767459623,None,2088.6425767459623,None,2088.6425767459623,None,2089.642630960152,None,2089.642630960152,None,c,,,,,,,,,,,,,,,,,,,,,,,,,,,9_10,001,2021_Apr_08_1506,ComputerHuman,2020.1.3,59.99158995966379,
Computer.xlsx,c,Sychronize.jpg,Number7.jpg,7,Computer,,,,,0,6,6,3,0,2,2,2,,,,,,,,,,,,,,,,,,,,,,,,,,,,,,,,,,,,,,,,,,,,,,,,,,,,,,,,,2090.65827480179,None,2090.65827480179,None,2091.142297173963,None,2091.142297173963,None,v,7.002251011705084,2091.142297173963,None,t,8.529722368806688,2091.142297173963,None,7.002251011705084,8.529722368806688,7,False,True,False,2099.7239775893286,None,2099.7239775893286,None,2099.7239775893286,None,2099.7239775893286,None,2099.7239775893286,None,2099.7239775893286,None,2100.723694007407,None,2100.723694007407,None,c,,,,,,,,,,,,,,,,,,,,,,,,,,,9_10,001,2021_Apr_08_1506,ComputerHuman,2020.1.3,59.99158995966379,
Computer.xlsx,c,Sychronize.jpg,Number8.jpg,8,Computer,,,,,0,6,6,3,0,3,3,5,,,,,,,,,,,,,,,,,,,,,,,,,,,,,,,,,,,,,,,,,,,,,,,,,,,,,,,,,2101.790215461311,None,2101.790215461311,None,2102.2234554970455,None,2102.2234554970455,None,v,8.124787273456604,2102.2234554970455,None,t,10.115716822278046,2102.2234554970455,None,8.124787273456604,10.115716822278046,8,False,True,False,2112.4048317996712,None,2112.4048317996712,None,2112.4048317996712,None,2112.4048317996712,None,2112.4048317996712,None,2112.4048317996712,None,2113.404609168614,None,2113.404609168614,None,c,,,,,,,,,,,,,,,,,,,,,,,,,,,9_10,001,2021_Apr_08_1506,ComputerHuman,2020.1.3,59.99158995966379,
Computer.xlsx,c,Sychronize.jpg,Number8.jpg,8,Computer,,,,,0,6,6,3,0,4,4,4,,,,,,,,,,,,,,,,,,,,,,,,,,,,,,,,,,,,,,,,,,,,,,,,,,,,,,,,,2114.454153560895,None,2114.454153560895,None,2114.90435686411,None,2114.90435686411,None,v,7.7275496308466245,2114.90435686411,None,t,9.858694721173379,2114.90435686411,None,7.7275496308466245,9.858694721173379,8,False,True,False,2124.8189582855484,None,2124.8189582855484,None,2124.8189582855484,None,2124.8189582855484,None,2124.8189582855484,None,2124.8189582855484,None,2125.835527617961,None,2125.835527617961,None,c,,,,,,,,,,,,,,,,,,,,,,,,,,,9_10,001,2021_Apr_08_1506,ComputerHuman,2020.1.3,59.99158995966379,
Computer.xlsx,c,Sychronize.jpg,Number10.jpg,10,Computer,,,,,0,6,6,3,0,5,5,9,,,,,,,,,,,,,,,,,,,,,,,,,,,,,,,,,,,,,,,,,,,,,,,,,,,,,,,,,2126.8851223749007,None,2126.8851223749007,None,2127.3352429132574,None,2127.3352429132574,None,v,10.12832787716252,2127.3352429132574,None,t,8.643782931510941,2127.3352429132574,None,10.12832787716252,8.643782931510941,10,False,True,False,2137.5332802953853,None,2137.5332802953853,None,2137.5332802953853,None,2137.5332802953853,None,2137.5332802953853,None,2137.5332802953853,None,2138.5331176528125,None,2138.5331176528125,None,c,,,,,,,,,,,,,,,,,,,,,,,,,,,9_10,001,2021_Apr_08_1506,ComputerHuman,2020.1.3,59.99158995966379,
Computer.xlsx,c,Sychronize.jpg,Number9.jpg,9,Computer,,,,,0,6,6,3,0,6,6,6,,,,,,,,,,,,,,,,,,,,,,,,,,,,,,,,,,,,,,,,,,,,,,,,,,,,,,,,,2139.58290071585,None,2139.58290071585,None,2140.0327777715393,None,2140.0327777715393,None,v,8.962490837322548,2140.0327777715393,None,t,9.221735399463796,2140.0327777715393,None,8.962490837322548,9.221735399463796,9,False,True,True,2149.3143441446264,None,2149.3143441446264,None,2149.3143441446264,None,2149.3143441446264,None,2149.3143441446264,None,2149.3143441446264,None,2150.3141969001663,None,2150.3141969001663,None,c,,,,,,,,,,,,,,,,,,,,,,,,,,,9_10,001,2021_Apr_08_1506,ComputerHuman,2020.1.3,59.99158995966379,
Computer.xlsx,c,Sychronize.jpg,Number6.jpg,6,Computer,,,,,0,6,6,3,0,7,7,0,,,,,,,,,,,,,,,,,,,,,,,,,,,,,,,,,,,,,,,,,,,,,,,,,,,,,,,,,2151.3637746550266,None,2151.3637746550266,None,2151.813873058596,None,2151.813873058596,None,v,5.513167792920285,2151.813873058596,None,t,6.352812802248081,2151.813873058596,None,5.513167792920285,6.352812802248081,6,False,False,False,2158.2293112712578,None,2158.2293112712578,None,2158.2293112712578,None,2158.2293112712578,None,2158.2293112712578,None,2158.2293112712578,None,2159.2457583811447,None,2159.2457583811447,None,c,,,,,,,,,,,,,,,,,,,,,,,,,,,9_10,001,2021_Apr_08_1506,ComputerHuman,2020.1.3,59.99158995966379,
Computer.xlsx,c,Sychronize.jpg,Number6.jpg,6,Computer,,,,,0,6,6,3,0,8,8,1,,,,,,,,,,,,,,,,,,,,,,,,,,,,,,,,,,,,,,,,,,,,,,,,,,,,,,,,,2160.2786914169956,None,2160.2786914169956,None,2160.7454390306884,None,2160.7454390306884,None,None,,2160.7454390306884,None,t,5.816762771210051,2160.7454390306884,None,13,5.816762771210051,6,False,False,True,2173.792853350613,None,2173.792853350613,None,2173.792853350613,None,2173.792853350613,None,2173.792853350613,None,2173.792853350613,None,2174.8094034353817,None,2174.8094034353817,None,c,,,,,,,,,,,,,,,,,,,,,,,,,,,9_10,001,2021_Apr_08_1506,ComputerHuman,2020.1.3,59.99158995966379,
Computer.xlsx,c,Sychronize.jpg,Number7.jpg,7,Computer,,,,,0,6,6,3,0,9,9,3,,,,,,,,,,,,,,,,,,,,,,,,,,,,,,,,,,,,,,,,,,,,,,,,,,,,,,,,,2175.859186498419,None,2175.859186498419,None,2176.309122580209,None,2176.309122580209,None,v,7.0773873892649135,2176.309122580209,None,t,7.560756304003007,2176.309122580209,None,7.0773873892649135,7.560756304003007,7,False,True,False,2183.924308007179,None,2183.924308007179,None,2183.924308007179,None,2183.924308007179,None,2183.924308007179,None,2183.924308007179,None,2184.924088904856,None,2184.924088904856,None,c,,,,,,,,,,,,,,,,,,,,,,,,,,,9_10,001,2021_Apr_08_1506,ComputerHuman,2020.1.3,59.99158995966379,
Computer.xlsx,c,,,,,,,,,0,6,6,3,,,,,,,,,,,,,,,,,,,,,,,,,,,,,,,,,,,,,,,,,,,,,,,,,,,,,,,,,,,,,,,,,,,,,,,,,,,,,,,,,,,,,,,,,,,,,,,,,,,c,2185.9239230543426,None,2185.9239230543426,None,a,1,2.126363013729133,2185.9239230543426,None,o,0,4.090322125324747,2185.9239230543426,None,c,h,2190.0730871453015,None,None,None,None,None,None,,,,9_10,001,2021_Apr_08_1506,ComputerHuman,2020.1.3,59.99158995966379,
Human.xlsx,h,Sychronize.jpg,Number8.jpg,8,Human,,,,,0,7,7,4,0,0,0,4,,,,,,,,,,,,,,,,,,,,,,,,,,,,,,,,,,,,,,,,,,,,,,,,,,,,,2195.088907744448,None,2195.088907744448,None,2198.1542275039174,None,2198.1542275039174,None,2198.5881229218576,None,2198.5881229218576,None,v,7.3697786360826285,2198.5881229218576,None,t,8.056747822211037,2198.5881229218576,None,7.3697786360826285,8.056747822211037,8,False,False,False,2206.7198781624284,None,2206.7198781624284,None,2206.7198781624284,None,2206.7198781624284,None,2206.7198781624284,None,2206.7198781624284,None,2207.7196930642713,None,2207.7196930642713,None,h,,,,,,,,,,,,,,,,,,,,,,,,,,,9_10,001,2021_Apr_08_1506,ComputerHuman,2020.1.3,59.99158995966379,
Human.xlsx,h,Sychronize.jpg,Number10.jpg,10,Human,,,,,0,7,7,4,0,1,1,9,,,,,,,,,,,,,,,,,,,,,,,,,,,,,,,,,,,,,,,,,,,,,,,,,,,,,,,,,2208.76946425793,None,2208.76946425793,None,2209.219402906074,None,2209.219402906074,None,v,9.71011607932087,2209.219402906074,None,t,10.329672645733808,2209.219402906074,None,9.71011607932087,10.329672645733808,10,False,False,False,2219.61737260066,None,2219.61737260066,None,2219.61737260066,None,2219.61737260066,None,2219.61737260066,None,2219.61737260066,None,2220.6172141284114,None,2220.6172141284114,None,h,,,,,,,,,,,,,,,,,,,,,,,,,,,9_10,001,2021_Apr_08_1506,ComputerHuman,2020.1.3,59.99158995966379,
Human.xlsx,h,Sychronize.jpg,Number10.jpg,10,Human,,,,,0,7,7,4,0,2,2,8,,,,,,,,,,,,,,,,,,,,,,,,,,,,,,,,,,,,,,,,,,,,,,,,,,,,,,,,,2221.6670295916447,None,2221.6670295916447,None,2222.116882266986,None,2222.116882266986,None,v,10.920284929259651,2222.116882266986,None,t,8.843756305610441,2222.116882266986,None,10.920284929259651,8.843756305610441,10,False,False,False,2233.0980834160728,None,2233.0980834160728,None,2233.0980834160728,None,2233.0980834160728,None,2233.0980834160728,None,2233.0980834160728,None,2234.0979310389084,None,2234.0979310389084,None,h,,,,,,,,,,,,,,,,,,,,,,,,,,,9_10,001,2021_Apr_08_1506,ComputerHuman,2020.1.3,59.99158995966379,
Human.xlsx,h,Sychronize.jpg,Number8.jpg,8,Human,,,,,0,7,7,4,0,3,3,5,,,,,,,,,,,,,,,,,,,,,,,,,,,,,,,,,,,,,,,,,,,,,,,,,,,,,,,,,2235.1475017362973,None,2235.1475017362973,None,2235.5976565996134,None,2235.5976565996134,None,v,7.259275358366722,2235.5976565996134,None,t,8.398717144675174,2235.5976565996134,None,7.259275358366722,8.398717144675174,8,False,False,False,2244.045971067586,None,2244.045971067586,None,2244.045971067586,None,2244.045971067586,None,2244.045971067586,None,2244.045971067586,None,2245.0624881105723,None,2245.0624881105723,None,h,,,,,,,,,,,,,,,,,,,,,,,,,,,9_10,001,2021_Apr_08_1506,ComputerHuman,2020.1.3,59.99158995966379,
Human.xlsx,h,Sychronize.jpg,Number6.jpg,6,Human,,,,,0,7,7,4,0,4,4,1,,,,,,,,,,,,,,,,,,,,,,,,,,,,,,,,,,,,,,,,,,,,,,,,,,,,,,,,,2246.1124142477456,None,2246.1124142477456,None,2246.5456408101345,None,2246.5456408101345,None,v,5.5751147239643615,2246.5456408101345,None,None,,2246.5456408101345,None,5.5751147239643615,13,6,False,False,False,2259.5929964247516,None,2259.5929964247516,None,2259.5929964247516,None,2259.5929964247516,None,2259.5929964247516,None,2259.5929964247516,None,2260.6094740100707,None,2260.6094740100707,None,h,,,,,,,,,,,,,,,,,,,,,,,,,,,9_10,001,2021_Apr_08_1506,ComputerHuman,2020.1.3,59.99158995966379,
Human.xlsx,h,Sychronize.jpg,Number9.jpg,9,Human,,,,,0,7,7,4,0,5,5,6,,,,,,,,,,,,,,,,,,,,,,,,,,,,,,,,,,,,,,,,,,,,,,,,,,,,,,,,,2261.6592538651676,None,2261.6592538651676,None,2262.1092223471533,None,2262.1092223471533,None,v,7.527050154541939,2262.1092223471533,None,t,8.934739908221673,2262.1092223471533,None,7.527050154541939,8.934739908221673,9,False,False,False,2271.1240779978616,None,2271.1240779978616,None,2271.1240779978616,None,2271.1240779978616,None,2271.1240779978616,None,2271.1240779978616,None,2272.1238977116154,None,2272.1238977116154,None,h,,,,,,,,,,,,,,,,,,,,,,,,,,,9_10,001,2021_Apr_08_1506,ComputerHuman,2020.1.3,59.99158995966379,
Human.xlsx,h,Sychronize.jpg,Number6.jpg,6,Human,,,,,0,7,7,4,0,6,6,0,,,,,,,,,,,,,,,,,,,,,,,,,,,,,,,,,,,,,,,,,,,,,,,,,,,,,,,,,2273.173648374457,None,2273.173648374457,None,2273.623587984981,None,2273.623587984981,None,v,6.264399722193048,2273.623587984981,None,t,6.775809884627961,2273.623587984981,None,6.264399722193048,6.775809884627961,6,False,False,False,2280.455652952187,None,2280.455652952187,None,2280.455652952187,None,2280.455652952187,None,2280.455652952187,None,2280.455652952187,None,2281.4554518143304,None,2281.4554518143304,None,h,,,,,,,,,,,,,,,,,,,,,,,,,,,9_10,001,2021_Apr_08_1506,ComputerHuman,2020.1.3,59.99158995966379,
Human.xlsx,h,Sychronize.jpg,Number9.jpg,9,Human,,,,,0,7,7,4,0,7,7,7,,,,,,,,,,,,,,,,,,,,,,,,,,,,,,,,,,,,,,,,,,,,,,,,,,,,,,,,,2282.5216255275045,None,2282.5216255275045,None,2282.9551244440227,None,2282.9551244440227,None,v,9.45659384107421,2282.9551244440227,None,t,9.45965678247012,2282.9551244440227,None,9.45659384107421,9.45965678247012,9,True,False,False,2292.4699558747816,None,2292.4699558747816,None,2292.4699558747816,None,2292.4699558747816,None,2292.4699558747816,None,2292.4699558747816,None,2293.4864469334498,None,2293.4864469334498,None,h,,,,,,,,,,,,,,,,,,,,,,,,,,,9_10,001,2021_Apr_08_1506,ComputerHuman,2020.1.3,59.99158995966379,
Human.xlsx,h,Sychronize.jpg,Number7.jpg,7,Human,,,,,0,7,7,4,0,8,8,2,,,,,,,,,,,,,,,,,,,,,,,,,,,,,,,,,,,,,,,,,,,,,,,,,,,,,,,,,2294.536224863783,None,2294.536224863783,None,2294.9862113102354,None,2294.9862113102354,None,v,8.72908655503852,2294.9862113102354,None,t,8.524761930733803,2294.9862113102354,None,8.72908655503852,8.524761930733803,7,True,False,False,2303.7837318931815,None,2303.7837318931815,None,2303.7837318931815,None,2303.7837318931815,None,2303.7837318931815,None,2303.7837318931815,None,2304.7842945659104,None,2304.7842945659104,None,h,,,,,,,,,,,,,,,,,,,,,,,,,,,9_10,001,2021_Apr_08_1506,ComputerHuman,2020.1.3,59.99158995966379,
Human.xlsx,h,Sychronize.jpg,Number7.jpg,7,Human,,,,,0,7,7,4,0,9,9,3,,,,,,,,,,,,,,,,,,,,,,,,,,,,,,,,,,,,,,,,,,,,,,,,,,,,,,,,,2305.8338630177423,None,2305.8338630177423,None,2306.2840483564905,None,2306.2840483564905,None,v,7.371021392147668,2306.2840483564905,None,t,7.482623710209737,2306.2840483564905,None,7.371021392147668,7.482623710209737,7,True,False,False,2313.8152733245333,None,2313.8152733245333,None,2313.8152733245333,None,2313.8152733245333,None,2313.8152733245333,None,2313.8152733245333,None,2314.8156047047632,None,2314.8156047047632,None,h,,,,,,,,,,,,,,,,,,,,,,,,,,,9_10,001,2021_Apr_08_1506,ComputerHuman,2020.1.3,59.99158995966379,
Human.xlsx,h,,,,,,,,,0,7,7,4,,,,,,,,,,,,,,,,,,,,,,,,,,,,,,,,,,,,,,,,,,,,,,,,,,,,,,,,,,,,,,,,,,,,,,,,,,,,,,,,,,,,,,,,,,,,,,,,,,,h,2315.8154192858165,None,2315.8154192858165,None,a,0,2.2316367071762215,2315.8154192858165,None,l,0,5.2788110731708,2315.8154192858165,None,c,c,None,None,2321.1477487476986,None,"['space', 'space']",2322.1309189305357,None,"[2.5479181269474793, 6.959879253125109]",,,9_10,001,2021_Apr_08_1506,ComputerHuman,2020.1.3,59.99158995966379,
Human.xlsx,h,Sychronize.jpg,Number9.jpg,9,Human,,,,,0,8,8,6,0,0,0,6,,,,,,,,,,,,,,,,,,,,,,,,,,,,,,,,,,,,,,,,,,,,,,,,,,,,,2329.1462743783413,None,2329.1462743783413,None,2332.2120888022037,None,2332.2120888022037,None,2332.645540241203,None,2332.645540241203,None,v,8.828943962093035,2332.645540241203,None,t,9.559704099588998,2332.645540241203,None,8.828943962093035,9.559704099588998,9,False,False,False,2342.260362529334,None,2342.260362529334,None,2342.260362529334,None,2342.260362529334,None,2342.260362529334,None,2342.260362529334,None,2343.276804506513,None,2343.276804506513,None,h,,,,,,,,,,,,,,,,,,,,,,,,,,,9_10,001,2021_Apr_08_1506,ComputerHuman,2020.1.3,59.99158995966379,
Human.xlsx,h,Sychronize.jpg,Number7.jpg,7,Human,,,,,0,8,8,6,0,1,1,3,,,,,,,,,,,,,,,,,,,,,,,,,,,,,,,,,,,,,,,,,,,,,,,,,,,,,,,,,2344.3265558109415,None,2344.3265558109415,None,2344.7765143483157,None,2344.7765143483157,None,v,6.7417405963242345,2344.7765143483157,None,t,8.196720522635587,2344.7765143483157,None,6.7417405963242345,8.196720522635587,7,False,False,False,2353.041603456877,None,2353.041603456877,None,2353.041603456877,None,2353.041603456877,None,2353.041603456877,None,2353.041603456877,None,2354.0413789010563,None,2354.0413789010563,None,h,,,,,,,,,,,,,,,,,,,,,,,,,,,9_10,001,2021_Apr_08_1506,ComputerHuman,2020.1.3,59.99158995966379,
Human.xlsx,h,Sychronize.jpg,Number8.jpg,8,Human,,,,,0,8,8,6,0,2,2,4,,,,,,,,,,,,,,,,,,,,,,,,,,,,,,,,,,,,,,,,,,,,,,,,,,,,,,,,,2355.0909390122433,None,2355.0909390122433,None,2355.5412023039426,None,2355.5412023039426,None,v,9.172708127156511,2355.5412023039426,None,t,6.355807414511219,2355.5412023039426,None,9.172708127156511,6.355807414511219,8,False,False,False,2364.7726359484986,None,2364.7726359484986,None,2364.7726359484986,None,2364.7726359484986,None,2364.7726359484986,None,2364.7726359484986,None,2365.772469135605,None,2365.772469135605,None,h,,,,,,,,,,,,,,,,,,,,,,,,,,,9_10,001,2021_Apr_08_1506,ComputerHuman,2020.1.3,59.99158995966379,
Human.xlsx,h,Sychronize.jpg,Number10.jpg,10,Human,,,,,0,8,8,6,0,3,3,9,,,,,,,,,,,,,,,,,,,,,,,,,,,,,,,,,,,,,,,,,,,,,,,,,,,,,,,,,2366.838717914583,None,2366.838717914583,None,2367.2721452940314,None,2367.2721452940314,None,v,11.885353025809309,2367.2721452940314,None,t,10.444672814152,2367.2721452940314,None,11.885353025809309,10.444672814152,10,False,False,False,2379.219797803522,None,2379.219797803522,None,2379.219797803522,None,2379.219797803522,None,2379.219797803522,None,2379.219797803522,None,2380.2196014775764,None,2380.2196014775764,None,h,,,,,,,,,,,,,,,,,,,,,,,,,,,9_10,001,2021_Apr_08_1506,ComputerHuman,2020.1.3,59.99158995966379,
Human.xlsx,h,Sychronize.jpg,Number6.jpg,6,Human,,,,,0,8,8,6,0,4,4,1,,,,,,,,,,,,,,,,,,,,,,,,,,,,,,,,,,,,,,,,,,,,,,,,,,,,,,,,,2381.2691522857385,None,2381.2691522857385,None,2381.7193745158,None,2381.7193745158,None,v,5.8222618224608595,2381.7193745158,None,t,7.112744024008862,2381.7193745158,None,5.8222618224608595,7.112744024008862,6,False,False,False,2388.8846196906597,None,2388.8846196906597,None,2388.8846196906597,None,2388.8846196906597,None,2388.8846196906597,None,2388.8846196906597,None,2389.9011149196485,None,2389.9011149196485,None,h,,,,,,,,,,,,,,,,,,,,,,,,,,,9_10,001,2021_Apr_08_1506,ComputerHuman,2020.1.3,59.99158995966379,
Human.xlsx,h,Sychronize.jpg,Number10.jpg,10,Human,,,,,0,8,8,6,0,5,5,8,,,,,,,,,,,,,,,,,,,,,,,,,,,,,,,,,,,,,,,,,,,,,,,,,,,,,,,,,2390.9508902836315,None,2390.9508902836315,None,2391.400850104179,None,2391.400850104179,None,v,10.168098316953547,2391.400850104179,None,t,9.82768548711465,2391.400850104179,None,10.168098316953547,9.82768548711465,10,False,False,False,2401.632087743583,None,2401.632087743583,None,2401.632087743583,None,2401.632087743583,None,2401.632087743583,None,2401.632087743583,None,2402.6319388951524,None,2402.6319388951524,None,h,,,,,,,,,,,,,,,,,,,,,,,,,,,9_10,001,2021_Apr_08_1506,ComputerHuman,2020.1.3,59.99158995966379,
Human.xlsx,h,Sychronize.jpg,Number9.jpg,9,Human,,,,,0,8,8,6,0,6,6,7,,,,,,,,,,,,,,,,,,,,,,,,,,,,,,,,,,,,,,,,,,,,,,,,,,,,,,,,,2403.698502373074,None,2403.698502373074,None,2404.1483903357584,None,2404.1483903357584,None,v,8.920297761018446,2404.1483903357584,None,None,,2404.1483903357584,None,8.920297761018446,13,9,False,False,False,2417.1958409054096,None,2417.1958409054096,None,2417.1958409054096,None,2417.1958409054096,None,2417.1958409054096,None,2417.1958409054096,None,2418.1958967235696,None,2418.1958967235696,None,h,,,,,,,,,,,,,,,,,,,,,,,,,,,9_10,001,2021_Apr_08_1506,ComputerHuman,2020.1.3,59.99158995966379,
Human.xlsx,h,Sychronize.jpg,Number6.jpg,6,Human,,,,,0,8,8,6,0,7,7,0,,,,,,,,,,,,,,,,,,,,,,,,,,,,,,,,,,,,,,,,,,,,,,,,,,,,,,,,,2419.2618587126854,None,2419.2618587126854,None,2419.695313038832,None,2419.695313038832,None,v,6.397088152592914,2419.695313038832,None,t,5.6727872028859565,2419.695313038832,None,6.397088152592914,5.6727872028859565,6,False,False,False,2426.1440592955696,None,2426.1440592955696,None,2426.1440592955696,None,2426.1440592955696,None,2426.1440592955696,None,2426.1440592955696,None,2427.160693749167,None,2427.160693749167,None,h,,,,,,,,,,,,,,,,,,,,,,,,,,,9_10,001,2021_Apr_08_1506,ComputerHuman,2020.1.3,59.99158995966379,
Human.xlsx,h,Sychronize.jpg,Number8.jpg,8,Human,,,,,0,8,8,6,0,8,8,5,,,,,,,,,,,,,,,,,,,,,,,,,,,,,,,,,,,,,,,,,,,,,,,,,,,,,,,,,2428.21036004318,None,2428.21036004318,None,2428.660301899261,None,2428.660301899261,None,v,8.131797585381719,2428.660301899261,None,t,6.822788566259987,2428.660301899261,None,8.131797585381719,6.822788566259987,8,False,False,False,2436.8587178183443,None,2436.8587178183443,None,2436.8587178183443,None,2436.8587178183443,None,2436.8587178183443,None,2436.8587178183443,None,2437.858518284458,None,2437.858518284458,None,h,,,,,,,,,,,,,,,,,,,,,,,,,,,9_10,001,2021_Apr_08_1506,ComputerHuman,2020.1.3,59.99158995966379,
Human.xlsx,h,Sychronize.jpg,Number7.jpg,7,Human,,,,,0,8,8,6,0,9,9,2,,,,,,,,,,,,,,,,,,,,,,,,,,,,,,,,,,,,,,,,,,,,,,,,,,,,,,,,,2438.9080334844803,None,2438.9080334844803,None,2439.3581306048727,None,2439.3581306048727,None,v,8.081731902806496,2439.3581306048727,None,t,7.3927596787543735,2439.3581306048727,None,8.081731902806496,7.3927596787543735,7,False,False,False,2447.489989782709,None,2447.489989782709,None,2447.489989782709,None,2447.489989782709,None,2447.489989782709,None,2447.489989782709,None,2448.4898155915507,None,2448.4898155915507,None,h,,,,,,,,,,,,,,,,,,,,,,,,,,,9_10,001,2021_Apr_08_1506,ComputerHuman,2020.1.3,59.99158995966379,
Human.xlsx,h,,,,,,,,,0,8,8,6,,,,,,,,,,,,,,,,,,,,,,,,,,,,,,,,,,,,,,,,,,,,,,,,,,,,,,,,,,,,,,,,,,,,,,,,,,,,,,,,,,,,,,,,,,,,,,,,,,,h,2449.4896160576645,None,2449.4896160576645,None,q,1,2.64209876285895,2449.4896160576645,None,o,1,3.133920921063691,2449.4896160576645,None,h,h,2452.6889391822624,None,None,None,None,None,None,,,,9_10,001,2021_Apr_08_1506,ComputerHuman,2020.1.3,59.99158995966379,
Human.xlsx,h,Sychronize.jpg,Number7.jpg,7,Human,,,,,0,9,9,0,0,0,0,3,,,,,,,,,,,,,,,,,,,,,,,,,,,,,,,,,,,,,,,,,,,,,,,,,,,,,2457.704729947567,None,2457.704729947567,None,2460.7704968939106,None,2460.7704968939106,None,2461.2205969014503,None,2461.2205969014503,None,v,6.554723130691855,2461.2205969014503,None,t,7.301761319617071,2461.2205969014503,None,6.554723130691855,7.301761319617071,7,False,False,False,2468.5858873082652,None,2468.5858873082652,None,2468.5858873082652,None,2468.5858873082652,None,2468.5858873082652,None,2468.5858873082652,None,2469.585686491202,None,2469.585686491202,None,h,,,,,,,,,,,,,,,,,,,,,,,,,,,9_10,001,2021_Apr_08_1506,ComputerHuman,2020.1.3,59.99158995966379,
Human.xlsx,h,Sychronize.jpg,Number7.jpg,7,Human,,,,,0,9,9,0,0,1,1,2,,,,,,,,,,,,,,,,,,,,,,,,,,,,,,,,,,,,,,,,,,,,,,,,,,,,,,,,,2470.65193591177,None,2470.65193591177,None,2471.102145310073,None,2471.102145310073,None,v,6.412906826979452,2471.102145310073,None,t,6.407791766177979,2471.102145310073,None,6.412906826979452,6.407791766177979,7,True,False,False,2477.5675471928116,None,2477.5675471928116,None,2477.5675471928116,None,2477.5675471928116,None,2477.5675471928116,None,2477.5675471928116,None,2478.5839856412604,None,2478.5839856412604,None,h,,,,,,,,,,,,,,,,,,,,,,,,,,,9_10,001,2021_Apr_08_1506,ComputerHuman,2020.1.3,59.99158995966379,
Human.xlsx,h,Sychronize.jpg,Number10.jpg,10,Human,,,,,0,9,9,0,0,2,2,9,,,,,,,,,,,,,,,,,,,,,,,,,,,,,,,,,,,,,,,,,,,,,,,,,,,,,,,,,2479.616849706392,None,2479.616849706392,None,2480.0670238173516,None,2480.0670238173516,None,v,9.591792163966602,2480.0670238173516,None,t,9.454722007914825,2480.0670238173516,None,9.591792163966602,9.454722007914825,10,True,False,False,2489.7150822916883,None,2489.7150822916883,None,2489.7150822916883,None,2489.7150822916883,None,2489.7150822916883,None,2489.7150822916883,None,2490.7316355843977,None,2490.7316355843977,None,h,,,,,,,,,,,,,,,,,,,,,,,,,,,9_10,001,2021_Apr_08_1506,ComputerHuman,2020.1.3,59.99158995966379,
Human.xlsx,h,Sychronize.jpg,Number8.jpg,8,Human,,,,,0,9,9,0,0,3,3,4,,,,,,,,,,,,,,,,,,,,,,,,,,,,,,,,,,,,,,,,,,,,,,,,,,,,,,,,,2491.7813891343867,None,2491.7813891343867,None,2492.2313977156264,None,2492.2313977156264,None,v,7.535138334405929,2492.2313977156264,None,t,8.074739876141393,2492.2313977156264,None,7.535138334405929,8.074739876141393,8,False,False,False,2500.363083664688,None,2500.363083664688,None,2500.363083664688,None,2500.363083664688,None,2500.363083664688,None,2500.363083664688,None,2501.362901132885,None,2501.362901132885,None,h,,,,,,,,,,,,,,,,,,,,,,,,,,,9_10,001,2021_Apr_08_1506,ComputerHuman,2020.1.3,59.99158995966379,
Human.xlsx,h,Sychronize.jpg,Number10.jpg,10,Human,,,,,0,9,9,0,0,4,4,8,,,,,,,,,,,,,,,,,,,,,,,,,,,,,,,,,,,,,,,,,,,,,,,,,,,,,,,,,2502.4293542576597,None,2502.4293542576597,None,2502.8625779328977,None,2502.8625779328977,None,v,12.247567338676163,2502.8625779328977,None,t,8.95871637477103,2502.8625779328977,None,12.247567338676163,8.95871637477103,10,False,False,False,2515.160206783832,None,2515.160206783832,None,2515.160206783832,None,2515.160206783832,None,2515.160206783832,None,2515.160206783832,None,2516.1599921726265,None,2516.1599921726265,None,h,,,,,,,,,,,,,,,,,,,,,,,,,,,9_10,001,2021_Apr_08_1506,ComputerHuman,2020.1.3,59.99158995966379,
Human.xlsx,h,Sychronize.jpg,Number6.jpg,6,Human,,,,,0,9,9,0,0,5,5,1,,,,,,,,,,,,,,,,,,,,,,,,,,,,,,,,,,,,,,,,,,,,,,,,,,,,,,,,,2517.209653654725,None,2517.209653654725,None,2517.6598810174946,None,2517.6598810174946,None,v,5.094098512636265,2517.6598810174946,None,t,7.293790550371341,2517.6598810174946,None,5.094098512636265,7.293790550371341,6,False,False,False,2525.0083377576157,None,2525.0083377576157,None,2525.0083377576157,None,2525.0083377576157,None,2525.0083377576157,None,2525.0083377576157,None,2526.0247970576784,None,2526.0247970576784,None,h,,,,,,,,,,,,,,,,,,,,,,,,,,,9_10,001,2021_Apr_08_1506,ComputerHuman,2020.1.3,59.99158995966379,
Human.xlsx,h,Sychronize.jpg,Number9.jpg,9,Human,,,,,0,9,9,0,0,6,6,6,,,,,,,,,,,,,,,,,,,,,,,,,,,,,,,,,,,,,,,,,,,,,,,,,,,,,,,,,2527.0743805868296,None,2527.0743805868296,None,2527.524495671685,None,2527.524495671685,None,v,9.305450130159443,2527.524495671685,None,t,8.752746077090706,2527.524495671685,None,9.305450130159443,8.752746077090706,9,False,False,False,2536.90602788021,None,2536.90602788021,None,2536.90602788021,None,2536.90602788021,None,2536.90602788021,None,2536.90602788021,None,2537.905804607566,None,2537.905804607566,None,h,,,,,,,,,,,,,,,,,,,,,,,,,,,9_10,001,2021_Apr_08_1506,ComputerHuman,2020.1.3,59.99158995966379,
Human.xlsx,h,Sychronize.jpg,Number9.jpg,9,Human,,,,,0,9,9,0,0,7,7,7,,,,,,,,,,,,,,,,,,,,,,,,,,,,,,,,,,,,,,,,,,,,,,,,,,,,,,,,,2538.9553493206367,None,2538.9553493206367,None,2539.4055041839565,None,2539.4055041839565,None,v,8.3478414571764,2539.4055041839565,None,t,9.122746702640143,2539.4055041839565,None,8.3478414571764,9.122746702640143,9,False,False,False,2548.5870838699957,None,2548.5870838699957,None,2548.5870838699957,None,2548.5870838699957,None,2548.5870838699957,None,2548.5870838699957,None,2549.5869132075713,None,2549.5869132075713,None,h,,,,,,,,,,,,,,,,,,,,,,,,,,,9_10,001,2021_Apr_08_1506,ComputerHuman,2020.1.3,59.99158995966379,
Human.xlsx,h,Sychronize.jpg,Number6.jpg,6,Human,,,,,0,9,9,0,0,8,8,0,,,,,,,,,,,,,,,,,,,,,,,,,,,,,,,,,,,,,,,,,,,,,,,,,,,,,,,,,2550.6530975069472,None,2550.6530975069472,None,2551.0866005937896,None,2551.0866005937896,None,v,5.0825672504579416,2551.0866005937896,None,t,5.522124041424831,2551.0866005937896,None,5.0825672504579416,5.522124041424831,6,False,False,False,2556.6687493684367,None,2556.6687493684367,None,2556.6687493684367,None,2556.6687493684367,None,2556.6687493684367,None,2556.6687493684367,None,2557.6852535796606,None,2557.6852535796606,None,h,,,,,,,,,,,,,,,,,,,,,,,,,,,9_10,001,2021_Apr_08_1506,ComputerHuman,2020.1.3,59.99158995966379,
Human.xlsx,h,Sychronize.jpg,Number8.jpg,8,Human,,,,,0,9,9,0,0,9,9,5,,,,,,,,,,,,,,,,,,,,,,,,,,,,,,,,,,,,,,,,,,,,,,,,,,,,,,,,,2558.735156619663,None,2558.735156619663,None,2559.1850894935124,None,2559.1850894935124,None,v,7.5397882438592205,2559.1850894935124,None,t,8.40274503450928,2559.1850894935124,None,7.5397882438592205,8.40274503450928,8,False,False,False,2567.6499370441707,None,2567.6499370441707,None,2567.6499370441707,None,2567.6499370441707,None,2567.6499370441707,None,2567.6499370441707,None,2568.649872243779,None,2568.649872243779,None,h,,,,,,,,,,,,,,,,,,,,,,,,,,,9_10,001,2021_Apr_08_1506,ComputerHuman,2020.1.3,59.99158995966379,
Human.xlsx,h,,,,,,,,,0,9,9,0,,,,,,,,,,,,,,,,,,,,,,,,,,,,,,,,,,,,,,,,,,,,,,,,,,,,,,,,,,,,,,,,,,,,,,,,,,,,,,,,,,,,,,,,,,,,,,,,,,,h,2569.6663552825958,None,2569.6663552825958,None,q,1,2.2584335948340595,2569.6663552825958,None,l,0,4.021872057717701,2569.6663552825958,None,h,c,2573.7488821130064,None,None,None,None,None,None,,,,9_10,001,2021_Apr_08_1506,ComputerHuman,2020.1.3,59.99158995966379,
Human.xlsx,h,Sychronize.jpg,Number6.jpg,6,Human,,,,,1,0,10,2,0,0,0,0,,,,,,,,,,,,,,,,,,,,,,,,,,,,,,,,,,,,,,,,,,,,,,,,,,,,,2578.764542315137,None,2578.764542315137,None,2581.8306268475717,None,2581.8306268475717,None,2582.2638348039072,None,2582.2638348039072,None,v,8.260480902328709,2582.2638348039072,None,t,5.455809820468858,2582.2638348039072,None,8.260480902328709,5.455809820468858,6,False,False,False,2590.5955666265145,None,2590.5955666265145,None,2590.5955666265145,None,2590.5955666265145,None,2590.5955666265145,None,2590.5955666265145,None,2591.5953645262744,None,2591.5953645262744,None,h,,,,,,,,,,,,,,,,,,,,,,,,,,,9_10,001,2021_Apr_08_1506,ComputerHuman,2020.1.3,59.99158995966379,
Human.xlsx,h,Sychronize.jpg,Number9.jpg,9,Human,,,,,1,0,10,2,0,1,1,6,,,,,,,,,,,,,,,,,,,,,,,,,,,,,,,,,,,,,,,,,,,,,,,,,,,,,,,,,2592.6283562674325,None,2592.6283562674325,None,2593.095152000231,None,2593.095152000231,None,None,,2593.095152000231,None,t,9.051800215893309,2593.095152000231,None,13,9.051800215893309,9,False,False,False,2606.1426259878463,None,2606.1426259878463,None,2606.1426259878463,None,2606.1426259878463,None,2606.1426259878463,None,2606.1426259878463,None,2607.1590852879053,None,2607.1590852879053,None,h,,,,,,,,,,,,,,,,,,,,,,,,,,,9_10,001,2021_Apr_08_1506,ComputerHuman,2020.1.3,59.99158995966379,
Human.xlsx,h,Sychronize.jpg,Number6.jpg,6,Human,,,,,1,0,10,2,0,2,2,1,,,,,,,,,,,,,,,,,,,,,,,,,,,,,,,,,,,,,,,,,,,,,,,,,,,,,,,,,2608.208882786672,None,2608.208882786672,None,2608.6587932049406,None,2608.6587932049406,None,v,6.1249021177209215,2608.6587932049406,None,t,7.388061008608929,2608.6587932049406,None,6.1249021177209215,7.388061008608929,6,False,False,False,2616.107363666546,None,2616.107363666546,None,2616.107363666546,None,2616.107363666546,None,2616.107363666546,None,2616.107363666546,None,2617.1071371859616,None,2617.1071371859616,None,h,,,,,,,,,,,,,,,,,,,,,,,,,,,9_10,001,2021_Apr_08_1506,ComputerHuman,2020.1.3,59.99158995966379,
Human.xlsx,h,Sychronize.jpg,Number7.jpg,7,Human,,,,,1,0,10,2,0,3,3,3,,,,,,,,,,,,,,,,,,,,,,,,,,,,,,,,,,,,,,,,,,,,,,,,,,,,,,,,,2618.156704033823,None,2618.156704033823,None,2618.6068755784327,None,2618.6068755784327,None,v,5.672888894594507,2618.6068755784327,None,t,6.395794711068447,2618.6068755784327,None,5.672888894594507,6.395794711068447,7,False,False,False,2625.055519822665,None,2625.055519822665,None,2625.055519822665,None,2625.055519822665,None,2625.055519822665,None,2625.055519822665,None,2626.072077927285,None,2626.072077927285,None,h,,,,,,,,,,,,,,,,,,,,,,,,,,,9_10,001,2021_Apr_08_1506,ComputerHuman,2020.1.3,59.99158995966379,
Human.xlsx,h,Sychronize.jpg,Number9.jpg,9,Human,,,,,1,0,10,2,0,4,4,7,,,,,,,,,,,,,,,,,,,,,,,,,,,,,,,,,,,,,,,,,,,,,,,,,,,,,,,,,2627.1216422087964,None,2627.1216422087964,None,2627.571877591414,None,2627.571877591414,None,v,7.247267075465061,2627.571877591414,None,t,7.814795020636666,2627.571877591414,None,7.247267075465061,7.814795020636666,9,False,False,False,2635.4369657375937,None,2635.4369657375937,None,2635.4369657375937,None,2635.4369657375937,None,2635.4369657375937,None,2635.4369657375937,None,2636.4534256792394,None,2636.4534256792394,None,h,,,,,,,,,,,,,,,,,,,,,,,,,,,9_10,001,2021_Apr_08_1506,ComputerHuman,2020.1.3,59.99158995966379,
Human.xlsx,h,Sychronize.jpg,Number8.jpg,8,Human,,,,,1,0,10,2,0,5,5,5,,,,,,,,,,,,,,,,,,,,,,,,,,,,,,,,,,,,,,,,,,,,,,,,,,,,,,,,,2637.502928368296,None,2637.502928368296,None,2637.953129425954,None,2637.953129425954,None,v,7.057819595062028,2637.953129425954,None,t,6.244800490174384,2637.953129425954,None,7.057819595062028,6.244800490174384,8,False,False,False,2645.06842953679,None,2645.06842953679,None,2645.06842953679,None,2645.06842953679,None,2645.06842953679,None,2645.06842953679,None,2646.0682306444905,None,2646.0682306444905,None,h,,,,,,,,,,,,,,,,,,,,,,,,,,,9_10,001,2021_Apr_08_1506,ComputerHuman,2020.1.3,59.99158995966379,
Human.xlsx,h,Sychronize.jpg,Number8.jpg,8,Human,,,,,1,0,10,2,0,6,6,4,,,,,,,,,,,,,,,,,,,,,,,,,,,,,,,,,,,,,,,,,,,,,,,,,,,,,,,,,2647.117765733743,None,2647.117765733743,None,2647.567926692147,None,2647.567926692147,None,v,7.214832232741173,2647.567926692147,None,t,7.44176898659498,2647.567926692147,None,7.214832232741173,7.44176898659498,8,True,False,False,2655.0832043474,None,2655.0832043474,None,2655.0832043474,None,2655.0832043474,None,2655.0832043474,None,2655.0832043474,None,2656.0828874028994,None,2656.0828874028994,None,h,,,,,,,,,,,,,,,,,,,,,,,,,,,9_10,001,2021_Apr_08_1506,ComputerHuman,2020.1.3,59.99158995966379,
Human.xlsx,h,Sychronize.jpg,Number10.jpg,10,Human,,,,,1,0,10,2,0,7,7,8,,,,,,,,,,,,,,,,,,,,,,,,,,,,,,,,,,,,,,,,,,,,,,,,,,,,,,,,,2657.1326990166053,None,2657.1326990166053,None,2657.5826572331825,None,2657.5826572331825,None,v,8.971970300888643,2657.5826572331825,None,t,8.574748056387762,2657.5826572331825,None,8.971970300888643,8.574748056387762,10,False,False,False,2666.6141877575355,None,2666.6141877575355,None,2666.6141877575355,None,2666.6141877575355,None,2666.6141877575355,None,2666.6141877575355,None,2667.613922140081,None,2667.613922140081,None,h,,,,,,,,,,,,,,,,,,,,,,,,,,,9_10,001,2021_Apr_08_1506,ComputerHuman,2020.1.3,59.99158995966379,
Human.xlsx,h,Sychronize.jpg,Number7.jpg,7,Human,,,,,1,0,10,2,0,8,8,2,,,,,,,,,,,,,,,,,,,,,,,,,,,,,,,,,,,,,,,,,,,,,,,,,,,,,,,,,2668.66362340064,None,2668.66362340064,None,2669.113755166789,None,2669.113755166789,None,v,6.224415312779456,2669.113755166789,None,t,5.907822081215272,2669.113755166789,None,6.224415312779456,5.907822081215272,7,False,False,False,2675.3958447549376,None,2675.3958447549376,None,2675.3958447549376,None,2675.3958447549376,None,2675.3958447549376,None,2675.3958447549376,None,2676.4122552943045,None,2676.4122552943045,None,h,,,,,,,,,,,,,,,,,,,,,,,,,,,9_10,001,2021_Apr_08_1506,ComputerHuman,2020.1.3,59.99158995966379,
Human.xlsx,h,Sychronize.jpg,Number10.jpg,10,Human,,,,,1,0,10,2,0,9,9,9,,,,,,,,,,,,,,,,,,,,,,,,,,,,,,,,,,,,,,,,,,,,,,,,,,,,,,,,,2677.461890150502,None,2677.461890150502,None,2677.912109493416,None,2677.912109493416,None,v,9.357782543349458,2677.912109493416,None,t,6.2244230118412816,2677.912109493416,None,9.357782543349458,6.2244230118412816,10,False,False,False,2687.3435729718185,None,2687.3435729718185,None,2687.3435729718185,None,2687.3435729718185,None,2687.3435729718185,None,2687.3435729718185,None,2688.3433346218553,None,2688.3433346218553,None,h,,,,,,,,,,,,,,,,,,,,,,,,,,,9_10,001,2021_Apr_08_1506,ComputerHuman,2020.1.3,59.99158995966379,
Human.xlsx,h,,,,,,,,,1,0,10,2,,,,,,,,,,,,,,,,,,,,,,,,,,,,,,,,,,,,,,,,,,,,,,,,,,,,,,,,,,,,,,,,,,,,,,,,,,,,,,,,,,,,,,,,,,,,,,,,,,,h,2689.343177753577,None,2689.343177753577,None,q,1,6.8384696200009785,2689.343177753577,None,o,1,3.257882149897341,2689.343177753577,None,h,h,2696.2418421276343,None,None,None,None,None,None,,,,9_10,001,2021_Apr_08_1506,ComputerHuman,2020.1.3,59.99158995966379,
Computer.xlsx,c,Sychronize.jpg,Number7.jpg,7,Computer,,,,,1,1,11,3,0,0,0,2,,,,,,,,,,,,,,,,,,,,,,,,,,,,,,,,,,,,,,,,,,,,,,,,,,,,,2701.240718706944,None,2701.240718706944,None,2704.3400160076235,None,2704.3400160076235,None,2704.773558872923,None,2704.773558872923,None,v,5.78772096693865,2704.773558872923,None,t,5.662847079089261,2704.773558872923,None,5.78772096693865,5.662847079089261,7,False,False,False,2710.622373779577,None,2710.622373779577,None,2710.622373779577,None,2710.622373779577,None,2710.622373779577,None,2710.622373779577,None,2711.6388908225636,None,2711.6388908225636,None,c,,,,,,,,,,,,,,,,,,,,,,,,,,,9_10,001,2021_Apr_08_1506,ComputerHuman,2020.1.3,59.99158995966379,
Computer.xlsx,c,Sychronize.jpg,Number9.jpg,9,Computer,,,,,1,1,11,3,0,1,1,6,,,,,,,,,,,,,,,,,,,,,,,,,,,,,,,,,,,,,,,,,,,,,,,,,,,,,,,,,2712.671768681841,None,2712.671768681841,None,2713.1219395848602,None,2713.1219395848602,None,v,8.203122929877281,2713.1219395848602,None,t,8.766738150268793,2713.1219395848602,None,8.203122929877281,8.766738150268793,9,False,False,True,2721.9701007132862,None,2721.9701007132862,None,2721.9701007132862,None,2721.9701007132862,None,2721.9701007132862,None,2721.9701007132862,None,2722.9700375168613,None,2722.9700375168613,None,c,,,,,,,,,,,,,,,,,,,,,,,,,,,9_10,001,2021_Apr_08_1506,ComputerHuman,2020.1.3,59.99158995966379,
Computer.xlsx,c,Sychronize.jpg,Number10.jpg,10,Computer,,,,,1,1,11,3,0,2,2,9,,,,,,,,,,,,,,,,,,,,,,,,,,,,,,,,,,,,,,,,,,,,,,,,,,,,,,,,,2724.036447655235,None,2724.036447655235,None,2724.469756020102,None,2724.469756020102,None,v,10.194960967386578,2724.469756020102,None,t,10.958695202363742,2724.469756020102,None,10.194960967386578,10.958695202363742,10,False,True,False,2735.484263609287,None,2735.484263609287,None,2735.484263609287,None,2735.484263609287,None,2735.484263609287,None,2735.484263609287,None,2736.5007148894947,None,2736.5007148894947,None,c,,,,,,,,,,,,,,,,,,,,,,,,,,,9_10,001,2021_Apr_08_1506,ComputerHuman,2020.1.3,59.99158995966379,
Computer.xlsx,c,Sychronize.jpg,Number6.jpg,6,Computer,,,,,1,1,11,3,0,3,3,1,,,,,,,,,,,,,,,,,,,,,,,,,,,,,,,,,,,,,,,,,,,,,,,,,,,,,,,,,2737.550232335074,None,2737.550232335074,None,2738.0004600186367,None,2738.0004600186367,None,v,5.880014371574362,2738.0004600186367,None,t,6.118815371806704,2738.0004600186367,None,5.880014371574362,6.118815371806704,6,False,True,True,2744.182554258299,None,2744.182554258299,None,2744.182554258299,None,2744.182554258299,None,2744.182554258299,None,2744.182554258299,None,2745.199026710914,None,2745.199026710914,None,c,,,,,,,,,,,,,,,,,,,,,,,,,,,9_10,001,2021_Apr_08_1506,ComputerHuman,2020.1.3,59.99158995966379,
Computer.xlsx,c,Sychronize.jpg,Number9.jpg,9,Computer,,,,,1,1,11,3,0,4,4,7,,,,,,,,,,,,,,,,,,,,,,,,,,,,,,,,,,,,,,,,,,,,,,,,,,,,,,,,,2746.2486436026447,None,2746.2486436026447,None,2746.6821264794635,None,2746.6821264794635,None,v,8.730084545266436,2746.6821264794635,None,t,8.809729682910984,2746.6821264794635,None,8.730084545266436,8.809729682910984,9,False,True,True,2755.5637820332886,None,2755.5637820332886,None,2755.5637820332886,None,2755.5637820332886,None,2755.5637820332886,None,2755.5637820332886,None,2756.5634926770726,None,2756.5634926770726,None,c,,,,,,,,,,,,,,,,,,,,,,,,,,,9_10,001,2021_Apr_08_1506,ComputerHuman,2020.1.3,59.99158995966379,
Computer.xlsx,c,Sychronize.jpg,Number8.jpg,8,Computer,,,,,1,1,11,3,0,5,5,5,,,,,,,,,,,,,,,,,,,,,,,,,,,,,,,,,,,,,,,,,,,,,,,,,,,,,,,,,2757.613116626275,None,2757.613116626275,None,2758.063224332869,None,2758.063224332869,None,v,8.048778015341668,2758.063224332869,None,t,7.863766474776639,2758.063224332869,None,8.048778015341668,7.863766474776639,8,False,True,True,2766.1616157112076,None,2766.1616157112076,None,2766.1616157112076,None,2766.1616157112076,None,2766.1616157112076,None,2766.1616157112076,None,2767.161474241042,None,2767.161474241042,None,c,,,,,,,,,,,,,,,,,,,,,,,,,,,9_10,001,2021_Apr_08_1506,ComputerHuman,2020.1.3,59.99158995966379,
Computer.xlsx,c,Sychronize.jpg,Number8.jpg,8,Computer,,,,,1,1,11,3,0,6,6,4,,,,,,,,,,,,,,,,,,,,,,,,,,,,,,,,,,,,,,,,,,,,,,,,,,,,,,,,,2768.211006122354,None,2768.211006122354,None,2768.661205255248,None,2768.661205255248,None,v,7.658503207137983,2768.661205255248,None,t,7.401779123687447,2768.661205255248,None,7.658503207137983,7.401779123687447,8,False,False,False,2776.3763529889184,None,2776.3763529889184,None,2776.3763529889184,None,2776.3763529889184,None,2776.3763529889184,None,2776.3763529889184,None,2777.392842122823,None,2777.392842122823,None,c,,,,,,,,,,,,,,,,,,,,,,,,,,,9_10,001,2021_Apr_08_1506,ComputerHuman,2020.1.3,59.99158995966379,
Computer.xlsx,c,Sychronize.jpg,Number10.jpg,10,Computer,,,,,1,1,11,3,0,7,7,8,,,,,,,,,,,,,,,,,,,,,,,,,,,,,,,,,,,,,,,,,,,,,,,,,,,,,,,,,2778.442288993716,None,2778.442288993716,None,2778.875828009488,None,2778.875828009488,None,v,9.935534515032487,2778.875828009488,None,t,9.662703042569774,2778.875828009488,None,9.935534515032487,9.662703042569774,10,False,True,False,2788.890599612161,None,2788.890599612161,None,2788.890599612161,None,2788.890599612161,None,2788.890599612161,None,2788.890599612161,None,2789.890380509838,None,2789.890380509838,None,c,,,,,,,,,,,,,,,,,,,,,,,,,,,9_10,001,2021_Apr_08_1506,ComputerHuman,2020.1.3,59.99158995966379,
Computer.xlsx,c,Sychronize.jpg,Number7.jpg,7,Computer,,,,,1,1,11,3,0,8,8,3,,,,,,,,,,,,,,,,,,,,,,,,,,,,,,,,,,,,,,,,,,,,,,,,,,,,,,,,,2790.940033009705,None,2790.940033009705,None,2791.390100296252,None,2791.390100296252,None,v,6.573045281678787,2791.390100296252,None,t,5.964839691201632,2791.390100296252,None,6.573045281678787,5.964839691201632,7,False,False,False,2798.0221588475797,None,2798.0221588475797,None,2798.0221588475797,None,2798.0221588475797,None,2798.0221588475797,None,2798.0221588475797,None,2799.0219946010366,None,2799.0219946010366,None,c,,,,,,,,,,,,,,,,,,,,,,,,,,,9_10,001,2021_Apr_08_1506,ComputerHuman,2020.1.3,59.99158995966379,
Computer.xlsx,c,Sychronize.jpg,Number6.jpg,6,Computer,,,,,1,1,11,3,0,9,9,0,,,,,,,,,,,,,,,,,,,,,,,,,,,,,,,,,,,,,,,,,,,,,,,,,,,,,,,,,2800.088158048802,None,2800.088158048802,None,2800.521693215047,None,2800.521693215047,None,v,5.629240054982802,2800.521693215047,None,t,5.628813398925558,2800.521693215047,None,5.629240054982802,5.628813398925558,6,False,False,False,2806.2038655680553,None,2806.2038655680553,None,2806.2038655680553,None,2806.2038655680553,None,2806.2038655680553,None,2806.2038655680553,None,2807.2203530979896,None,2807.2203530979896,None,c,,,,,,,,,,,,,,,,,,,,,,,,,,,9_10,001,2021_Apr_08_1506,ComputerHuman,2020.1.3,59.99158995966379,
Computer.xlsx,c,,,,,,,,,1,1,11,3,,,,,,,,,,,,,,,,,,,,,,,,,,,,,,,,,,,,,,,,,,,,,,,,,,,,,,,,,,,,,,,,,,,,,,,,,,,,,,,,,,,,,,,,,,,,,,,,,,,c,2808.220260067719,None,2808.220260067719,None,a,1,3.9145911560299282,2808.220260067719,None,l,1,3.7139085063317907,2808.220260067719,None,c,c,None,None,2812.1860890877106,None,"['space', 'space']",2813.1692493259325,None,"[2.5774234785967565, 8.321554952821316]",,,9_10,001,2021_Apr_08_1506,ComputerHuman,2020.1.3,59.99158995966379,
Computer.xlsx,c,Sychronize.jpg,Number7.jpg,7,Computer,,,,,1,2,12,5,0,0,0,2,,,,,,,,,,,,,,,,,,,,,,,,,,,,,,,,,,,,,,,,,,,,,,,,,,,,,2821.5510243755343,None,2821.5510243755343,None,2824.6169895725907,None,2824.6169895725907,None,2825.066953563459,None,2825.066953563459,None,v,5.575372642364528,2825.066953563459,None,t,6.194804740694963,2825.066953563459,None,5.575372642364528,6.194804740694963,7,False,False,False,2831.3157796979067,None,2831.3157796979067,None,2831.3157796979067,None,2831.3157796979067,None,2831.3157796979067,None,2831.3157796979067,None,2832.3154829634295,None,2832.3154829634295,None,c,,,,,,,,,,,,,,,,,,,,,,,,,,,9_10,001,2021_Apr_08_1506,ComputerHuman,2020.1.3,59.99158995966379,
Computer.xlsx,c,Sychronize.jpg,Number9.jpg,9,Computer,,,,,1,2,12,5,0,1,1,7,,,,,,,,,,,,,,,,,,,,,,,,,,,,,,,,,,,,,,,,,,,,,,,,,,,,,,,,,2833.381960147759,None,2833.381960147759,None,2833.815359938919,None,2833.815359938919,None,None,,2833.815359938919,None,t,9.01377136688825,2833.815359938919,None,13,9.01377136688825,9,False,False,True,2846.862675775079,None,2846.862675775079,None,2846.862675775079,None,2846.862675775079,None,2846.862675775079,None,2846.862675775079,None,2847.862538475234,None,2847.862538475234,None,c,,,,,,,,,,,,,,,,,,,,,,,,,,,9_10,001,2021_Apr_08_1506,ComputerHuman,2020.1.3,59.99158995966379,
Computer.xlsx,c,Sychronize.jpg,Number10.jpg,10,Computer,,,,,1,2,12,5,0,2,2,8,,,,,,,,,,,,,,,,,,,,,,,,,,,,,,,,,,,,,,,,,,,,,,,,,,,,,,,,,2848.9288356941106,None,2848.9288356941106,None,2849.362214312867,None,2849.362214312867,None,v,11.43936848487283,2849.362214312867,None,t,9.19071172967233,2849.362214312867,None,11.43936848487283,9.19071172967233,10,False,False,False,2860.8600366025967,None,2860.8600366025967,None,2860.8600366025967,None,2860.8600366025967,None,2860.8600366025967,None,2860.8600366025967,None,2861.8764744094588,None,2861.8764744094588,None,c,,,,,,,,,,,,,,,,,,,,,,,,,,,9_10,001,2021_Apr_08_1506,ComputerHuman,2020.1.3,59.99158995966379,
Computer.xlsx,c,Sychronize.jpg,Number6.jpg,6,Computer,,,,,1,2,12,5,0,3,3,0,,,,,,,,,,,,,,,,,,,,,,,,,,,,,,,,,,,,,,,,,,,,,,,,,,,,,,,,,2862.9093266052114,None,2862.9093266052114,None,2863.359542098602,None,2863.359542098602,None,v,5.141849666291819,2863.359542098602,None,t,6.324796897279157,2863.359542098602,None,5.141849666291819,6.324796897279157,6,False,False,False,2869.7582839444185,None,2869.7582839444185,None,2869.7582839444185,None,2869.7582839444185,None,2869.7582839444185,None,2869.7582839444185,None,2870.758053614307,None,2870.758053614307,None,c,,,,,,,,,,,,,,,,,,,,,,,,,,,9_10,001,2021_Apr_08_1506,ComputerHuman,2020.1.3,59.99158995966379,
Computer.xlsx,c,Sychronize.jpg,Number10.jpg,10,Computer,,,,,1,2,12,5,0,4,4,9,,,,,,,,,,,,,,,,,,,,,,,,,,,,,,,,,,,,,,,,,,,,,,,,,,,,,,,,,2871.807870360717,None,2871.807870360717,None,2872.257757681815,None,2872.257757681815,None,v,7.81127238139743,2872.257757681815,None,t,9.806729617150268,2872.257757681815,None,7.81127238139743,9.806729617150268,10,False,False,True,2882.122576361009,None,2882.122576361009,None,2882.122576361009,None,2882.122576361009,None,2882.122576361009,None,2882.122576361009,None,2883.1224137184363,None,2883.1224137184363,None,c,,,,,,,,,,,,,,,,,,,,,,,,,,,9_10,001,2021_Apr_08_1506,ComputerHuman,2020.1.3,59.99158995966379,
Computer.xlsx,c,Sychronize.jpg,Number6.jpg,6,Computer,,,,,1,2,12,5,0,5,5,1,,,,,,,,,,,,,,,,,,,,,,,,,,,,,,,,,,,,,,,,,,,,,,,,,,,,,,,,,2884.1718753458554,None,2884.1718753458554,None,2884.622025397264,None,2884.622025397264,None,v,4.8028300449259405,2884.622025397264,None,t,5.869832369076903,2884.622025397264,None,4.8028300449259405,5.869832369076903,6,False,False,True,2890.5542534882334,None,2890.5542534882334,None,2890.5542534882334,None,2890.5542534882334,None,2890.5542534882334,None,2890.5542534882334,None,2891.5707897788598,None,2891.5707897788598,None,c,,,,,,,,,,,,,,,,,,,,,,,,,,,9_10,001,2021_Apr_08_1506,ComputerHuman,2020.1.3,59.99158995966379,
Computer.xlsx,c,Sychronize.jpg,Number8.jpg,8,Computer,,,,,1,2,12,5,0,6,6,5,,,,,,,,,,,,,,,,,,,,,,,,,,,,,,,,,,,,,,,,,,,,,,,,,,,,,,,,,2892.6202424240473,None,2892.6202424240473,None,2893.0704476520295,None,2893.0704476520295,None,v,7.694134441568167,2893.0704476520295,None,t,9.169726346652169,2893.0704476520295,None,7.694134441568167,9.169726346652169,8,False,False,False,2902.318635406358,None,2902.318635406358,None,2902.318635406358,None,2902.318635406358,None,2902.318635406358,None,2902.318635406358,None,2903.318425927857,None,2903.318425927857,None,c,,,,,,,,,,,,,,,,,,,,,,,,,,,9_10,001,2021_Apr_08_1506,ComputerHuman,2020.1.3,59.99158995966379,
Computer.xlsx,c,Sychronize.jpg,Number8.jpg,8,Computer,,,,,1,2,12,5,0,7,7,4,,,,,,,,,,,,,,,,,,,,,,,,,,,,,,,,,,,,,,,,,,,,,,,,,,,,,,,,,2904.3682577515865,None,2904.3682577515865,None,2904.8181206923364,None,2904.8181206923364,None,v,7.610161150878412,2904.8181206923364,None,t,7.397868965264934,2904.8181206923364,None,7.610161150878412,7.397868965264934,8,False,False,False,2912.48334453439,None,2912.48334453439,None,2912.48334453439,None,2912.48334453439,None,2912.48334453439,None,2912.48334453439,None,2913.483108750781,None,2913.483108750781,None,c,,,,,,,,,,,,,,,,,,,,,,,,,,,9_10,001,2021_Apr_08_1506,ComputerHuman,2020.1.3,59.99158995966379,
Computer.xlsx,c,Sychronize.jpg,Number7.jpg,7,Computer,,,,,1,2,12,5,0,8,8,3,,,,,,,,,,,,,,,,,,,,,,,,,,,,,,,,,,,,,,,,,,,,,,,,,,,,,,,,,2914.5493180720914,None,2914.5493180720914,None,2914.9828683156557,None,2914.9828683156557,None,v,6.497188721525163,2914.9828683156557,None,t,6.108788312831166,2914.9828683156557,None,6.497188721525163,6.108788312831166,7,False,False,False,2921.5481359460937,None,2921.5481359460937,None,2921.5481359460937,None,2921.5481359460937,None,2921.5481359460937,None,2921.5481359460937,None,2922.5480820526973,None,2922.5480820526973,None,c,,,,,,,,,,,,,,,,,,,,,,,,,,,9_10,001,2021_Apr_08_1506,ComputerHuman,2020.1.3,59.99158995966379,
Computer.xlsx,c,Sychronize.jpg,Number9.jpg,9,Computer,,,,,1,2,12,5,0,9,9,6,,,,,,,,,,,,,,,,,,,,,,,,,,,,,,,,,,,,,,,,,,,,,,,,,,,,,,,,,2923.5977910123147,None,2923.5977910123147,None,2924.0477752132065,None,2924.0477752132065,None,v,8.376018079950882,2924.0477752132065,None,t,8.147819963975053,2924.0477752132065,None,8.376018079950882,8.147819963975053,9,False,False,False,2932.4795527489623,None,2932.4795527489623,None,2932.4795527489623,None,2932.4795527489623,None,2932.4795527489623,None,2932.4795527489623,None,2933.479224576673,None,2933.479224576673,None,c,,,,,,,,,,,,,,,,,,,,,,,,,,,9_10,001,2021_Apr_08_1506,ComputerHuman,2020.1.3,59.99158995966379,
Computer.xlsx,c,,,,,,,,,1,2,12,5,,,,,,,,,,,,,,,,,,,,,,,,,,,,,,,,,,,,,,,,,,,,,,,,,,,,,,,,,,,,,,,,,,,,,,,,,,,,,,,,,,,,,,,,,,,,,,,,,,,c,2934.479117431467,None,2934.479117431467,None,q,0,11.124368637250882,2934.479117431467,None,l,1,4.927811077977822,2934.479117431467,None,h,c,2945.6602781605034,None,None,None,None,None,None,,,,9_10,001,2021_Apr_08_1506,ComputerHuman,2020.1.3,59.99158995966379,
Computer.xlsx,c,Sychronize.jpg,Number7.jpg,7,Computer,,,,,1,3,13,7,0,0,0,2,,,,,,,,,,,,,,,,,,,,,,,,,,,,,,,,,,,,,,,,,,,,,,,,,,,,,2950.6593764084864,None,2950.6593764084864,None,2953.758370879601,None,2953.758370879601,None,2954.1919102161664,None,2954.1919102161664,None,v,6.047212540477631,2954.1919102161664,None,t,6.762716355522571,2954.1919102161664,None,6.047212540477631,6.762716355522571,7,False,False,True,2961.00722267757,None,2961.00722267757,None,2961.00722267757,None,2961.00722267757,None,2961.00722267757,None,2961.00722267757,None,2962.023747740408,None,2962.023747740408,None,c,,,,,,,,,,,,,,,,,,,,,,,,,,,9_10,001,2021_Apr_08_1506,ComputerHuman,2020.1.3,59.99158995966379,
Computer.xlsx,c,Sychronize.jpg,Number9.jpg,9,Computer,,,,,1,3,13,7,0,1,1,7,,,,,,,,,,,,,,,,,,,,,,,,,,,,,,,,,,,,,,,,,,,,,,,,,,,,,,,,,2963.073474985282,None,2963.073474985282,None,2963.506757686624,None,2963.506757686624,None,None,,2963.506757686624,None,t,8.05171809262174,2963.506757686624,None,13,8.05171809262174,9,False,False,False,2976.554251884263,None,2976.554251884263,None,2976.554251884263,None,2976.554251884263,None,2976.554251884263,None,2976.554251884263,None,2977.5707593034276,None,2977.5707593034276,None,c,,,,,,,,,,,,,,,,,,,,,,,,,,,9_10,001,2021_Apr_08_1506,ComputerHuman,2020.1.3,59.99158995966379,
Computer.xlsx,c,Sychronize.jpg,Number9.jpg,9,Computer,,,,,1,3,13,7,0,2,2,6,,,,,,,,,,,,,,,,,,,,,,,,,,,,,,,,,,,,,,,,,,,,,,,,,,,,,,,,,2978.6036628262264,None,2978.6036628262264,None,2979.053712789897,None,2979.053712789897,None,v,7.97671676934624,2979.053712789897,None,t,8.595738251318835,2979.053712789897,None,7.97671676934624,8.595738251318835,9,False,False,False,2987.702078905706,None,2987.702078905706,None,2987.702078905706,None,2987.702078905706,None,2987.702078905706,None,2987.702078905706,None,2988.7185885704275,None,2988.7185885704275,None,c,,,,,,,,,,,,,,,,,,,,,,,,,,,9_10,001,2021_Apr_08_1506,ComputerHuman,2020.1.3,59.99158995966379,
Computer.xlsx,c,Sychronize.jpg,Number7.jpg,7,Computer,,,,,1,3,13,7,0,3,3,3,,,,,,,,,,,,,,,,,,,,,,,,,,,,,,,,,,,,,,,,,,,,,,,,,,,,,,,,,2989.7683665007607,None,2989.7683665007607,None,2990.2182894299985,None,2990.2182894299985,None,v,6.027910363733099,2990.2182894299985,None,t,6.354783760762075,2990.2182894299985,None,6.027910363733099,6.354783760762075,7,False,False,False,2996.6337045454893,None,2996.6337045454893,None,2996.6337045454893,None,2996.6337045454893,None,2996.6337045454893,None,2996.6337045454893,None,2997.633507577957,None,2997.633507577957,None,c,,,,,,,,,,,,,,,,,,,,,,,,,,,9_10,001,2021_Apr_08_1506,ComputerHuman,2020.1.3,59.99158995966379,
Computer.xlsx,c,Sychronize.jpg,Number10.jpg,10,Computer,,,,,1,3,13,7,0,4,4,8,,,,,,,,,,,,,,,,,,,,,,,,,,,,,,,,,,,,,,,,,,,,,,,,,,,,,,,,,2998.6830593484992,None,2998.6830593484992,None,2999.133234742636,None,2999.133234742636,None,v,8.468699645360175,2999.133234742636,None,None,,2999.133234742636,None,8.468699645360175,13,10,False,False,False,3012.180670555761,None,3012.180670555761,None,3012.180670555761,None,3012.180670555761,None,3012.180670555761,None,3012.180670555761,None,3013.1805492956155,None,3013.1805492956155,None,c,,,,,,,,,,,,,,,,,,,,,,,,,,,9_10,001,2021_Apr_08_1506,ComputerHuman,2020.1.3,59.99158995966379,
Computer.xlsx,c,Sychronize.jpg,Number6.jpg,6,Computer,,,,,1,3,13,7,0,5,5,1,,,,,,,,,,,,,,,,,,,,,,,,,,,,,,,,,,,,,,,,,,,,,,,,,,,,,,,,,3014.2469398655558,None,3014.2469398655558,None,3014.6802244916616,None,3014.6802244916616,None,None,,3014.6802244916616,None,t,5.136870301368617,3014.6802244916616,None,13,5.136870301368617,6,False,False,False,3027.727702970391,None,3027.727702970391,None,3027.727702970391,None,3027.727702970391,None,3027.727702970391,None,3027.727702970391,None,3028.7441969162064,None,3028.7441969162064,None,c,,,,,,,,,,,,,,,,,,,,,,,,,,,9_10,001,2021_Apr_08_1506,ComputerHuman,2020.1.3,59.99158995966379,
Computer.xlsx,c,Sychronize.jpg,Number6.jpg,6,Computer,,,,,1,3,13,7,0,6,6,0,,,,,,,,,,,,,,,,,,,,,,,,,,,,,,,,,,,,,,,,,,,,,,,,,,,,,,,,,3029.777096589478,None,3029.777096589478,None,3030.227240545799,None,3030.227240545799,None,v,6.085964780020731,3030.227240545799,None,t,5.552834616239124,3030.227240545799,None,6.085964780020731,5.552834616239124,6,False,True,False,3036.3926496464046,None,3036.3926496464046,None,3036.3926496464046,None,3036.3926496464046,None,3036.3926496464046,None,3036.3926496464046,None,3037.392455566016,None,3037.392455566016,None,c,,,,,,,,,,,,,,,,,,,,,,,,,,,9_10,001,2021_Apr_08_1506,ComputerHuman,2020.1.3,59.99158995966379,
Computer.xlsx,c,Sychronize.jpg,Number8.jpg,8,Computer,,,,,1,3,13,7,0,7,7,5,,,,,,,,,,,,,,,,,,,,,,,,,,,,,,,,,,,,,,,,,,,,,,,,,,,,,,,,,3038.442082402362,None,3038.442082402362,None,3038.8921933168967,None,3038.8921933168967,None,None,,3038.8921933168967,None,t,7.891766019249189,3038.8921933168967,None,13,7.891766019249189,8,False,False,True,3051.956367200095,None,3051.956367200095,None,3051.956367200095,None,3051.956367200095,None,3051.956367200095,None,3051.956367200095,None,3052.9394809231817,None,3052.9394809231817,None,c,,,,,,,,,,,,,,,,,,,,,,,,,,,9_10,001,2021_Apr_08_1506,ComputerHuman,2020.1.3,59.99158995966379,
Computer.xlsx,c,Sychronize.jpg,Number10.jpg,10,Computer,,,,,1,3,13,7,0,8,8,9,,,,,,,,,,,,,,,,,,,,,,,,,,,,,,,,,,,,,,,,,,,,,,,,,,,,,,,,,3054.0057720469704,None,3054.0057720469704,None,3054.4558576187774,None,3054.4558576187774,None,v,9.020671004869655,3054.4558576187774,None,t,9.763665264265,3054.4558576187774,None,9.020671004869655,9.763665264265,10,False,False,True,3064.270589442989,None,3064.270589442989,None,3064.270589442989,None,3064.270589442989,None,3064.270589442989,None,3064.270589442989,None,3065.270476202695,None,3065.270476202695,None,c,,,,,,,,,,,,,,,,,,,,,,,,,,,9_10,001,2021_Apr_08_1506,ComputerHuman,2020.1.3,59.99158995966379,
