Sychronize,NumberImage,NumberPr,Partner,Condition,TuringResponsePlayer,CorrectTuringReply,Number,trials.thisRepN,trials.thisTrialN,trials.thisN,trials.thisIndex,Block.thisRepN,Block.thisTrialN,Block.thisN,Block.thisIndex,trials_loop.thisRepN,trials_loop.thisTrialN,trials_loop.thisN,trials_loop.thisIndex,textLeft.started,textLeft.stopped,textRight.started,textRight.stopped,key_resp_Istr.keys,key_resp_Istr.rt,key_resp_Istr.started,key_resp_Istr.stopped,SychroLeftPr.started,SychroLeftPr.stopped,SychroRightPr.started,SychroRightPr.stopped,NumberLeftPr.started,NumberLeftPr.stopped,NumberRightPr.started,NumberRightPr.stopped,CrossLeftPr.started,CrossLeftPr.stopped,CrossRightPr.started,CrossRightPr.stopped,key_respPr.keys,key_respPr.rt,key_respPr.started,key_respPr.stopped,RTLeftPr,RTRightPr,CompPr,SychronizedRTsPr,SychronizedRTsLeftCPr,SychronizedRTsRightCPr,FeedbackLeftLeftPr.started,FeedbackLeftLeftPr.stopped,FeedbackLeftRightPr.started,FeedbackLeftRightPr.stopped,FeedbackRightLeftPr.started,FeedbackRightLeftPr.stopped,FeedbackRightRightPr.started,FeedbackRightRightPr.stopped,textLeftLeftPr.started,textLeftLeftPr.stopped,textLeftRightPr.started,textLeftRightPr.stopped,textRightLeftPr.started,textRightLeftPr.stopped,textRightRightPr.started,textRightRightPr.stopped,CreditLeftPr.started,CreditLeftPr.stopped,CreditRightPr.started,CreditRightPr.stopped,text_StartExp.started,text_StartExp.stopped,key_startExp.keys,key_startExp.rt,key_startExp.started,key_startExp.stopped,SychroLeft.started,SychroLeft.stopped,SychroRight.started,SychroRight.stopped,NumberLeft.started,NumberLeft.stopped,NumberRight.started,NumberRight.stopped,CrossLeft.started,CrossLeft.stopped,CrossRight.started,CrossRight.stopped,key_resp.keys,key_resp.rt,key_resp.started,key_resp.stopped,RTLeft,RTRight,Comp,SychronizedRTs,SychronizedRTsLeftC,SychronizedRTsRightC,FeedbackLeftLeft.started,FeedbackLeftLeft.stopped,FeedbackLeftRight.started,FeedbackLeftRight.stopped,FeedbackRightLeft.started,FeedbackRightLeft.stopped,FeedbackRightRight.started,FeedbackRightRight.stopped,textLeftLeft.started,textLeftLeft.stopped,textLeftRight.started,textLeftRight.stopped,textRightLeft.started,textRightLeft.stopped,textRightRight.started,textRightRight.stopped,CreditLeft.started,CreditLeft.stopped,CreditRight.started,CreditRight.stopped,TuringResponsePlayer,CorrectTuringReply,Turingtext.started,Turingtext.stopped,key_resp_2.keys,key_resp_2.corr,key_resp_2.rt,key_resp_2.started,key_resp_2.stopped,BlockText.started,BlockText.stopped,text_Pause.started,text_Pause.stopped,key_respPause.keys,key_respPause.started,key_respPause.stopped,key_respPause.rt,EndText.started,EndText.stopped,participant,session,date,expName,psychopyVersion,frameRate,
,,,,,,,,,,,,,,,,,,,,13.830245099999956,None,13.830245099999956,None,"['v', 'v', 'v', 'v', 'v', 't']","[98.64882729999954, 101.01774549999936, 460.11576889999924, 468.0507467999996, 557.9601950999986, 612.0840172999997]",14.797954600000594,None,,,,,,,,,,,,,,,,,,,,,,,,,,,,,,,,,,,,,,,,,,,,,,,,,,,,,,,,,,,,,,,,,,,,,,,,,,,,,,,,,,,,,,,,,,,,,,,,,,,,,,,,,,,,,,11_12,001,2021_Feb_24_1329,ComputerHuman,2020.1.3,59.987174742368445,
Sychronize.jpg,Number7.jpg,7,Computer,,,,,0,0,0,1,,,,,,,,,,,,,,,,,626.9338561999994,None,626.9338561999994,None,629.9899755999995,None,629.9899755999995,None,630.4269215999993,None,630.4269215999993,None,"['t', 'v']","[7.150740000000951, 7.463665499999479]",630.4269215999993,None,7.463665499999479,7.150740000000951,7,False,False,False,642.0840566999996,None,642.0840566999996,None,642.0840566999996,None,642.0840566999996,None,642.0840566999996,None,642.0840566999996,None,642.0840566999996,None,642.0840566999996,None,643.102254899999,None,643.102254899999,None,,,,,,,,,,,,,,,,,,,,,,,,,,,,,,,,,,,,,,,,,,,,,,,,,,,,,,,,,,,,,,,,,,,,11_12,001,2021_Feb_24_1329,ComputerHuman,2020.1.3,59.987174742368445,
Sychronize.jpg,Number8.jpg,8,Computer,,,,,0,1,1,2,,,,,,,,,,,,,,,,,,,,,644.1295714999997,None,644.1295714999997,None,644.5925931999991,None,644.5925931999991,None,"['v', 't']","[7.821838500000013, 8.076441100000011]",644.5925931999991,None,7.821838500000013,8.076441100000011,8,False,False,False,654.7610979000001,None,654.7610979000001,None,654.7610979000001,None,654.7610979000001,None,654.7610979000001,None,654.7610979000001,None,654.7610979000001,None,654.7610979000001,None,655.7988817999994,None,655.7988817999994,None,,,,,,,,,,,,,,,,,,,,,,,,,,,,,,,,,,,,,,,,,,,,,,,,,,,,,,,,,,,,,,,,,,,,11_12,001,2021_Feb_24_1329,ComputerHuman,2020.1.3,59.987174742368445,
Sychronize.jpg,Number6.jpg,6,Human,,,,,0,2,2,5,,,,,,,,,,,,,,,,,,,,,656.7831698999998,None,656.7831698999998,None,657.2782172000007,None,657.2782172000007,None,"['t', 'v']","[5.21079280000049, 6.160078700000668]",657.2782172000007,None,6.160078700000668,5.21079280000049,6,False,False,False,666.4848529999999,None,666.4848529999999,None,666.4848529999999,None,666.4848529999999,None,666.4848529999999,None,666.4848529999999,None,666.4848529999999,None,666.4848529999999,None,667.4993570000006,None,667.4993570000006,None,,,,,,,,,,,,,,,,,,,,,,,,,,,,,,,,,,,,,,,,,,,,,,,,,,,,,,,,,,,,,,,,,,,,11_12,001,2021_Feb_24_1329,ComputerHuman,2020.1.3,59.987174742368445,
Sychronize.jpg,Number6.jpg,6,Human,,,,,0,3,3,0,,,,,,,,,,,,,,,,,,,,,668.5219235999994,None,668.5219235999994,None,668.9982598999995,None,668.9982598999995,None,"['v', 't']","[5.016039100000853, 5.519789500000115]",668.9982598999995,None,5.016039100000853,5.519789500000115,6,False,False,False,676.9209883000003,None,676.9209883000003,None,676.9209883000003,None,676.9209883000003,None,676.9209883000003,None,676.9209883000003,None,676.9209883000003,None,676.9209883000003,None,677.9354812999991,None,677.9354812999991,None,,,,,,,,,,,,,,,,,,,,,,,,,,,,,,,,,,,,,,,,,,,,,,,,,,,,,,,,,,,,,,,,,,,,11_12,001,2021_Feb_24_1329,ComputerHuman,2020.1.3,59.987174742368445,
Sychronize.jpg,Number9.jpg,9,Human,,,,,0,4,4,3,,,,,,,,,,,,,,,,,,,,,678.9662919999992,None,678.9662919999992,None,679.4333963000008,None,679.4333963000008,None,"['v', 't']","[7.917117400000279, 7.924637899999652]",679.4333963000008,None,7.917117400000279,7.924637899999652,9,False,False,False,689.1724641000001,None,689.1724641000001,None,689.1724641000001,None,689.1724641000001,None,689.1724641000001,None,689.1724641000001,None,689.1724641000001,None,689.1724641000001,None,690.2095735000003,None,690.2095735000003,None,,,,,,,,,,,,,,,,,,,,,,,,,,,,,,,,,,,,,,,,,,,,,,,,,,,,,,,,,,,,,,,,,,,,11_12,001,2021_Feb_24_1329,ComputerHuman,2020.1.3,59.987174742368445,
Sychronize.jpg,Number10.jpg,10,Computer,,,,,0,5,5,4,,,,,,,,,,,,,,,,,,,,,691.2191182000006,None,691.2191182000006,None,691.6865932000001,None,691.6865932000001,None,"['v', 't']","[8.684040500000265, 8.747621399999844]",691.6865932000001,None,8.684040500000265,8.747621399999844,10,False,False,False,702.2304903999993,None,702.2304903999993,None,702.2304903999993,None,702.2304903999993,None,702.2304903999993,None,702.2304903999993,None,702.2304903999993,None,702.2304903999993,None,703.2410569999993,None,703.2410569999993,None,,,,,,,,,,,,,,,,,,,,,,,,,,,,,,,,,,,,,,,,,,,,,,,,,,,,,,,,,,,,,,,,,,,,11_12,001,2021_Feb_24_1329,ComputerHuman,2020.1.3,59.987174742368445,
,,,,,,,,,,,,,,,,,,,,,,,,,,,,,,,,,,,,,,,,,,,,,,,,,,,,,,,,,,,,,,,,,,,,,,704.2449462000004,None,"['space', 'space']","[0.5902867000004335, 1.2941874999996799]",705.2360253000006,None,,,,,,,,,,,,,,,,,,,,,,,,,,,,,,,,,,,,,,,,,,,,,,,,,,,,,,,,,,,,,,11_12,001,2021_Feb_24_1329,ComputerHuman,2020.1.3,59.987174742368445,
Sychronize.jpg,Number8.jpg,,Human,Human.xlsx,1,h,8,,,,,0,0,0,0,0,0,0,4,,,,,,,,,,,,,,,,,,,,,,,,,,,,,,,,,,,,,,,,,,,,,,,,,,,,,,,,,706.5780300999995,None,706.5780300999995,None,709.5967368000001,None,709.5967368000001,None,710.0933915000005,None,710.0933915000005,None,"['v', 't']","[5.985351700001047, 6.688914600001226]",710.0933915000005,None,5.985351700001047,6.688914600001226,8,False,False,False,718.6860887999992,None,718.6860887999992,None,718.6860887999992,None,718.6860887999992,None,718.6860887999992,None,718.6860887999992,None,718.6860887999992,None,718.6860887999992,None,719.6976242000001,None,719.6976242000001,None,1,h,,,,,,,,,,,,,,,,,,11_12,001,2021_Feb_24_1329,ComputerHuman,2020.1.3,59.987174742368445,
Sychronize.jpg,Number10.jpg,,Human,Human.xlsx,1,h,10,,,,,0,0,0,0,0,1,1,9,,,,,,,,,,,,,,,,,,,,,,,,,,,,,,,,,,,,,,,,,,,,,,,,,,,,,,,,,,,,,720.7183870000008,None,720.7183870000008,None,721.1925410000003,None,721.1925410000003,None,"['t', 'v']","[7.329735999999684, 8.529704300000958]",721.1925410000003,None,8.529704300000958,7.329735999999684,10,False,False,False,733.2337026000005,None,733.2337026000005,None,733.2337026000005,None,733.2337026000005,None,733.2337026000005,None,733.2337026000005,None,733.2337026000005,None,733.2337026000005,None,734.2467828999997,None,734.2467828999997,None,1,h,,,,,,,,,,,,,,,,,,11_12,001,2021_Feb_24_1329,ComputerHuman,2020.1.3,59.987174742368445,
Sychronize.jpg,Number9.jpg,,Human,Human.xlsx,1,h,9,,,,,0,0,0,0,0,2,2,6,,,,,,,,,,,,,,,,,,,,,,,,,,,,,,,,,,,,,,,,,,,,,,,,,,,,,,,,,,,,,735.2708784999995,None,735.2708784999995,None,735.7453064999991,None,735.7453064999991,None,"['v', 't']","[7.827358399999866, 9.271534400000746]",735.7453064999991,None,7.827358399999866,9.271534400000746,9,False,False,False,747.2127935999997,None,747.2127935999997,None,747.2127935999997,None,747.2127935999997,None,747.2127935999997,None,747.2127935999997,None,747.2127935999997,None,747.2127935999997,None,748.2338041000003,None,748.2338041000003,None,1,h,,,,,,,,,,,,,,,,,,11_12,001,2021_Feb_24_1329,ComputerHuman,2020.1.3,59.987174742368445,
Sychronize.jpg,Number6.jpg,,Human,Human.xlsx,1,h,6,,,,,0,0,0,0,0,3,3,1,,,,,,,,,,,,,,,,,,,,,,,,,,,,,,,,,,,,,,,,,,,,,,,,,,,,,,,,,,,,,749.2394148000003,None,749.2394148000003,None,749.7313586,None,749.7313586,None,"['v', 't']","[4.813268300000345, 6.194832099999985]",749.7313586,None,4.813268300000345,6.194832099999985,6,False,False,False,758.3047060000008,None,758.3047060000008,None,758.3047060000008,None,758.3047060000008,None,758.3047060000008,None,758.3047060000008,None,758.3047060000008,None,758.3047060000008,None,759.3177371000002,None,759.3177371000002,None,1,h,,,,,,,,,,,,,,,,,,11_12,001,2021_Feb_24_1329,ComputerHuman,2020.1.3,59.987174742368445,
Sychronize.jpg,Number7.jpg,,Human,Human.xlsx,1,h,7,,,,,0,0,0,0,0,4,4,2,,,,,,,,,,,,,,,,,,,,,,,,,,,,,,,,,,,,,,,,,,,,,,,,,,,,,,,,,,,,,760.3367699999999,None,760.3367699999999,None,760.8172553000004,None,760.8172553000004,None,"['t', 'v']","[5.72912659999929, 6.564254400000209]",760.8172553000004,None,6.564254400000209,5.72912659999929,7,False,False,False,770.9420033000006,None,770.9420033000006,None,770.9420033000006,None,770.9420033000006,None,770.9420033000006,None,770.9420033000006,None,770.9420033000006,None,770.9420033000006,None,771.9378183000008,None,771.9378183000008,None,1,h,,,,,,,,,,,,,,,,,,11_12,001,2021_Feb_24_1329,ComputerHuman,2020.1.3,59.987174742368445,
Sychronize.jpg,Number7.jpg,,Human,Human.xlsx,1,h,7,,,,,0,0,0,0,0,5,5,3,,,,,,,,,,,,,,,,,,,,,,,,,,,,,,,,,,,,,,,,,,,,,,,,,,,,,,,,,,,,,772.9555586999995,None,772.9555586999995,None,773.4351946999996,None,773.4351946999996,None,"['t', 'v']","[5.633423199999015, 6.782720999999583]",773.4351946999996,None,6.782720999999583,5.633423199999015,7,False,False,False,783.5082481999998,None,783.5082481999998,None,783.5082481999998,None,783.5082481999998,None,783.5082481999998,None,783.5082481999998,None,783.5082481999998,None,783.5082481999998,None,784.5231918999998,None,784.5231918999998,None,1,h,,,,,,,,,,,,,,,,,,11_12,001,2021_Feb_24_1329,ComputerHuman,2020.1.3,59.987174742368445,
Sychronize.jpg,Number9.jpg,,Human,Human.xlsx,1,h,9,,,,,0,0,0,0,0,6,6,7,,,,,,,,,,,,,,,,,,,,,,,,,,,,,,,,,,,,,,,,,,,,,,,,,,,,,,,,,,,,,785.5492641000001,None,785.5492641000001,None,786.0228358999993,None,786.0228358999993,None,"['v', 't']","[7.043248899999526, 9.92353870000079]",786.0228358999993,None,7.043248899999526,9.92353870000079,9,False,False,False,798.152425799999,None,798.152425799999,None,798.152425799999,None,798.152425799999,None,798.152425799999,None,798.152425799999,None,798.152425799999,None,798.152425799999,None,799.1593876000006,None,799.1593876000006,None,1,h,,,,,,,,,,,,,,,,,,11_12,001,2021_Feb_24_1329,ComputerHuman,2020.1.3,59.987174742368445,
Sychronize.jpg,Number8.jpg,,Human,Human.xlsx,1,h,8,,,,,0,0,0,0,0,7,7,5,,,,,,,,,,,,,,,,,,,,,,,,,,,,,,,,,,,,,,,,,,,,,,,,,,,,,,,,,,,,,800.1840833999995,None,800.1840833999995,None,800.6583511000008,None,800.6583511000008,None,"['v', 't']","[7.77952329999971, 8.518119399999705]",800.6583511000008,None,7.77952329999971,8.518119399999705,8,False,False,False,811.2092095999997,None,811.2092095999997,None,811.2092095999997,None,811.2092095999997,None,811.2092095999997,None,811.2092095999997,None,811.2092095999997,None,811.2092095999997,None,812.2120912999999,None,812.2120912999999,None,1,h,,,,,,,,,,,,,,,,,,11_12,001,2021_Feb_24_1329,ComputerHuman,2020.1.3,59.987174742368445,
Sychronize.jpg,Number10.jpg,,Human,Human.xlsx,1,h,10,,,,,0,0,0,0,0,8,8,8,,,,,,,,,,,,,,,,,,,,,,,,,,,,,,,,,,,,,,,,,,,,,,,,,,,,,,,,,,,,,813.2375006000002,None,813.2375006000002,None,813.7109619999992,None,813.7109619999992,None,"['v', 't']","[8.203315299999304, 10.435254099998929]",813.7109619999992,None,8.203315299999304,10.435254099998929,10,False,False,False,826.4013259999992,None,826.4013259999992,None,826.4013259999992,None,826.4013259999992,None,826.4013259999992,None,826.4013259999992,None,826.4013259999992,None,826.4013259999992,None,827.4159672999995,None,827.4159672999995,None,1,h,,,,,,,,,,,,,,,,,,11_12,001,2021_Feb_24_1329,ComputerHuman,2020.1.3,59.987174742368445,
Sychronize.jpg,Number6.jpg,,Human,Human.xlsx,1,h,6,,,,,0,0,0,0,0,9,9,0,,,,,,,,,,,,,,,,,,,,,,,,,,,,,,,,,,,,,,,,,,,,,,,,,,,,,,,,,,,,,828.4388204999996,None,828.4388204999996,None,828.9139746000001,None,828.9139746000001,None,"['t', 'v']","[5.295726700000159, 6.396154899999601]",828.9139746000001,None,6.396154899999601,5.295726700000159,6,False,False,False,838.2026709999991,None,838.2026709999991,None,838.2026709999991,None,838.2026709999991,None,838.2026709999991,None,838.2026709999991,None,838.2026709999991,None,838.2026709999991,None,839.2185608,None,839.2185608,None,1,h,,,,,,,,,,,,,,,,,,11_12,001,2021_Feb_24_1329,ComputerHuman,2020.1.3,59.987174742368445,
,,,,Human.xlsx,1,h,,,,,,0,0,0,0,,,,,,,,,,,,,,,,,,,,,,,,,,,,,,,,,,,,,,,,,,,,,,,,,,,,,,,,,,,,,,,,,,,,,,,,,,,,,,,,,,,,,,,,,,,,,,,,,,,,,,,1,h,840.2155053000006,None,c,0,12.601073099998757,841.2135199999993,None,853.8416820999992,None,None,None,None,None,None,,,,11_12,001,2021_Feb_24_1329,ComputerHuman,2020.1.3,59.987174742368445,
Sychronize.jpg,Number10.jpg,,Human,Human.xlsx,1,h,10,,,,,0,1,1,2,0,0,0,8,,,,,,,,,,,,,,,,,,,,,,,,,,,,,,,,,,,,,,,,,,,,,,,,,,,,,,,,,858.8739796999998,None,858.8739796999998,None,861.9076908999996,None,861.9076908999996,None,862.371102699999,None,862.371102699999,None,"['t', 'v']","[9.047225500000422, 9.183300200000303]",862.371102699999,None,9.183300200000303,9.047225500000422,10,False,False,False,874.8311149000001,None,874.8311149000001,None,874.8311149000001,None,874.8311149000001,None,874.8311149000001,None,874.8311149000001,None,874.8311149000001,None,874.8311149000001,None,875.8635099000003,None,875.8635099000003,None,1,h,,,,,,,,,,,,,,,,,,11_12,001,2021_Feb_24_1329,ComputerHuman,2020.1.3,59.987174742368445,
Sychronize.jpg,Number9.jpg,,Human,Human.xlsx,1,h,9,,,,,0,1,1,2,0,1,1,7,,,,,,,,,,,,,,,,,,,,,,,,,,,,,,,,,,,,,,,,,,,,,,,,,,,,,,,,,,,,,876.8659583000008,None,876.8659583000008,None,877.3609259000004,None,877.3609259000004,None,"['v', 't']","[8.013171300000977, 8.37337529999968]",877.3609259000004,None,8.013171300000977,8.37337529999968,9,False,False,False,887.6589296000002,None,887.6589296000002,None,887.6589296000002,None,887.6589296000002,None,887.6589296000002,None,887.6589296000002,None,887.6589296000002,None,887.6589296000002,None,888.6787571000004,None,888.6787571000004,None,1,h,,,,,,,,,,,,,,,,,,11_12,001,2021_Feb_24_1329,ComputerHuman,2020.1.3,59.987174742368445,
Sychronize.jpg,Number6.jpg,,Human,Human.xlsx,1,h,6,,,,,0,1,1,2,0,2,2,0,,,,,,,,,,,,,,,,,,,,,,,,,,,,,,,,,,,,,,,,,,,,,,,,,,,,,,,,,,,,,889.7008365000002,None,889.7008365000002,None,890.1766489999991,None,890.1766489999991,None,"['t', 'v']","[5.393532200001573, 6.647828300001493]",890.1766489999991,None,6.647828300001493,5.393532200001573,6,False,False,False,899.9776466000003,None,899.9776466000003,None,899.9776466000003,None,899.9776466000003,None,899.9776466000003,None,899.9776466000003,None,899.9776466000003,None,899.9776466000003,None,900.9965871999993,None,900.9965871999993,None,1,h,,,,,,,,,,,,,,,,,,11_12,001,2021_Feb_24_1329,ComputerHuman,2020.1.3,59.987174742368445,
Sychronize.jpg,Number6.jpg,,Human,Human.xlsx,1,h,6,,,,,0,1,1,2,0,3,3,1,,,,,,,,,,,,,,,,,,,,,,,,,,,,,,,,,,,,,,,,,,,,,,,,,,,,,,,,,,,,,902.0020370000002,None,902.0020370000002,None,902.4948985999999,None,902.4948985999999,None,"['v', 't']","[5.483088099999804, 6.802939499999411]",902.4948985999999,None,5.483088099999804,6.802939499999411,6,False,False,False,910.9852255000005,None,910.9852255000005,None,910.9852255000005,None,910.9852255000005,None,910.9852255000005,None,910.9852255000005,None,910.9852255000005,None,910.9852255000005,None,911.9996592999996,None,911.9996592999996,None,1,h,,,,,,,,,,,,,,,,,,11_12,001,2021_Feb_24_1329,ComputerHuman,2020.1.3,59.987174742368445,
Sychronize.jpg,Number9.jpg,,Human,Human.xlsx,1,h,9,,,,,0,1,1,2,0,4,4,6,,,,,,,,,,,,,,,,,,,,,,,,,,,,,,,,,,,,,,,,,,,,,,,,,,,,,,,,,,,,,913.0183350000007,None,913.0183350000007,None,913.5162266999996,None,913.5162266999996,None,"['v', 't']","[7.368251199999577, 7.969893100000263]",913.5162266999996,None,7.368251199999577,7.969893100000263,9,False,False,False,923.4611829999994,None,923.4611829999994,None,923.4611829999994,None,923.4611829999994,None,923.4611829999994,None,923.4611829999994,None,923.4611829999994,None,923.4611829999994,None,924.4685965000008,None,924.4685965000008,None,1,h,,,,,,,,,,,,,,,,,,11_12,001,2021_Feb_24_1329,ComputerHuman,2020.1.3,59.987174742368445,
Sychronize.jpg,Number7.jpg,,Human,Human.xlsx,1,h,7,,,,,0,1,1,2,0,5,5,3,,,,,,,,,,,,,,,,,,,,,,,,,,,,,,,,,,,,,,,,,,,,,,,,,,,,,,,,,,,,,925.4865871999991,None,925.4865871999991,None,925.9671696999994,None,925.9671696999994,None,"['v', 't']","[5.602015599999504, 5.709370500000659]",925.9671696999994,None,5.602015599999504,5.709370500000659,7,False,False,False,933.6004749000003,None,933.6004749000003,None,933.6004749000003,None,933.6004749000003,None,933.6004749000003,None,933.6004749000003,None,933.6004749000003,None,933.6004749000003,None,934.6423663999994,None,934.6423663999994,None,1,h,,,,,,,,,,,,,,,,,,11_12,001,2021_Feb_24_1329,ComputerHuman,2020.1.3,59.987174742368445,
Sychronize.jpg,Number8.jpg,,Human,Human.xlsx,1,h,8,,,,,0,1,1,2,0,6,6,5,,,,,,,,,,,,,,,,,,,,,,,,,,,,,,,,,,,,,,,,,,,,,,,,,,,,,,,,,,,,,935.6387560000003,None,935.6387560000003,None,936.1196645,None,936.1196645,None,"['v', 't']","[7.062480599999617, 7.84263110000029]",936.1196645,None,7.062480599999617,7.84263110000029,8,False,False,False,946.0201486999995,None,946.0201486999995,None,946.0201486999995,None,946.0201486999995,None,946.0201486999995,None,946.0201486999995,None,946.0201486999995,None,946.0201486999995,None,947.0391884000001,None,947.0391884000001,None,1,h,,,,,,,,,,,,,,,,,,11_12,001,2021_Feb_24_1329,ComputerHuman,2020.1.3,59.987174742368445,
Sychronize.jpg,Number7.jpg,,Human,Human.xlsx,1,h,7,,,,,0,1,1,2,0,7,7,2,,,,,,,,,,,,,,,,,,,,,,,,,,,,,,,,,,,,,,,,,,,,,,,,,,,,,,,,,,,,,948.0419946000002,None,948.0419946000002,None,948.5385194999999,None,948.5385194999999,None,"['t', 'v']","[4.9873386999988725, 6.319117099999858]",948.5385194999999,None,6.319117099999858,4.9873386999988725,7,False,False,False,957.8092140000008,None,957.8092140000008,None,957.8092140000008,None,957.8092140000008,None,957.8092140000008,None,957.8092140000008,None,957.8092140000008,None,957.8092140000008,None,958.8249211999992,None,958.8249211999992,None,1,h,,,,,,,,,,,,,,,,,,11_12,001,2021_Feb_24_1329,ComputerHuman,2020.1.3,59.987174742368445,
Sychronize.jpg,Number8.jpg,,Human,Human.xlsx,1,h,8,,,,,0,1,1,2,0,8,8,4,,,,,,,,,,,,,,,,,,,,,,,,,,,,,,,,,,,,,,,,,,,,,,,,,,,,,,,,,,,,,959.8480192999996,None,959.8480192999996,None,960.3239336999995,None,960.3239336999995,None,['t'],[9.694013000000268],960.3239336999995,None,13,9.694013000000268,8,False,False,False,976.4299647999997,None,976.4299647999997,None,976.4299647999997,None,976.4299647999997,None,976.4299647999997,None,976.4299647999997,None,976.4299647999997,None,976.4299647999997,None,977.4447244000003,None,977.4447244000003,None,1,h,,,,,,,,,,,,,,,,,,11_12,001,2021_Feb_24_1329,ComputerHuman,2020.1.3,59.987174742368445,
Sychronize.jpg,Number10.jpg,,Human,Human.xlsx,1,h,10,,,,,0,1,1,2,0,9,9,9,,,,,,,,,,,,,,,,,,,,,,,,,,,,,,,,,,,,,,,,,,,,,,,,,,,,,,,,,,,,,978.4697880999993,None,978.4697880999993,None,978.9443637999993,None,978.9443637999993,None,"['v', 't']","[5.809838900000614, 8.829314500000692]",978.9443637999993,None,5.809838900000614,8.829314500000692,10,False,False,False,989.6359663999992,None,989.6359663999992,None,989.6359663999992,None,989.6359663999992,None,989.6359663999992,None,989.6359663999992,None,989.6359663999992,None,989.6359663999992,None,990.6480947,None,990.6480947,None,1,h,,,,,,,,,,,,,,,,,,11_12,001,2021_Feb_24_1329,ComputerHuman,2020.1.3,59.987174742368445,
,,,,Human.xlsx,1,h,,,,,,0,1,1,2,,,,,,,,,,,,,,,,,,,,,,,,,,,,,,,,,,,,,,,,,,,,,,,,,,,,,,,,,,,,,,,,,,,,,,,,,,,,,,,,,,,,,,,,,,,,,,,,,,,,,,,1,h,991.6477193999999,None,h,1,1.7577669999991485,992.6439126999994,None,994.4368613999995,None,None,None,None,None,None,,,,11_12,001,2021_Feb_24_1329,ComputerHuman,2020.1.3,59.987174742368445,
Sychronize.jpg,Number8.jpg,,Computer,Computer.xlsx,2,c,8,,,,,0,2,2,7,0,0,0,5,,,,,,,,,,,,,,,,,,,,,,,,,,,,,,,,,,,,,,,,,,,,,,,,,,,,,,,,,999.4505253000007,None,999.4505253000007,None,1002.4890768999994,None,1002.4890768999994,None,1002.9658624000003,None,1002.9658624000003,None,"['v', 't']","[5.447608599999512, 7.001396299998305]",1002.9658624000003,None,5.447608599999512,7.001396299998305,8,False,False,False,1011.9930076,None,1011.9930076,None,1011.9930076,None,1011.9930076,None,1011.9930076,None,1011.9930076,None,1011.9930076,None,1011.9930076,None,1013.0025485999995,None,1013.0025485999995,None,2,c,,,,,,,,,,,,,,,,,,11_12,001,2021_Feb_24_1329,ComputerHuman,2020.1.3,59.987174742368445,
Sychronize.jpg,Number9.jpg,,Computer,Computer.xlsx,2,c,9,,,,,0,2,2,7,0,1,1,6,,,,,,,,,,,,,,,,,,,,,,,,,,,,,,,,,,,,,,,,,,,,,,,,,,,,,,,,,,,,,1014.0214551999998,None,1014.0214551999998,None,1014.5002258000004,None,1014.5002258000004,None,"['v', 't']","[5.781847499998548, 6.913636199999019]",1014.5002258000004,None,5.781847499998548,6.913636199999019,9,False,False,False,1023.0755327000006,None,1023.0755327000006,None,1023.0755327000006,None,1023.0755327000006,None,1023.0755327000006,None,1023.0755327000006,None,1023.0755327000006,None,1023.0755327000006,None,1024.0890168000005,None,1024.0890168000005,None,2,c,,,,,,,,,,,,,,,,,,11_12,001,2021_Feb_24_1329,ComputerHuman,2020.1.3,59.987174742368445,
Sychronize.jpg,Number8.jpg,,Computer,Computer.xlsx,2,c,8,,,,,0,2,2,7,0,2,2,4,,,,,,,,,,,,,,,,,,,,,,,,,,,,,,,,,,,,,,,,,,,,,,,,,,,,,,,,,,,,,1025.1070414000005,None,1025.1070414000005,None,1025.5872853,None,1025.5872853,None,"['v', 't']","[5.858620999999403, 8.478505199998835]",1025.5872853,None,5.858620999999403,8.478505199998835,8,False,False,False,1035.7438487,None,1035.7438487,None,1035.7438487,None,1035.7438487,None,1035.7438487,None,1035.7438487,None,1035.7438487,None,1035.7438487,None,1036.7585154000008,None,1036.7585154000008,None,2,c,,,,,,,,,,,,,,,,,,11_12,001,2021_Feb_24_1329,ComputerHuman,2020.1.3,59.987174742368445,
Sychronize.jpg,Number10.jpg,,Computer,Computer.xlsx,2,c,10,,,,,0,2,2,7,0,3,3,8,,,,,,,,,,,,,,,,,,,,,,,,,,,,,,,,,,,,,,,,,,,,,,,,,,,,,,,,,,,,,1037.7829901000005,None,1037.7829901000005,None,1038.2567574999994,None,1038.2567574999994,None,"['v', 't']","[8.33707719999984, 10.57310139999936]",1038.2567574999994,None,8.33707719999984,10.57310139999936,10,False,False,False,1050.58367,None,1050.58367,None,1050.58367,None,1050.58367,None,1050.58367,None,1050.58367,None,1050.58367,None,1050.58367,None,1051.593347599999,None,1051.593347599999,None,2,c,,,,,,,,,,,,,,,,,,11_12,001,2021_Feb_24_1329,ComputerHuman,2020.1.3,59.987174742368445,
Sychronize.jpg,Number6.jpg,,Computer,Computer.xlsx,2,c,6,,,,,0,2,2,7,0,4,4,1,,,,,,,,,,,,,,,,,,,,,,,,,,,,,,,,,,,,,,,,,,,,,,,,,,,,,,,,,,,,,1052.6126175999998,None,1052.6126175999998,None,1053.1111483999994,None,1053.1111483999994,None,"['v', 't']","[5.99068029999944, 7.814888599999904]",1053.1111483999994,None,5.99068029999944,7.814888599999904,6,False,False,False,1063.4195906999994,None,1063.4195906999994,None,1063.4195906999994,None,1063.4195906999994,None,1063.4195906999994,None,1063.4195906999994,None,1063.4195906999994,None,1063.4195906999994,None,1064.4293565999997,None,1064.4293565999997,None,2,c,,,,,,,,,,,,,,,,,,11_12,001,2021_Feb_24_1329,ComputerHuman,2020.1.3,59.987174742368445,
Sychronize.jpg,Number7.jpg,,Computer,Computer.xlsx,2,c,7,,,,,0,2,2,7,0,5,5,3,,,,,,,,,,,,,,,,,,,,,,,,,,,,,,,,,,,,,,,,,,,,,,,,,,,,,,,,,,,,,1065.4538744000001,None,1065.4538744000001,None,1065.9288097999997,None,1065.9288097999997,None,"['v', 't']","[5.505121199999849, 6.641003000000637]",1065.9288097999997,None,5.505121199999849,6.641003000000637,7,False,False,False,1074.679625499999,None,1074.679625499999,None,1074.679625499999,None,1074.679625499999,None,1074.679625499999,None,1074.679625499999,None,1074.679625499999,None,1074.679625499999,None,1075.6821395000006,None,1075.6821395000006,None,2,c,,,,,,,,,,,,,,,,,,11_12,001,2021_Feb_24_1329,ComputerHuman,2020.1.3,59.987174742368445,
Sychronize.jpg,Number7.jpg,,Computer,Computer.xlsx,2,c,7,,,,,0,2,2,7,0,6,6,2,,,,,,,,,,,,,,,,,,,,,,,,,,,,,,,,,,,,,,,,,,,,,,,,,,,,,,,,,,,,,1076.7013625,None,1076.7013625,None,1077.1795927999992,None,1077.1795927999992,None,"['t', 'v']","[6.073999000000185, 7.146246000000247]",1077.1795927999992,None,7.146246000000247,6.073999000000185,7,False,False,False,1087.2864353000004,None,1087.2864353000004,None,1087.2864353000004,None,1087.2864353000004,None,1087.2864353000004,None,1087.2864353000004,None,1087.2864353000004,None,1087.2864353000004,None,1088.3016640000005,None,1088.3016640000005,None,2,c,,,,,,,,,,,,,,,,,,11_12,001,2021_Feb_24_1329,ComputerHuman,2020.1.3,59.987174742368445,
Sychronize.jpg,Number6.jpg,,Computer,Computer.xlsx,2,c,6,,,,,0,2,2,7,0,7,7,0,,,,,,,,,,,,,,,,,,,,,,,,,,,,,,,,,,,,,,,,,,,,,,,,,,,,,,,,,,,,,1089.3259027999993,None,1089.3259027999993,None,1089.8001253000002,None,1089.8001253000002,None,"['v', 't']","[4.941650599999775, 6.041658299998744]",1089.8001253000002,None,4.941650599999775,6.041658299998744,6,False,False,False,1097.5174239999997,None,1097.5174239999997,None,1097.5174239999997,None,1097.5174239999997,None,1097.5174239999997,None,1097.5174239999997,None,1097.5174239999997,None,1097.5174239999997,None,1098.5361943000007,None,1098.5361943000007,None,2,c,,,,,,,,,,,,,,,,,,11_12,001,2021_Feb_24_1329,ComputerHuman,2020.1.3,59.987174742368445,
Sychronize.jpg,Number10.jpg,,Computer,Computer.xlsx,2,c,10,,,,,0,2,2,7,0,8,8,9,,,,,,,,,,,,,,,,,,,,,,,,,,,,,,,,,,,,,,,,,,,,,,,,,,,,,,,,,,,,,1099.5433035999995,None,1099.5433035999995,None,1100.0354664999995,None,1100.0354664999995,None,"['v', 't']","[7.326591900000494, 9.228581699999268]",1100.0354664999995,None,7.326591900000494,9.228581699999268,10,False,False,False,1111.5255555999993,None,1111.5255555999993,None,1111.5255555999993,None,1111.5255555999993,None,1111.5255555999993,None,1111.5255555999993,None,1111.5255555999993,None,1111.5255555999993,None,1112.5406638000004,None,1112.5406638000004,None,2,c,,,,,,,,,,,,,,,,,,11_12,001,2021_Feb_24_1329,ComputerHuman,2020.1.3,59.987174742368445,
Sychronize.jpg,Number9.jpg,,Computer,Computer.xlsx,2,c,9,,,,,0,2,2,7,0,9,9,7,,,,,,,,,,,,,,,,,,,,,,,,,,,,,,,,,,,,,,,,,,,,,,,,,,,,,,,,,,,,,1113.5627287999996,None,1113.5627287999996,None,1114.0383230999996,None,1114.0383230999996,None,"['v', 't']","[5.975630400000227, 7.223152600001413]",1114.0383230999996,None,5.975630400000227,7.223152600001413,9,False,False,False,1123.6229647,None,1123.6229647,None,1123.6229647,None,1123.6229647,None,1123.6229647,None,1123.6229647,None,1123.6229647,None,1123.6229647,None,1124.6422901000005,None,1124.6422901000005,None,2,c,,,,,,,,,,,,,,,,,,11_12,001,2021_Feb_24_1329,ComputerHuman,2020.1.3,59.987174742368445,
,,,,Computer.xlsx,2,c,,,,,,0,2,2,7,,,,,,,,,,,,,,,,,,,,,,,,,,,,,,,,,,,,,,,,,,,,,,,,,,,,,,,,,,,,,,,,,,,,,,,,,,,,,,,,,,,,,,,,,,,,,,,,,,,,,,,2,c,1125.6241537000005,None,h,0,5.5001069999998435,1126.6210613999992,None,1132.1479811000008,None,None,None,None,None,None,,,,11_12,001,2021_Feb_24_1329,ComputerHuman,2020.1.3,59.987174742368445,
Sychronize.jpg,Number10.jpg,,Computer,Computer.xlsx,1,c,10,,,,,0,3,3,3,0,0,0,9,,,,,,,,,,,,,,,,,,,,,,,,,,,,,,,,,,,,,,,,,,,,,,,,,,,,,,,,,1137.1605901000003,None,1137.1605901000003,None,1140.1965875999995,None,1140.1965875999995,None,1140.6756000999994,None,1140.6756000999994,None,"['v', 't']","[6.794092599999203, 8.240525100000013]",1140.6756000999994,None,6.794092599999203,8.240525100000013,10,False,False,False,1150.8159885000005,None,1150.8159885000005,None,1150.8159885000005,None,1150.8159885000005,None,1150.8159885000005,None,1150.8159885000005,None,1150.8159885000005,None,1150.8159885000005,None,1151.8306014999998,None,1151.8306014999998,None,1,c,,,,,,,,,,,,,,,,,,11_12,001,2021_Feb_24_1329,ComputerHuman,2020.1.3,59.987174742368445,
Sychronize.jpg,Number7.jpg,,Computer,Computer.xlsx,1,c,7,,,,,0,3,3,3,0,1,1,2,,,,,,,,,,,,,,,,,,,,,,,,,,,,,,,,,,,,,,,,,,,,,,,,,,,,,,,,,,,,,1152.8570039999995,None,1152.8570039999995,None,1153.3295889,None,1153.3295889,None,"['v', 't']","[5.856141199999911, 6.83581569999842]",1153.3295889,None,5.856141199999911,6.83581569999842,7,False,False,False,1162.1701721999998,None,1162.1701721999998,None,1162.1701721999998,None,1162.1701721999998,None,1162.1701721999998,None,1162.1701721999998,None,1162.1701721999998,None,1162.1701721999998,None,1163.1835842,None,1163.1835842,None,1,c,,,,,,,,,,,,,,,,,,11_12,001,2021_Feb_24_1329,ComputerHuman,2020.1.3,59.987174742368445,
Sychronize.jpg,Number9.jpg,,Computer,Computer.xlsx,1,c,9,,,,,0,3,3,3,0,2,2,6,,,,,,,,,,,,,,,,,,,,,,,,,,,,,,,,,,,,,,,,,,,,,,,,,,,,,,,,,,,,,1164.2024359999996,None,1164.2024359999996,None,1164.6821753999993,None,1164.6821753999993,None,"['v', 't']","[7.923482100000911, 9.174588500000027]",1164.6821753999993,None,7.923482100000911,9.174588500000027,9,False,False,False,1176.0760324000003,None,1176.0760324000003,None,1176.0760324000003,None,1176.0760324000003,None,1176.0760324000003,None,1176.0760324000003,None,1176.0760324000003,None,1176.0760324000003,None,1177.0868255999994,None,1177.0868255999994,None,1,c,,,,,,,,,,,,,,,,,,11_12,001,2021_Feb_24_1329,ComputerHuman,2020.1.3,59.987174742368445,
Sychronize.jpg,Number7.jpg,,Computer,Computer.xlsx,1,c,7,,,,,0,3,3,3,0,3,3,3,,,,,,,,,,,,,,,,,,,,,,,,,,,,,,,,,,,,,,,,,,,,,,,,,,,,,,,,,,,,,1178.1051955999992,None,1178.1051955999992,None,1178.5835212000002,None,1178.5835212000002,None,"['v', 't']","[5.810210100000404, 8.086340500000006]",1178.5835212000002,None,5.810210100000404,8.086340500000006,7,False,False,False,1188.5587023999997,None,1188.5587023999997,None,1188.5587023999997,None,1188.5587023999997,None,1188.5587023999997,None,1188.5587023999997,None,1188.5587023999997,None,1188.5587023999997,None,1189.5714945,None,1189.5714945,None,1,c,,,,,,,,,,,,,,,,,,11_12,001,2021_Feb_24_1329,ComputerHuman,2020.1.3,59.987174742368445,
Sychronize.jpg,Number6.jpg,,Computer,Computer.xlsx,1,c,6,,,,,0,3,3,3,0,4,4,0,,,,,,,,,,,,,,,,,,,,,,,,,,,,,,,,,,,,,,,,,,,,,,,,,,,,,,,,,,,,,1190.596838899999,None,1190.596838899999,None,1191.0707552999993,None,1191.0707552999993,None,"['t', 'v']","[6.6067622999999, 8.022022700000889]",1191.0707552999993,None,8.022022700000889,6.6067622999999,6,False,False,False,1201.5601219,None,1201.5601219,None,1201.5601219,None,1201.5601219,None,1201.5601219,None,1201.5601219,None,1201.5601219,None,1201.5601219,None,1202.5742315999996,None,1202.5742315999996,None,1,c,,,,,,,,,,,,,,,,,,11_12,001,2021_Feb_24_1329,ComputerHuman,2020.1.3,59.987174742368445,
Sychronize.jpg,Number6.jpg,,Computer,Computer.xlsx,1,c,6,,,,,0,3,3,3,0,5,5,1,,,,,,,,,,,,,,,,,,,,,,,,,,,,,,,,,,,,,,,,,,,,,,,,,,,,,,,,,,,,,1203.597477199999,None,1203.597477199999,None,1204.0732131000004,None,1204.0732131000004,None,"['v', 't']","[4.36014780000005, 7.088481700000557]",1204.0732131000004,None,4.36014780000005,7.088481700000557,6,False,False,False,1212.7312765999995,None,1212.7312765999995,None,1212.7312765999995,None,1212.7312765999995,None,1212.7312765999995,None,1212.7312765999995,None,1212.7312765999995,None,1212.7312765999995,None,1213.7431739000003,None,1213.7431739000003,None,1,c,,,,,,,,,,,,,,,,,,11_12,001,2021_Feb_24_1329,ComputerHuman,2020.1.3,59.987174742368445,
Sychronize.jpg,Number9.jpg,,Computer,Computer.xlsx,1,c,9,,,,,0,3,3,3,0,6,6,7,,,,,,,,,,,,,,,,,,,,,,,,,,,,,,,,,,,,,,,,,,,,,,,,,,,,,,,,,,,,,1214.7683386000008,None,1214.7683386000008,None,1215.242040699999,None,1215.242040699999,None,"['v', 't']","[5.798151199998756, 9.17974409999988]",1215.242040699999,None,5.798151199998756,9.17974409999988,9,False,False,False,1226.0363744999995,None,1226.0363744999995,None,1226.0363744999995,None,1226.0363744999995,None,1226.0363744999995,None,1226.0363744999995,None,1226.0363744999995,None,1226.0363744999995,None,1227.0473641000008,None,1227.0473641000008,None,1,c,,,,,,,,,,,,,,,,,,11_12,001,2021_Feb_24_1329,ComputerHuman,2020.1.3,59.987174742368445,
Sychronize.jpg,Number8.jpg,,Computer,Computer.xlsx,1,c,8,,,,,0,3,3,3,0,7,7,4,,,,,,,,,,,,,,,,,,,,,,,,,,,,,,,,,,,,,,,,,,,,,,,,,,,,,,,,,,,,,1228.065802699999,None,1228.065802699999,None,1228.5447036000005,None,1228.5447036000005,None,"['v', 't']","[6.89286009999887, 8.256888399999298]",1228.5447036000005,None,6.89286009999887,8.256888399999298,8,False,False,False,1239.0183527999998,None,1239.0183527999998,None,1239.0183527999998,None,1239.0183527999998,None,1239.0183527999998,None,1239.0183527999998,None,1239.0183527999998,None,1239.0183527999998,None,1240.0515742999996,None,1240.0515742999996,None,1,c,,,,,,,,,,,,,,,,,,11_12,001,2021_Feb_24_1329,ComputerHuman,2020.1.3,59.987174742368445,
Sychronize.jpg,Number10.jpg,,Computer,Computer.xlsx,1,c,10,,,,,0,3,3,3,0,8,8,8,,,,,,,,,,,,,,,,,,,,,,,,,,,,,,,,,,,,,,,,,,,,,,,,,,,,,,,,,,,,,1241.0512775999996,None,1241.0512775999996,None,1241.5294577000004,None,1241.5294577000004,None,"['v', 't']","[8.30453320000015, 10.612147499999992]",1241.5294577000004,None,8.30453320000015,10.612147499999992,10,False,False,False,1254.5663318000006,None,1254.5663318000006,None,1254.5663318000006,None,1254.5663318000006,None,1254.5663318000006,None,1254.5663318000006,None,1254.5663318000006,None,1254.5663318000006,None,1255.5847936999999,None,1255.5847936999999,None,1,c,,,,,,,,,,,,,,,,,,11_12,001,2021_Feb_24_1329,ComputerHuman,2020.1.3,59.987174742368445,
Sychronize.jpg,Number8.jpg,,Computer,Computer.xlsx,1,c,8,,,,,0,3,3,3,0,9,9,5,,,,,,,,,,,,,,,,,,,,,,,,,,,,,,,,,,,,,,,,,,,,,,,,,,,,,,,,,,,,,1256.6039029999993,None,1256.6039029999993,None,1257.1054836999992,None,1257.1054836999992,None,"['v', 't']","[6.132082299998729, 8.30019959999845]",1257.1054836999992,None,6.132082299998729,8.30019959999845,8,False,False,False,1267.0284431,None,1267.0284431,None,1267.0284431,None,1267.0284431,None,1267.0284431,None,1267.0284431,None,1267.0284431,None,1267.0284431,None,1268.0370003000007,None,1268.0370003000007,None,1,c,,,,,,,,,,,,,,,,,,11_12,001,2021_Feb_24_1329,ComputerHuman,2020.1.3,59.987174742368445,
,,,,Computer.xlsx,1,c,,,,,,0,3,3,3,,,,,,,,,,,,,,,,,,,,,,,,,,,,,,,,,,,,,,,,,,,,,,,,,,,,,,,,,,,,,,,,,,,,,,,,,,,,,,,,,,,,,,,,,,,,,,,,,,,,,,,1,c,1269.0357148000003,None,c,1,1.2643834999998944,1270.0332008999994,None,None,None,1271.3270295999992,None,"['space', 'space']",1272.316901099999,None,"[1.4191758000015398, 5.443113400000584]",,,11_12,001,2021_Feb_24_1329,ComputerHuman,2020.1.3,59.987174742368445,
Sychronize.jpg,Number10.jpg,,Human,Human.xlsx,2,h,10,,,,,0,4,4,4,0,0,0,8,,,,,,,,,,,,,,,,,,,,,,,,,,,,,,,,,,,,,,,,,,,,,,,,,,,,,,,,,1277.8073203000004,None,1277.8073203000004,None,1280.8256598000007,None,1280.8256598000007,None,1281.3041763,None,1281.3041763,None,"['v', 't']","[8.387873499999841, 10.269177199999831]",1281.3041763,None,8.387873499999841,10.269177199999831,10,False,False,False,1293.8480165,None,1293.8480165,None,1293.8480165,None,1293.8480165,None,1293.8480165,None,1293.8480165,None,1293.8480165,None,1293.8480165,None,1294.8428537,None,1294.8428537,None,2,h,,,,,,,,,,,,,,,,,,11_12,001,2021_Feb_24_1329,ComputerHuman,2020.1.3,59.987174742368445,
Sychronize.jpg,Number10.jpg,,Human,Human.xlsx,2,h,10,,,,,0,4,4,4,0,1,1,9,,,,,,,,,,,,,,,,,,,,,,,,,,,,,,,,,,,,,,,,,,,,,,,,,,,,,,,,,,,,,1295.8676331000006,None,1295.8676331000006,None,1296.3406811999994,None,1296.3406811999994,None,"['v', 't']","[8.16468729999906, 9.72467130000041]",1296.3406811999994,None,8.16468729999906,9.72467130000041,10,False,False,False,1308.1358803000003,None,1308.1358803000003,None,1308.1358803000003,None,1308.1358803000003,None,1308.1358803000003,None,1308.1358803000003,None,1308.1358803000003,None,1308.1358803000003,None,1309.145998,None,1309.145998,None,2,h,,,,,,,,,,,,,,,,,,11_12,001,2021_Feb_24_1329,ComputerHuman,2020.1.3,59.987174742368445,
Sychronize.jpg,Number9.jpg,,Human,Human.xlsx,2,h,9,,,,,0,4,4,4,0,2,2,6,,,,,,,,,,,,,,,,,,,,,,,,,,,,,,,,,,,,,,,,,,,,,,,,,,,,,,,,,,,,,1310.1723285000007,None,1310.1723285000007,None,1310.6451562999991,None,1310.6451562999991,None,"['t', 'v']","[7.544533099999171, 7.7795962000000145]",1310.6451562999991,None,7.7795962000000145,7.544533099999171,9,False,False,False,1321.3861655,None,1321.3861655,None,1321.3861655,None,1321.3861655,None,1321.3861655,None,1321.3861655,None,1321.3861655,None,1321.3861655,None,1322.4210426999998,None,1322.4210426999998,None,2,h,,,,,,,,,,,,,,,,,,11_12,001,2021_Feb_24_1329,ComputerHuman,2020.1.3,59.987174742368445,
Sychronize.jpg,Number7.jpg,,Human,Human.xlsx,2,h,7,,,,,0,4,4,4,0,3,3,2,,,,,,,,,,,,,,,,,,,,,,,,,,,,,,,,,,,,,,,,,,,,,,,,,,,,,,,,,,,,,1323.4233543999999,None,1323.4233543999999,None,1323.8973313999995,None,1323.8973313999995,None,"['v', 't']","[5.944386299999678, 6.612425299999813]",1323.8973313999995,None,5.944386299999678,6.612425299999813,7,False,False,False,1332.4366843000007,None,1332.4366843000007,None,1332.4366843000007,None,1332.4366843000007,None,1332.4366843000007,None,1332.4366843000007,None,1332.4366843000007,None,1332.4366843000007,None,1333.4502546999993,None,1333.4502546999993,None,2,h,,,,,,,,,,,,,,,,,,11_12,001,2021_Feb_24_1329,ComputerHuman,2020.1.3,59.987174742368445,
Sychronize.jpg,Number6.jpg,,Human,Human.xlsx,2,h,6,,,,,0,4,4,4,0,4,4,0,,,,,,,,,,,,,,,,,,,,,,,,,,,,,,,,,,,,,,,,,,,,,,,,,,,,,,,,,,,,,1334.469615,None,1334.469615,None,1334.9496015999994,None,1334.9496015999994,None,"['t', 'v']","[4.594303599998966, 5.132022499999948]",1334.9496015999994,None,5.132022499999948,4.594303599998966,6,False,False,False,1343.7332291999992,None,1343.7332291999992,None,1343.7332291999992,None,1343.7332291999992,None,1343.7332291999992,None,1343.7332291999992,None,1343.7332291999992,None,1343.7332291999992,None,1344.7536705999992,None,1344.7536705999992,None,2,h,,,,,,,,,,,,,,,,,,11_12,001,2021_Feb_24_1329,ComputerHuman,2020.1.3,59.987174742368445,
Sychronize.jpg,Number8.jpg,,Human,Human.xlsx,2,h,8,,,,,0,4,4,4,0,5,5,4,,,,,,,,,,,,,,,,,,,,,,,,,,,,,,,,,,,,,,,,,,,,,,,,,,,,,,,,,,,,,1345.7609706999992,None,1345.7609706999992,None,1346.2352272999997,None,1346.2352272999997,None,"['v', 't']","[5.858076200000141, 6.858579499999905]",1346.2352272999997,None,5.858076200000141,6.858579499999905,8,False,False,False,1354.8022713999999,None,1354.8022713999999,None,1354.8022713999999,None,1354.8022713999999,None,1354.8022713999999,None,1354.8022713999999,None,1354.8022713999999,None,1354.8022713999999,None,1355.8217846000007,None,1355.8217846000007,None,2,h,,,,,,,,,,,,,,,,,,11_12,001,2021_Feb_24_1329,ComputerHuman,2020.1.3,59.987174742368445,
Sychronize.jpg,Number7.jpg,,Human,Human.xlsx,2,h,7,,,,,0,4,4,4,0,6,6,3,,,,,,,,,,,,,,,,,,,,,,,,,,,,,,,,,,,,,,,,,,,,,,,,,,,,,,,,,,,,,1356.8307919,None,1356.8307919,None,1357.3210395999995,None,1357.3210395999995,None,"['v', 't']","[5.935556699998415, 5.947126799999751]",1357.3210395999995,None,5.935556699998415,5.947126799999751,7,False,False,False,1364.8271726000003,None,1364.8271726000003,None,1364.8271726000003,None,1364.8271726000003,None,1364.8271726000003,None,1364.8271726000003,None,1364.8271726000003,None,1364.8271726000003,None,1365.8412174999994,None,1365.8412174999994,None,2,h,,,,,,,,,,,,,,,,,,11_12,001,2021_Feb_24_1329,ComputerHuman,2020.1.3,59.987174742368445,
Sychronize.jpg,Number8.jpg,,Human,Human.xlsx,2,h,8,,,,,0,4,4,4,0,7,7,5,,,,,,,,,,,,,,,,,,,,,,,,,,,,,,,,,,,,,,,,,,,,,,,,,,,,,,,,,,,,,1366.8432171000004,None,1366.8432171000004,None,1367.3382194000005,None,1367.3382194000005,None,['v'],[6.10704590000023],1367.3382194000005,None,6.10704590000023,13,8,False,False,False,1380.3841771999996,None,1380.3841771999996,None,1380.3841771999996,None,1380.3841771999996,None,1380.3841771999996,None,1380.3841771999996,None,1380.3841771999996,None,1380.3841771999996,None,1381.3768598000006,None,1381.3768598000006,None,2,h,,,,,,,,,,,,,,,,,,11_12,001,2021_Feb_24_1329,ComputerHuman,2020.1.3,59.987174742368445,
Sychronize.jpg,Number9.jpg,,Human,Human.xlsx,2,h,9,,,,,0,4,4,4,0,8,8,7,,,,,,,,,,,,,,,,,,,,,,,,,,,,,,,,,,,,,,,,,,,,,,,,,,,,,,,,,,,,,1382.3963332999992,None,1382.3963332999992,None,1382.8759635000006,None,1382.8759635000006,None,"['t', 'v']","[5.135953500001051, 6.5807447000006505]",1382.8759635000006,None,6.5807447000006505,5.135953500001051,9,False,False,False,1391.9151877999993,None,1391.9151877999993,None,1391.9151877999993,None,1391.9151877999993,None,1391.9151877999993,None,1391.9151877999993,None,1391.9151877999993,None,1391.9151877999993,None,1392.9290412999999,None,1392.9290412999999,None,2,h,,,,,,,,,,,,,,,,,,11_12,001,2021_Feb_24_1329,ComputerHuman,2020.1.3,59.987174742368445,
Sychronize.jpg,Number6.jpg,,Human,Human.xlsx,2,h,6,,,,,0,4,4,4,0,9,9,1,,,,,,,,,,,,,,,,,,,,,,,,,,,,,,,,,,,,,,,,,,,,,,,,,,,,,,,,,,,,,1393.9482962999991,None,1393.9482962999991,None,1394.4469711000002,None,1394.4469711000002,None,"['t', 'v']","[4.286622199999329, 5.8064406999983476]",1394.4469711000002,None,5.8064406999983476,4.286622199999329,6,False,False,False,1402.4200853000002,None,1402.4200853000002,None,1402.4200853000002,None,1402.4200853000002,None,1402.4200853000002,None,1402.4200853000002,None,1402.4200853000002,None,1402.4200853000002,None,1403.4146567999996,None,1403.4146567999996,None,2,h,,,,,,,,,,,,,,,,,,11_12,001,2021_Feb_24_1329,ComputerHuman,2020.1.3,59.987174742368445,
,,,,Human.xlsx,2,h,,,,,,0,4,4,4,,,,,,,,,,,,,,,,,,,,,,,,,,,,,,,,,,,,,,,,,,,,,,,,,,,,,,,,,,,,,,,,,,,,,,,,,,,,,,,,,,,,,,,,,,,,,,,,,,,,,,,2,h,1404.4139035999997,None,h,1,1.8789950000009412,1405.4106233999992,None,1407.3198603,None,None,None,None,None,None,,,,11_12,001,2021_Feb_24_1329,ComputerHuman,2020.1.3,59.987174742368445,
Sychronize.jpg,Number6.jpg,,Computer,Computer.xlsx,2,c,6,,,,,0,5,5,5,0,0,0,0,,,,,,,,,,,,,,,,,,,,,,,,,,,,,,,,,,,,,,,,,,,,,,,,,,,,,,,,,1412.3344610000004,None,1412.3344610000004,None,1415.3820742000007,None,1415.3820742000007,None,1415.8498786,None,1415.8498786,None,"['t', 'v']","[4.219631399999344, 4.415882499999498]",1415.8498786,None,4.415882499999498,4.219631399999344,6,False,False,False,1423.4784820999994,None,1423.4784820999994,None,1423.4784820999994,None,1423.4784820999994,None,1423.4784820999994,None,1423.4784820999994,None,1423.4784820999994,None,1423.4784820999994,None,1424.4853146000005,None,1424.4853146000005,None,2,c,,,,,,,,,,,,,,,,,,11_12,001,2021_Feb_24_1329,ComputerHuman,2020.1.3,59.987174742368445,
Sychronize.jpg,Number10.jpg,,Computer,Computer.xlsx,2,c,10,,,,,0,5,5,5,0,1,1,9,,,,,,,,,,,,,,,,,,,,,,,,,,,,,,,,,,,,,,,,,,,,,,,,,,,,,,,,,,,,,1425.5124926000008,None,1425.5124926000008,None,1425.9850587,None,1425.9850587,None,"['v', 't']","[7.272780999999668, 9.076659299998937]",1425.9850587,None,7.272780999999668,9.076659299998937,10,False,False,False,1436.9605038999998,None,1436.9605038999998,None,1436.9605038999998,None,1436.9605038999998,None,1436.9605038999998,None,1436.9605038999998,None,1436.9605038999998,None,1436.9605038999998,None,1437.9725770999994,None,1437.9725770999994,None,2,c,,,,,,,,,,,,,,,,,,11_12,001,2021_Feb_24_1329,ComputerHuman,2020.1.3,59.987174742368445,
Sychronize.jpg,Number6.jpg,,Computer,Computer.xlsx,2,c,6,,,,,0,5,5,5,0,2,2,1,,,,,,,,,,,,,,,,,,,,,,,,,,,,,,,,,,,,,,,,,,,,,,,,,,,,,,,,,,,,,1438.9981449000006,None,1438.9981449000006,None,1439.4710223999991,None,1439.4710223999991,None,"['t', 'v']","[4.626594900000782, 4.947017700000288]",1439.4710223999991,None,4.947017700000288,4.626594900000782,6,False,False,False,1447.7880986,None,1447.7880986,None,1447.7880986,None,1447.7880986,None,1447.7880986,None,1447.7880986,None,1447.7880986,None,1447.7880986,None,1448.8070845000002,None,1448.8070845000002,None,2,c,,,,,,,,,,,,,,,,,,11_12,001,2021_Feb_24_1329,ComputerHuman,2020.1.3,59.987174742368445,
Sychronize.jpg,Number7.jpg,,Computer,Computer.xlsx,2,c,7,,,,,0,5,5,5,0,3,3,3,,,,,,,,,,,,,,,,,,,,,,,,,,,,,,,,,,,,,,,,,,,,,,,,,,,,,,,,,,,,,1449.8149224999997,None,1449.8149224999997,None,1450.3065160999995,None,1450.3065160999995,None,"['t', 'v']","[5.357418300000063, 6.089291899999807]",1450.3065160999995,None,6.089291899999807,5.357418300000063,7,False,False,False,1460.0607638000001,None,1460.0607638000001,None,1460.0607638000001,None,1460.0607638000001,None,1460.0607638000001,None,1460.0607638000001,None,1460.0607638000001,None,1460.0607638000001,None,1461.0772144999992,None,1461.0772144999992,None,2,c,,,,,,,,,,,,,,,,,,11_12,001,2021_Feb_24_1329,ComputerHuman,2020.1.3,59.987174742368445,
Sychronize.jpg,Number10.jpg,,Computer,Computer.xlsx,2,c,10,,,,,0,5,5,5,0,4,4,8,,,,,,,,,,,,,,,,,,,,,,,,,,,,,,,,,,,,,,,,,,,,,,,,,,,,,,,,,,,,,1462.0955073000005,None,1462.0955073000005,None,1462.5753564000006,None,1462.5753564000006,None,"['v', 't']","[5.5817474000014045, 8.426007500000196]",1462.5753564000006,None,5.5817474000014045,8.426007500000196,10,False,False,False,1473.4844933000004,None,1473.4844933000004,None,1473.4844933000004,None,1473.4844933000004,None,1473.4844933000004,None,1473.4844933000004,None,1473.4844933000004,None,1473.4844933000004,None,1474.4955773000001,None,1474.4955773000001,None,2,c,,,,,,,,,,,,,,,,,,11_12,001,2021_Feb_24_1329,ComputerHuman,2020.1.3,59.987174742368445,
Sychronize.jpg,Number8.jpg,,Computer,Computer.xlsx,2,c,8,,,,,0,5,5,5,0,5,5,5,,,,,,,,,,,,,,,,,,,,,,,,,,,,,,,,,,,,,,,,,,,,,,,,,,,,,,,,,,,,,1475.5208865999994,None,1475.5208865999994,None,1475.9949082999992,None,1475.9949082999992,None,"['t', 'v']","[6.270434099998965, 6.653542699999889]",1475.9949082999992,None,6.653542699999889,6.270434099998965,8,False,False,False,1487.1408551000004,None,1487.1408551000004,None,1487.1408551000004,None,1487.1408551000004,None,1487.1408551000004,None,1487.1408551000004,None,1487.1408551000004,None,1487.1408551000004,None,1488.1484947999998,None,1488.1484947999998,None,2,c,,,,,,,,,,,,,,,,,,11_12,001,2021_Feb_24_1329,ComputerHuman,2020.1.3,59.987174742368445,
Sychronize.jpg,Number9.jpg,,Computer,Computer.xlsx,2,c,9,,,,,0,5,5,5,0,6,6,7,,,,,,,,,,,,,,,,,,,,,,,,,,,,,,,,,,,,,,,,,,,,,,,,,,,,,,,,,,,,,1489.1727489999994,None,1489.1727489999994,None,1489.6475116000001,None,1489.6475116000001,None,"['v', 't']","[5.9898935000001075, 7.3654600999998365]",1489.6475116000001,None,5.9898935000001075,7.3654600999998365,9,False,False,False,1499.4526081999993,None,1499.4526081999993,None,1499.4526081999993,None,1499.4526081999993,None,1499.4526081999993,None,1499.4526081999993,None,1499.4526081999993,None,1499.4526081999993,None,1500.4691598999998,None,1500.4691598999998,None,2,c,,,,,,,,,,,,,,,,,,11_12,001,2021_Feb_24_1329,ComputerHuman,2020.1.3,59.987174742368445,
Sychronize.jpg,Number8.jpg,,Computer,Computer.xlsx,2,c,8,,,,,0,5,5,5,0,7,7,4,,,,,,,,,,,,,,,,,,,,,,,,,,,,,,,,,,,,,,,,,,,,,,,,,,,,,,,,,,,,,1501.4912788000001,None,1501.4912788000001,None,1501.9668469000007,None,1501.9668469000007,None,"['v', 't']","[5.8737727000007, 6.786517200000162]",1501.9668469000007,None,5.8737727000007,6.786517200000162,8,False,False,False,1510.3588397000003,None,1510.3588397000003,None,1510.3588397000003,None,1510.3588397000003,None,1510.3588397000003,None,1510.3588397000003,None,1510.3588397000003,None,1510.3588397000003,None,1511.3698196000005,None,1511.3698196000005,None,2,c,,,,,,,,,,,,,,,,,,11_12,001,2021_Feb_24_1329,ComputerHuman,2020.1.3,59.987174742368445,
Sychronize.jpg,Number9.jpg,,Computer,Computer.xlsx,2,c,9,,,,,0,5,5,5,0,8,8,6,,,,,,,,,,,,,,,,,,,,,,,,,,,,,,,,,,,,,,,,,,,,,,,,,,,,,,,,,,,,,1512.3940555000008,None,1512.3940555000008,None,1512.8691856999994,None,1512.8691856999994,None,"['v', 't']","[6.696236499999941, 7.724293500001295]",1512.8691856999994,None,6.696236499999941,7.724293500001295,9,False,False,False,1522.6905637,None,1522.6905637,None,1522.6905637,None,1522.6905637,None,1522.6905637,None,1522.6905637,None,1522.6905637,None,1522.6905637,None,1523.7056661999995,None,1523.7056661999995,None,2,c,,,,,,,,,,,,,,,,,,11_12,001,2021_Feb_24_1329,ComputerHuman,2020.1.3,59.987174742368445,
Sychronize.jpg,Number7.jpg,,Computer,Computer.xlsx,2,c,7,,,,,0,5,5,5,0,9,9,2,,,,,,,,,,,,,,,,,,,,,,,,,,,,,,,,,,,,,,,,,,,,,,,,,,,,,,,,,,,,,1524.7301724000008,None,1524.7301724000008,None,1525.2047647,None,1525.2047647,None,"['v', 't']","[6.9635743999988335, 7.673071699999127]",1525.2047647,None,6.9635743999988335,7.673071699999127,7,False,False,False,1534.6762751999995,None,1534.6762751999995,None,1534.6762751999995,None,1534.6762751999995,None,1534.6762751999995,None,1534.6762751999995,None,1534.6762751999995,None,1534.6762751999995,None,1535.6912732,None,1535.6912732,None,2,c,,,,,,,,,,,,,,,,,,11_12,001,2021_Feb_24_1329,ComputerHuman,2020.1.3,59.987174742368445,
,,,,Computer.xlsx,2,c,,,,,,0,5,5,5,,,,,,,,,,,,,,,,,,,,,,,,,,,,,,,,,,,,,,,,,,,,,,,,,,,,,,,,,,,,,,,,,,,,,,,,,,,,,,,,,,,,,,,,,,,,,,,,,,,,,,,2,c,1536.6896988000008,None,c,1,1.8734806000011304,1537.6875108000004,None,1539.5952766999999,None,None,None,None,None,None,,,,11_12,001,2021_Feb_24_1329,ComputerHuman,2020.1.3,59.987174742368445,
Sychronize.jpg,Number7.jpg,,Computer,Computer.xlsx,1,c,7,,,,,0,6,6,1,0,0,0,3,,,,,,,,,,,,,,,,,,,,,,,,,,,,,,,,,,,,,,,,,,,,,,,,,,,,,,,,,1544.6294034999992,None,1544.6294034999992,None,1547.6451369000006,None,1547.6451369000006,None,1548.1306351999992,None,1548.1306351999992,None,"['v', 't']","[5.506856199999675, 8.322612599999047]",1548.1306351999992,None,5.506856199999675,8.322612599999047,7,False,False,False,1558.6144882999997,None,1558.6144882999997,None,1558.6144882999997,None,1558.6144882999997,None,1558.6144882999997,None,1558.6144882999997,None,1558.6144882999997,None,1558.6144882999997,None,1559.6303224999992,None,1559.6303224999992,None,1,c,,,,,,,,,,,,,,,,,,11_12,001,2021_Feb_24_1329,ComputerHuman,2020.1.3,59.987174742368445,
Sychronize.jpg,Number10.jpg,,Computer,Computer.xlsx,1,c,10,,,,,0,6,6,1,0,1,1,8,,,,,,,,,,,,,,,,,,,,,,,,,,,,,,,,,,,,,,,,,,,,,,,,,,,,,,,,,,,,,1560.6485823999992,None,1560.6485823999992,None,1561.1274756999992,None,1561.1274756999992,None,"['v', 't']","[7.578072400001474, 8.973926600001505]",1561.1274756999992,None,7.578072400001474,8.973926600001505,10,False,False,False,1572.3359615999998,None,1572.3359615999998,None,1572.3359615999998,None,1572.3359615999998,None,1572.3359615999998,None,1572.3359615999998,None,1572.3359615999998,None,1572.3359615999998,None,1573.3495490000005,None,1573.3495490000005,None,1,c,,,,,,,,,,,,,,,,,,11_12,001,2021_Feb_24_1329,ComputerHuman,2020.1.3,59.987174742368445,
Sychronize.jpg,Number7.jpg,,Computer,Computer.xlsx,1,c,7,,,,,0,6,6,1,0,2,2,2,,,,,,,,,,,,,,,,,,,,,,,,,,,,,,,,,,,,,,,,,,,,,,,,,,,,,,,,,,,,,1574.3734753000008,None,1574.3734753000008,None,1574.8479927000008,None,1574.8479927000008,None,"['v', 't']","[5.805232200000319, 6.609288100000413]",1574.8479927000008,None,5.805232200000319,6.609288100000413,7,False,False,False,1583.4362744999999,None,1583.4362744999999,None,1583.4362744999999,None,1583.4362744999999,None,1583.4362744999999,None,1583.4362744999999,None,1583.4362744999999,None,1583.4362744999999,None,1584.4522199000003,None,1584.4522199000003,None,1,c,,,,,,,,,,,,,,,,,,11_12,001,2021_Feb_24_1329,ComputerHuman,2020.1.3,59.987174742368445,
Sychronize.jpg,Number6.jpg,,Computer,Computer.xlsx,1,c,6,,,,,0,6,6,1,0,3,3,1,,,,,,,,,,,,,,,,,,,,,,,,,,,,,,,,,,,,,,,,,,,,,,,,,,,,,,,,,,,,,1585.4706241999993,None,1585.4706241999993,None,1585.9506395999997,None,1585.9506395999997,None,"['v', 't']","[3.994770499999504, 6.077061300000423]",1585.9506395999997,None,3.994770499999504,6.077061300000423,6,False,False,False,1593.7104748000002,None,1593.7104748000002,None,1593.7104748000002,None,1593.7104748000002,None,1593.7104748000002,None,1593.7104748000002,None,1593.7104748000002,None,1593.7104748000002,None,1594.7050529999997,None,1594.7050529999997,None,1,c,,,,,,,,,,,,,,,,,,11_12,001,2021_Feb_24_1329,ComputerHuman,2020.1.3,59.987174742368445,
Sychronize.jpg,Number9.jpg,,Computer,Computer.xlsx,1,c,9,,,,,0,6,6,1,0,4,4,6,,,,,,,,,,,,,,,,,,,,,,,,,,,,,,,,,,,,,,,,,,,,,,,,,,,,,,,,,,,,,1595.7224029000008,None,1595.7224029000008,None,1596.2023286999993,None,1596.2023286999993,None,['v'],[8.378932199999326],1596.2023286999993,None,8.378932199999326,13,9,False,False,False,1609.2375262999994,None,1609.2375262999994,None,1609.2375262999994,None,1609.2375262999994,None,1609.2375262999994,None,1609.2375262999994,None,1609.2375262999994,None,1609.2375262999994,None,1610.2399096000008,None,1610.2399096000008,None,1,c,,,,,,,,,,,,,,,,,,11_12,001,2021_Feb_24_1329,ComputerHuman,2020.1.3,59.987174742368445,
Sychronize.jpg,Number8.jpg,,Computer,Computer.xlsx,1,c,8,,,,,0,6,6,1,0,5,5,5,,,,,,,,,,,,,,,,,,,,,,,,,,,,,,,,,,,,,,,,,,,,,,,,,,,,,,,,,,,,,1611.2659884999994,None,1611.2659884999994,None,1611.7375546000003,None,1611.7375546000003,None,"['v', 't']","[6.04387080000015, 8.607576000000336]",1611.7375546000003,None,6.04387080000015,8.607576000000336,8,False,False,False,1622.4237761000004,None,1622.4237761000004,None,1622.4237761000004,None,1622.4237761000004,None,1622.4237761000004,None,1622.4237761000004,None,1622.4237761000004,None,1622.4237761000004,None,1623.4422716000008,None,1623.4422716000008,None,1,c,,,,,,,,,,,,,,,,,,11_12,001,2021_Feb_24_1329,ComputerHuman,2020.1.3,59.987174742368445,
Sychronize.jpg,Number9.jpg,,Computer,Computer.xlsx,1,c,9,,,,,0,6,6,1,0,6,6,7,,,,,,,,,,,,,,,,,,,,,,,,,,,,,,,,,,,,,,,,,,,,,,,,,,,,,,,,,,,,,1624.4614275999993,None,1624.4614275999993,None,1624.9414928999995,None,1624.9414928999995,None,"['v', 't']","[6.415502199999537, 10.199354700000185]",1624.9414928999995,None,6.415502199999537,10.199354700000185,9,False,False,False,1636.7659210000002,None,1636.7659210000002,None,1636.7659210000002,None,1636.7659210000002,None,1636.7659210000002,None,1636.7659210000002,None,1636.7659210000002,None,1636.7659210000002,None,1637.7788168000006,None,1637.7788168000006,None,1,c,,,,,,,,,,,,,,,,,,11_12,001,2021_Feb_24_1329,ComputerHuman,2020.1.3,59.987174742368445,
Sychronize.jpg,Number10.jpg,,Computer,Computer.xlsx,1,c,10,,,,,0,6,6,1,0,7,7,9,,,,,,,,,,,,,,,,,,,,,,,,,,,,,,,,,,,,,,,,,,,,,,,,,,,,,,,,,,,,,1638.8045039000008,None,1638.8045039000008,None,1639.2780313999992,None,1639.2780313999992,None,"['v', 't']","[7.243339200000264, 9.635793600000397]",1639.2780313999992,None,7.243339200000264,9.635793600000397,10,False,False,False,1650.5616597000007,None,1650.5616597000007,None,1650.5616597000007,None,1650.5616597000007,None,1650.5616597000007,None,1650.5616597000007,None,1650.5616597000007,None,1650.5616597000007,None,1651.5647203000008,None,1651.5647203000008,None,1,c,,,,,,,,,,,,,,,,,,11_12,001,2021_Feb_24_1329,ComputerHuman,2020.1.3,59.987174742368445,
Sychronize.jpg,Number6.jpg,,Computer,Computer.xlsx,1,c,6,,,,,0,6,6,1,0,8,8,0,,,,,,,,,,,,,,,,,,,,,,,,,,,,,,,,,,,,,,,,,,,,,,,,,,,,,,,,,,,,,1652.589326199999,None,1652.589326199999,None,1653.0638739999995,None,1653.0638739999995,None,"['v', 't']","[4.717122500000187, 5.349269799999092]",1653.0638739999995,None,4.717122500000187,5.349269799999092,6,False,False,False,1660.7709006999994,None,1660.7709006999994,None,1660.7709006999994,None,1660.7709006999994,None,1660.7709006999994,None,1660.7709006999994,None,1660.7709006999994,None,1660.7709006999994,None,1661.7834695000001,None,1661.7834695000001,None,1,c,,,,,,,,,,,,,,,,,,11_12,001,2021_Feb_24_1329,ComputerHuman,2020.1.3,59.987174742368445,
Sychronize.jpg,Number8.jpg,,Computer,Computer.xlsx,1,c,8,,,,,0,6,6,1,0,9,9,4,,,,,,,,,,,,,,,,,,,,,,,,,,,,,,,,,,,,,,,,,,,,,,,,,,,,,,,,,,,,,1662.8087190000006,None,1662.8087190000006,None,1663.2811438000008,None,1663.2811438000008,None,"['v', 't']","[5.98821289999978, 7.324012299999595]",1663.2811438000008,None,5.98821289999978,7.324012299999595,8,False,False,False,1672.2210073000006,None,1672.2210073000006,None,1672.2210073000006,None,1672.2210073000006,None,1672.2210073000006,None,1672.2210073000006,None,1672.2210073000006,None,1672.2210073000006,None,1673.2357582000004,None,1673.2357582000004,None,1,c,,,,,,,,,,,,,,,,,,11_12,001,2021_Feb_24_1329,ComputerHuman,2020.1.3,59.987174742368445,
,,,,Computer.xlsx,1,c,,,,,,0,6,6,1,,,,,,,,,,,,,,,,,,,,,,,,,,,,,,,,,,,,,,,,,,,,,,,,,,,,,,,,,,,,,,,,,,,,,,,,,,,,,,,,,,,,,,,,,,,,,,,,,,,,,,,1,c,1674.2338777999994,None,c,1,1.6656962999986717,1675.2153010000002,None,1676.907830099999,None,None,None,None,None,None,,,,11_12,001,2021_Feb_24_1329,ComputerHuman,2020.1.3,59.987174742368445,
Sychronize.jpg,Number7.jpg,,Human,Human.xlsx,2,h,7,,,,,0,7,7,6,0,0,0,3,,,,,,,,,,,,,,,,,,,,,,,,,,,,,,,,,,,,,,,,,,,,,,,,,,,,,,,,,1681.922504099999,None,1681.922504099999,None,1684.9736143999999,None,1684.9736143999999,None,1685.4373558000007,None,1685.4373558000007,None,"['v', 't']","[5.936062200000379, 7.228578800000832]",1685.4373558000007,None,5.936062200000379,7.228578800000832,7,False,False,False,1694.7096827999994,None,1694.7096827999994,None,1694.7096827999994,None,1694.7096827999994,None,1694.7096827999994,None,1694.7096827999994,None,1694.7096827999994,None,1694.7096827999994,None,1695.7235885999999,None,1695.7235885999999,None,2,h,,,,,,,,,,,,,,,,,,11_12,001,2021_Feb_24_1329,ComputerHuman,2020.1.3,59.987174742368445,
Sychronize.jpg,Number10.jpg,,Human,Human.xlsx,2,h,10,,,,,0,7,7,6,0,1,1,9,,,,,,,,,,,,,,,,,,,,,,,,,,,,,,,,,,,,,,,,,,,,,,,,,,,,,,,,,,,,,1696.7492693999993,None,1696.7492693999993,None,1697.2228166000004,None,1697.2228166000004,None,"['v', 't']","[8.450355499999205, 9.022619899998972]",1697.2228166000004,None,8.450355499999205,9.022619899998972,10,False,False,False,1707.9688650000007,None,1707.9688650000007,None,1707.9688650000007,None,1707.9688650000007,None,1707.9688650000007,None,1707.9688650000007,None,1707.9688650000007,None,1707.9688650000007,None,1708.9764457,None,1708.9764457,None,2,h,,,,,,,,,,,,,,,,,,11_12,001,2021_Feb_24_1329,ComputerHuman,2020.1.3,59.987174742368445,
Sychronize.jpg,Number10.jpg,,Human,Human.xlsx,2,h,10,,,,,0,7,7,6,0,2,2,8,,,,,,,,,,,,,,,,,,,,,,,,,,,,,,,,,,,,,,,,,,,,,,,,,,,,,,,,,,,,,1709.9989251000006,None,1709.9989251000006,None,1710.4754907999995,None,1710.4754907999995,None,['t'],[8.661751800000275],1710.4754907999995,None,13,8.661751800000275,10,False,False,False,1727.2081710000002,None,1727.2081710000002,None,1727.2081710000002,None,1727.2081710000002,None,1727.2081710000002,None,1727.2081710000002,None,1727.2081710000002,None,1727.2081710000002,None,1728.2135236000013,None,1728.2135236000013,None,2,h,,,,,,,,,,,,,,,,,,11_12,001,2021_Feb_24_1329,ComputerHuman,2020.1.3,59.987174742368445,
Sychronize.jpg,Number7.jpg,,Human,Human.xlsx,2,h,7,,,,,0,7,7,6,0,3,3,2,,,,,,,,,,,,,,,,,,,,,,,,,,,,,,,,,,,,,,,,,,,,,,,,,,,,,,,,,,,,,1729.2332264000015,None,1729.2332264000015,None,1729.7127104999981,None,1729.7127104999981,None,"['v', 't']","[5.808619999999792, 7.036310499999672]",1729.7127104999981,None,5.808619999999792,7.036310499999672,7,False,False,False,1738.6215955999996,None,1738.6215955999996,None,1738.6215955999996,None,1738.6215955999996,None,1738.6215955999996,None,1738.6215955999996,None,1738.6215955999996,None,1738.6215955999996,None,1739.6336958999982,None,1739.6336958999982,None,2,h,,,,,,,,,,,,,,,,,,11_12,001,2021_Feb_24_1329,ComputerHuman,2020.1.3,59.987174742368445,
Sychronize.jpg,Number6.jpg,,Human,Human.xlsx,2,h,6,,,,,0,7,7,6,0,4,4,0,,,,,,,,,,,,,,,,,,,,,,,,,,,,,,,,,,,,,,,,,,,,,,,,,,,,,,,,,,,,,1740.6584330999995,None,1740.6584330999995,None,1741.1320031999985,None,1741.1320031999985,None,"['v', 't']","[4.096643499997299, 6.749075599997013]",1741.1320031999985,None,4.096643499997299,6.749075599997013,6,False,False,False,1749.8704583999988,None,1749.8704583999988,None,1749.8704583999988,None,1749.8704583999988,None,1749.8704583999988,None,1749.8704583999988,None,1749.8704583999988,None,1749.8704583999988,None,1750.8859030000003,None,1750.8859030000003,None,2,h,,,,,,,,,,,,,,,,,,11_12,001,2021_Feb_24_1329,ComputerHuman,2020.1.3,59.987174742368445,
Sychronize.jpg,Number8.jpg,,Human,Human.xlsx,2,h,8,,,,,0,7,7,6,0,5,5,5,,,,,,,,,,,,,,,,,,,,,,,,,,,,,,,,,,,,,,,,,,,,,,,,,,,,,,,,,,,,,1751.9071701000012,None,1751.9071701000012,None,1752.384172,None,1752.384172,None,"['t', 'v']","[7.252979299999424, 7.337120599997434]",1752.384172,None,7.337120599997434,7.252979299999424,8,False,False,False,1764.4901403999993,None,1764.4901403999993,None,1764.4901403999993,None,1764.4901403999993,None,1764.4901403999993,None,1764.4901403999993,None,1764.4901403999993,None,1764.4901403999993,None,1765.5268020999993,None,1765.5268020999993,None,2,h,,,,,,,,,,,,,,,,,,11_12,001,2021_Feb_24_1329,ComputerHuman,2020.1.3,59.987174742368445,
Sychronize.jpg,Number8.jpg,,Human,Human.xlsx,2,h,8,,,,,0,7,7,6,0,6,6,4,,,,,,,,,,,,,,,,,,,,,,,,,,,,,,,,,,,,,,,,,,,,,,,,,,,,,,,,,,,,,1766.5267315,None,1766.5267315,None,1767.0042230000017,None,1767.0042230000017,None,"['t', 'v']","[6.712698600000294, 7.256958199999644]",1767.0042230000017,None,7.256958199999644,6.712698600000294,8,False,False,False,1777.741476000001,None,1777.741476000001,None,1777.741476000001,None,1777.741476000001,None,1777.741476000001,None,1777.741476000001,None,1777.741476000001,None,1777.741476000001,None,1778.7573218999987,None,1778.7573218999987,None,2,h,,,,,,,,,,,,,,,,,,11_12,001,2021_Feb_24_1329,ComputerHuman,2020.1.3,59.987174742368445,
Sychronize.jpg,Number9.jpg,,Human,Human.xlsx,2,h,9,,,,,0,7,7,6,0,7,7,6,,,,,,,,,,,,,,,,,,,,,,,,,,,,,,,,,,,,,,,,,,,,,,,,,,,,,,,,,,,,,1779.7768735000009,None,1779.7768735000009,None,1780.2562745000014,None,1780.2562745000014,None,"['v', 't']","[5.796482099998684, 7.647042599997803]",1780.2562745000014,None,5.796482099998684,7.647042599997803,9,False,False,False,1790.230938300001,None,1790.230938300001,None,1790.230938300001,None,1790.230938300001,None,1790.230938300001,None,1790.230938300001,None,1790.230938300001,None,1790.230938300001,None,1791.2444057000012,None,1791.2444057000012,None,2,h,,,,,,,,,,,,,,,,,,11_12,001,2021_Feb_24_1329,ComputerHuman,2020.1.3,59.987174742368445,
Sychronize.jpg,Number6.jpg,,Human,Human.xlsx,2,h,6,,,,,0,7,7,6,0,8,8,1,,,,,,,,,,,,,,,,,,,,,,,,,,,,,,,,,,,,,,,,,,,,,,,,,,,,,,,,,,,,,1792.2668176999996,None,1792.2668176999996,None,1792.742077500001,None,1792.742077500001,None,"['v', 't']","[3.8668899000003876, 5.527097300000605]",1792.742077500001,None,3.8668899000003876,5.527097300000605,6,False,False,False,1800.0189322999995,None,1800.0189322999995,None,1800.0189322999995,None,1800.0189322999995,None,1800.0189322999995,None,1800.0189322999995,None,1800.0189322999995,None,1800.0189322999995,None,1801.0294204000002,None,1801.0294204000002,None,2,h,,,,,,,,,,,,,,,,,,11_12,001,2021_Feb_24_1329,ComputerHuman,2020.1.3,59.987174742368445,
Sychronize.jpg,Number9.jpg,,Human,Human.xlsx,2,h,9,,,,,0,7,7,6,0,9,9,7,,,,,,,,,,,,,,,,,,,,,,,,,,,,,,,,,,,,,,,,,,,,,,,,,,,,,,,,,,,,,1802.0548672999994,None,1802.0548672999994,None,1802.5276751000001,None,1802.5276751000001,None,"['t', 'v']","[7.385257099998853, 7.981697499999427]",1802.5276751000001,None,7.981697499999427,7.385257099998853,9,False,False,False,1813.917531000001,None,1813.917531000001,None,1813.917531000001,None,1813.917531000001,None,1813.917531000001,None,1813.917531000001,None,1813.917531000001,None,1813.917531000001,None,1814.9318288999984,None,1814.9318288999984,None,2,h,,,,,,,,,,,,,,,,,,11_12,001,2021_Feb_24_1329,ComputerHuman,2020.1.3,59.987174742368445,
,,,,Human.xlsx,2,h,,,,,,0,7,7,6,,,,,,,,,,,,,,,,,,,,,,,,,,,,,,,,,,,,,,,,,,,,,,,,,,,,,,,,,,,,,,,,,,,,,,,,,,,,,,,,,,,,,,,,,,,,,,,,,,,,,,,2,h,1815.9302976999988,None,h,1,1.4976968999981182,1816.9272615999998,None,None,None,1818.4536270000008,None,"['space', 'space']",1819.4443980000015,None,"[1.3802972000012232, 6.19251439999789]",,,11_12,001,2021_Feb_24_1329,ComputerHuman,2020.1.3,59.987174742368445,
Sychronize.jpg,Number8.jpg,,Computer,Computer.xlsx,1,c,8,,,,,1,0,8,1,0,0,0,5,,,,,,,,,,,,,,,,,,,,,,,,,,,,,,,,,,,,,,,,,,,,,,,,,,,,,,,,,1825.6706729000016,None,1825.6706729000016,None,1828.7026975999997,None,1828.7026975999997,None,1829.1830572999988,None,1829.1830572999988,None,"['t', 'v']","[6.761783999998443, 7.814353400000982]",1829.1830572999988,None,7.814353400000982,6.761783999998443,8,False,False,False,1839.8051704000009,None,1839.8051704000009,None,1839.8051704000009,None,1839.8051704000009,None,1839.8051704000009,None,1839.8051704000009,None,1839.8051704000009,None,1839.8051704000009,None,1840.8194397999996,None,1840.8194397999996,None,1,c,,,,,,,,,,,,,,,,,,11_12,001,2021_Feb_24_1329,ComputerHuman,2020.1.3,59.987174742368445,
Sychronize.jpg,Number9.jpg,,Computer,Computer.xlsx,1,c,9,,,,,1,0,8,1,0,1,1,7,,,,,,,,,,,,,,,,,,,,,,,,,,,,,,,,,,,,,,,,,,,,,,,,,,,,,,,,,,,,,1841.8438301000006,None,1841.8438301000006,None,1842.3190071000008,None,1842.3190071000008,None,['v'],[6.2579055999995035],1842.3190071000008,None,6.2579055999995035,13,9,False,False,False,1855.3537430999986,None,1855.3537430999986,None,1855.3537430999986,None,1855.3537430999986,None,1855.3537430999986,None,1855.3537430999986,None,1855.3537430999986,None,1855.3537430999986,None,1856.3572648999998,None,1856.3572648999998,None,1,c,,,,,,,,,,,,,,,,,,11_12,001,2021_Feb_24_1329,ComputerHuman,2020.1.3,59.987174742368445,
Sychronize.jpg,Number9.jpg,,Computer,Computer.xlsx,1,c,9,,,,,1,0,8,1,0,2,2,6,,,,,,,,,,,,,,,,,,,,,,,,,,,,,,,,,,,,,,,,,,,,,,,,,,,,,,,,,,,,,1857.3789369999995,None,1857.3789369999995,None,1857.8748152999997,None,1857.8748152999997,None,['t'],[6.894083400002273],1857.8748152999997,None,13,6.894083400002273,9,False,False,False,1873.4078047999992,None,1873.4078047999992,None,1873.4078047999992,None,1873.4078047999992,None,1873.4078047999992,None,1873.4078047999992,None,1873.4078047999992,None,1873.4078047999992,None,1874.4271245,None,1874.4271245,None,1,c,,,,,,,,,,,,,,,,,,11_12,001,2021_Feb_24_1329,ComputerHuman,2020.1.3,59.987174742368445,
Sychronize.jpg,Number10.jpg,,Computer,Computer.xlsx,1,c,10,,,,,1,0,8,1,0,3,3,9,,,,,,,,,,,,,,,,,,,,,,,,,,,,,,,,,,,,,,,,,,,,,,,,,,,,,,,,,,,,,1875.4298618999983,None,1875.4298618999983,None,1875.925756999999,None,1875.925756999999,None,"['v', 't']","[5.74789100000271, 5.987146300001768]",1875.925756999999,None,5.74789100000271,5.987146300001768,10,False,False,False,1883.8012471999991,None,1883.8012471999991,None,1883.8012471999991,None,1883.8012471999991,None,1883.8012471999991,None,1883.8012471999991,None,1883.8012471999991,None,1883.8012471999991,None,1884.8133813000004,None,1884.8133813000004,None,1,c,,,,,,,,,,,,,,,,,,11_12,001,2021_Feb_24_1329,ComputerHuman,2020.1.3,59.987174742368445,
Sychronize.jpg,Number7.jpg,,Computer,Computer.xlsx,1,c,7,,,,,1,0,8,1,0,4,4,3,,,,,,,,,,,,,,,,,,,,,,,,,,,,,,,,,,,,,,,,,,,,,,,,,,,,,,,,,,,,,1885.830966399999,None,1885.830966399999,None,1886.3095075,None,1886.3095075,None,"['v', 't']","[5.167421199999808, 5.6668844999985595]",1886.3095075,None,5.167421199999808,5.6668844999985595,7,False,False,False,1894.1488340999986,None,1894.1488340999986,None,1894.1488340999986,None,1894.1488340999986,None,1894.1488340999986,None,1894.1488340999986,None,1894.1488340999986,None,1894.1488340999986,None,1895.1655401000007,None,1895.1655401000007,None,1,c,,,,,,,,,,,,,,,,,,11_12,001,2021_Feb_24_1329,ComputerHuman,2020.1.3,59.987174742368445,
Sychronize.jpg,Number10.jpg,,Computer,Computer.xlsx,1,c,10,,,,,1,0,8,1,0,5,5,8,,,,,,,,,,,,,,,,,,,,,,,,,,,,,,,,,,,,,,,,,,,,,,,,,,,,,,,,,,,,,1896.1894395,None,1896.1894395,None,1896.6620688999992,None,1896.6620688999992,None,"['v', 't']","[7.226816400001553, 8.15878309999971]",1896.6620688999992,None,7.226816400001553,8.15878309999971,10,False,False,False,1906.8388845999998,None,1906.8388845999998,None,1906.8388845999998,None,1906.8388845999998,None,1906.8388845999998,None,1906.8388845999998,None,1906.8388845999998,None,1906.8388845999998,None,1907.8516276999999,None,1907.8516276999999,None,1,c,,,,,,,,,,,,,,,,,,11_12,001,2021_Feb_24_1329,ComputerHuman,2020.1.3,59.987174742368445,
Sychronize.jpg,Number6.jpg,,Computer,Computer.xlsx,1,c,6,,,,,1,0,8,1,0,6,6,0,,,,,,,,,,,,,,,,,,,,,,,,,,,,,,,,,,,,,,,,,,,,,,,,,,,,,,,,,,,,,1908.8756148000011,None,1908.8756148000011,None,1909.3489733000006,None,1909.3489733000006,None,"['v', 't']","[6.20338609999817, 6.442485299998225]",1909.3489733000006,None,6.20338609999817,6.442485299998225,6,False,False,False,1917.4706214999987,None,1917.4706214999987,None,1917.4706214999987,None,1917.4706214999987,None,1917.4706214999987,None,1917.4706214999987,None,1917.4706214999987,None,1917.4706214999987,None,1918.4868263000008,None,1918.4868263000008,None,1,c,,,,,,,,,,,,,,,,,,11_12,001,2021_Feb_24_1329,ComputerHuman,2020.1.3,59.987174742368445,
Sychronize.jpg,Number7.jpg,,Computer,Computer.xlsx,1,c,7,,,,,1,0,8,1,0,7,7,2,,,,,,,,,,,,,,,,,,,,,,,,,,,,,,,,,,,,,,,,,,,,,,,,,,,,,,,,,,,,,1919.5093159000007,None,1919.5093159000007,None,1919.9845183999987,None,1919.9845183999987,None,"['v', 't']","[5.035821799996484, 5.328561199999967]",1919.9845183999987,None,5.035821799996484,5.328561199999967,7,False,False,False,1927.3184610000008,None,1927.3184610000008,None,1927.3184610000008,None,1927.3184610000008,None,1927.3184610000008,None,1927.3184610000008,None,1927.3184610000008,None,1927.3184610000008,None,1928.3384590000005,None,1928.3384590000005,None,1,c,,,,,,,,,,,,,,,,,,11_12,001,2021_Feb_24_1329,ComputerHuman,2020.1.3,59.987174742368445,
Sychronize.jpg,Number8.jpg,,Computer,Computer.xlsx,1,c,8,,,,,1,0,8,1,0,8,8,4,,,,,,,,,,,,,,,,,,,,,,,,,,,,,,,,,,,,,,,,,,,,,,,,,,,,,,,,,,,,,1929.3397889999997,None,1929.3397889999997,None,1929.836752199999,None,1929.836752199999,None,"['v', 't']","[4.090764599997783, 6.160272799999802]",1929.836752199999,None,4.090764599997783,6.160272799999802,8,False,False,False,1938.1867301000002,None,1938.1867301000002,None,1938.1867301000002,None,1938.1867301000002,None,1938.1867301000002,None,1938.1867301000002,None,1938.1867301000002,None,1938.1867301000002,None,1939.1910688000007,None,1939.1910688000007,None,1,c,,,,,,,,,,,,,,,,,,11_12,001,2021_Feb_24_1329,ComputerHuman,2020.1.3,59.987174742368445,
Sychronize.jpg,Number6.jpg,,Computer,Computer.xlsx,1,c,6,,,,,1,0,8,1,0,9,9,1,,,,,,,,,,,,,,,,,,,,,,,,,,,,,,,,,,,,,,,,,,,,,,,,,,,,,,,,,,,,,1940.2085959999986,None,1940.2085959999986,None,1940.6872090000015,None,1940.6872090000015,None,"['t', 'v']","[4.041630799998529, 4.485861500001192]",1940.6872090000015,None,4.485861500001192,4.041630799998529,6,False,False,False,1948.6803588999992,None,1948.6803588999992,None,1948.6803588999992,None,1948.6803588999992,None,1948.6803588999992,None,1948.6803588999992,None,1948.6803588999992,None,1948.6803588999992,None,1949.6917054999994,None,1949.6917054999994,None,1,c,,,,,,,,,,,,,,,,,,11_12,001,2021_Feb_24_1329,ComputerHuman,2020.1.3,59.987174742368445,
,,,,Computer.xlsx,1,c,,,,,,1,0,8,1,,,,,,,,,,,,,,,,,,,,,,,,,,,,,,,,,,,,,,,,,,,,,,,,,,,,,,,,,,,,,,,,,,,,,,,,,,,,,,,,,,,,,,,,,,,,,,,,,,,,,,,1,c,1950.689554999999,None,c,1,3.6780855000033625,1951.671180200001,None,1955.3799371000005,None,None,None,None,None,None,,,,11_12,001,2021_Feb_24_1329,ComputerHuman,2020.1.3,59.987174742368445,
Sychronize.jpg,Number8.jpg,,Computer,Computer.xlsx,1,c,8,,,,,1,1,9,3,0,0,0,5,,,,,,,,,,,,,,,,,,,,,,,,,,,,,,,,,,,,,,,,,,,,,,,,,,,,,,,,,1960.3945048000005,None,1960.3945048000005,None,1963.447878699999,None,1963.447878699999,None,1963.9088251999983,None,1963.9088251999983,None,"['t', 'v']","[6.575227699999232, 6.732297999998991]",1963.9088251999983,None,6.732297999998991,6.575227699999232,8,False,False,False,1975.320231399999,None,1975.320231399999,None,1975.320231399999,None,1975.320231399999,None,1975.320231399999,None,1975.320231399999,None,1975.320231399999,None,1975.320231399999,None,1976.3321941000013,None,1976.3321941000013,None,1,c,,,,,,,,,,,,,,,,,,11_12,001,2021_Feb_24_1329,ComputerHuman,2020.1.3,59.987174742368445,
Sychronize.jpg,Number7.jpg,,Computer,Computer.xlsx,1,c,7,,,,,1,1,9,3,0,1,1,3,,,,,,,,,,,,,,,,,,,,,,,,,,,,,,,,,,,,,,,,,,,,,,,,,,,,,,,,,,,,,1977.3499571999982,None,1977.3499571999982,None,1977.8293169000008,None,1977.8293169000008,None,"['t', 'v']","[5.899590500001068, 6.16766060000009]",1977.8293169000008,None,6.16766060000009,5.899590500001068,7,False,False,False,1988.1079649000003,None,1988.1079649000003,None,1988.1079649000003,None,1988.1079649000003,None,1988.1079649000003,None,1988.1079649000003,None,1988.1079649000003,None,1988.1079649000003,None,1989.1173129,None,1989.1173129,None,1,c,,,,,,,,,,,,,,,,,,11_12,001,2021_Feb_24_1329,ComputerHuman,2020.1.3,59.987174742368445,
Sychronize.jpg,Number7.jpg,,Computer,Computer.xlsx,1,c,7,,,,,1,1,9,3,0,2,2,2,,,,,,,,,,,,,,,,,,,,,,,,,,,,,,,,,,,,,,,,,,,,,,,,,,,,,,,,,,,,,1990.1357737000017,None,1990.1357737000017,None,1990.6353183999981,None,1990.6353183999981,None,"['t', 'v']","[5.761098499999207, 6.605434999997669]",1990.6353183999981,None,6.605434999997669,5.761098499999207,7,False,False,False,2001.2710811999987,None,2001.2710811999987,None,2001.2710811999987,None,2001.2710811999987,None,2001.2710811999987,None,2001.2710811999987,None,2001.2710811999987,None,2001.2710811999987,None,2002.2855403999984,None,2002.2855403999984,None,1,c,,,,,,,,,,,,,,,,,,11_12,001,2021_Feb_24_1329,ComputerHuman,2020.1.3,59.987174742368445,
Sychronize.jpg,Number6.jpg,,Computer,Computer.xlsx,1,c,6,,,,,1,1,9,3,0,3,3,0,,,,,,,,,,,,,,,,,,,,,,,,,,,,,,,,,,,,,,,,,,,,,,,,,,,,,,,,,,,,,2003.3109456000002,None,2003.3109456000002,None,2003.7847340999997,None,2003.7847340999997,None,"['v', 't']","[5.627769800001261, 5.82795360000091]",2003.7847340999997,None,5.627769800001261,5.82795360000091,6,False,False,False,2011.4015410999982,None,2011.4015410999982,None,2011.4015410999982,None,2011.4015410999982,None,2011.4015410999982,None,2011.4015410999982,None,2011.4015410999982,None,2011.4015410999982,None,2012.4412944000014,None,2012.4412944000014,None,1,c,,,,,,,,,,,,,,,,,,11_12,001,2021_Feb_24_1329,ComputerHuman,2020.1.3,59.987174742368445,
Sychronize.jpg,Number6.jpg,,Computer,Computer.xlsx,1,c,6,,,,,1,1,9,3,0,4,4,1,,,,,,,,,,,,,,,,,,,,,,,,,,,,,,,,,,,,,,,,,,,,,,,,,,,,,,,,,,,,,2013.4234994999988,None,2013.4234994999988,None,2013.9034230999987,None,2013.9034230999987,None,"['v', 'v', 't']","[5.137213899997732, 5.377247899999929, 5.657484799998201]",2013.9034230999987,None,5.137213899997732,5.657484799998201,6,False,False,False,2022.0529842999986,None,2022.0529842999986,None,2022.0529842999986,None,2022.0529842999986,None,2022.0529842999986,None,2022.0529842999986,None,2022.0529842999986,None,2022.0529842999986,None,2023.0563090999985,None,2023.0563090999985,None,1,c,,,,,,,,,,,,,,,,,,11_12,001,2021_Feb_24_1329,ComputerHuman,2020.1.3,59.987174742368445,
Sychronize.jpg,Number9.jpg,,Computer,Computer.xlsx,1,c,9,,,,,1,1,9,3,0,5,5,7,,,,,,,,,,,,,,,,,,,,,,,,,,,,,,,,,,,,,,,,,,,,,,,,,,,,,,,,,,,,,2024.0756706999982,None,2024.0756706999982,None,2024.5555545000007,None,2024.5555545000007,None,"['v', 't']","[6.9451124999977765, 9.19299829999727]",2024.5555545000007,None,6.9451124999977765,9.19299829999727,9,False,False,False,2035.9326577999982,None,2035.9326577999982,None,2035.9326577999982,None,2035.9326577999982,None,2035.9326577999982,None,2035.9326577999982,None,2035.9326577999982,None,2035.9326577999982,None,2036.9623607000012,None,2036.9623607000012,None,1,c,,,,,,,,,,,,,,,,,,11_12,001,2021_Feb_24_1329,ComputerHuman,2020.1.3,59.987174742368445,
Sychronize.jpg,Number10.jpg,,Computer,Computer.xlsx,1,c,10,,,,,1,1,9,3,0,6,6,9,,,,,,,,,,,,,,,,,,,,,,,,,,,,,,,,,,,,,,,,,,,,,,,,,,,,,,,,,,,,,2037.9681876000013,None,2037.9681876000013,None,2038.4416280999994,None,2038.4416280999994,None,"['v', 't']","[7.1830502999982855, 8.141519299999345]",2038.4416280999994,None,7.1830502999982855,8.141519299999345,10,False,False,False,2049.0093674,None,2049.0093674,None,2049.0093674,None,2049.0093674,None,2049.0093674,None,2049.0093674,None,2049.0093674,None,2049.0093674,None,2050.030097699999,None,2050.030097699999,None,1,c,,,,,,,,,,,,,,,,,,11_12,001,2021_Feb_24_1329,ComputerHuman,2020.1.3,59.987174742368445,
Sychronize.jpg,Number8.jpg,,Computer,Computer.xlsx,1,c,8,,,,,1,1,9,3,0,7,7,4,,,,,,,,,,,,,,,,,,,,,,,,,,,,,,,,,,,,,,,,,,,,,,,,,,,,,,,,,,,,,2051.0312159000005,None,2051.0312159000005,None,2051.5277092999986,None,2051.5277092999986,None,"['v', 't']","[6.3689948999999615, 7.033006399997248]",2051.5277092999986,None,6.3689948999999615,7.033006399997248,8,False,False,False,2060.188390199999,None,2060.188390199999,None,2060.188390199999,None,2060.188390199999,None,2060.188390199999,None,2060.188390199999,None,2060.188390199999,None,2060.188390199999,None,2061.197648399999,None,2061.197648399999,None,1,c,,,,,,,,,,,,,,,,,,11_12,001,2021_Feb_24_1329,ComputerHuman,2020.1.3,59.987174742368445,
Sychronize.jpg,Number10.jpg,,Computer,Computer.xlsx,1,c,10,,,,,1,1,9,3,0,8,8,8,,,,,,,,,,,,,,,,,,,,,,,,,,,,,,,,,,,,,,,,,,,,,,,,,,,,,,,,,,,,,2062.217037100001,None,2062.217037100001,None,2062.6965327999987,None,2062.6965327999987,None,"['t', 'v']","[8.631796600002417, 8.748228300002665]",2062.6965327999987,None,8.748228300002665,8.631796600002417,10,False,False,False,2075.3195080999994,None,2075.3195080999994,None,2075.3195080999994,None,2075.3195080999994,None,2075.3195080999994,None,2075.3195080999994,None,2075.3195080999994,None,2075.3195080999994,None,2076.3345720999987,None,2076.3345720999987,None,1,c,,,,,,,,,,,,,,,,,,11_12,001,2021_Feb_24_1329,ComputerHuman,2020.1.3,59.987174742368445,
Sychronize.jpg,Number9.jpg,,Computer,Computer.xlsx,1,c,9,,,,,1,1,9,3,0,9,9,6,,,,,,,,,,,,,,,,,,,,,,,,,,,,,,,,,,,,,,,,,,,,,,,,,,,,,,,,,,,,,2077.3536176,None,2077.3536176,None,2077.832975799998,None,2077.832975799998,None,"['v', 't']","[8.03948809999929, 8.047595999996702]",2077.832975799998,None,8.03948809999929,8.047595999996702,9,False,False,False,2087.4510618000004,None,2087.4510618000004,None,2087.4510618000004,None,2087.4510618000004,None,2087.4510618000004,None,2087.4510618000004,None,2087.4510618000004,None,2087.4510618000004,None,2088.4712181999985,None,2088.4712181999985,None,1,c,,,,,,,,,,,,,,,,,,11_12,001,2021_Feb_24_1329,ComputerHuman,2020.1.3,59.987174742368445,
,,,,Computer.xlsx,1,c,,,,,,1,1,9,3,,,,,,,,,,,,,,,,,,,,,,,,,,,,,,,,,,,,,,,,,,,,,,,,,,,,,,,,,,,,,,,,,,,,,,,,,,,,,,,,,,,,,,,,,,,,,,,,,,,,,,,1,c,2089.4688490999997,None,h,0,2.58539490000112,2090.4658719000017,None,2093.1109048000017,None,None,None,None,None,None,,,,11_12,001,2021_Feb_24_1329,ComputerHuman,2020.1.3,59.987174742368445,
Sychronize.jpg,Number9.jpg,,Human,Human.xlsx,2,h,9,,,,,1,2,10,6,0,0,0,6,,,,,,,,,,,,,,,,,,,,,,,,,,,,,,,,,,,,,,,,,,,,,,,,,,,,,,,,,2098.106703200001,None,2098.106703200001,None,2101.156546,None,2101.156546,None,2101.6211974000016,None,2101.6211974000016,None,"['v', 't']","[7.475673299999471, 8.655177500000718]",2101.6211974000016,None,7.475673299999471,8.655177500000718,9,False,False,False,2112.022192800001,None,2112.022192800001,None,2112.022192800001,None,2112.022192800001,None,2112.022192800001,None,2112.022192800001,None,2112.022192800001,None,2112.022192800001,None,2113.0418910999997,None,2113.0418910999997,None,2,h,,,,,,,,,,,,,,,,,,11_12,001,2021_Feb_24_1329,ComputerHuman,2020.1.3,59.987174742368445,
Sychronize.jpg,Number6.jpg,,Human,Human.xlsx,2,h,6,,,,,1,2,10,6,0,1,1,0,,,,,,,,,,,,,,,,,,,,,,,,,,,,,,,,,,,,,,,,,,,,,,,,,,,,,,,,,,,,,2114.0708558999995,None,2114.0708558999995,None,2114.5405249000014,None,2114.5405249000014,None,['v'],[7.064126099998248],2114.5405249000014,None,7.064126099998248,13,6,False,False,False,2127.5764160000017,None,2127.5764160000017,None,2127.5764160000017,None,2127.5764160000017,None,2127.5764160000017,None,2127.5764160000017,None,2127.5764160000017,None,2127.5764160000017,None,2128.5793160999983,None,2128.5793160999983,None,2,h,,,,,,,,,,,,,,,,,,11_12,001,2021_Feb_24_1329,ComputerHuman,2020.1.3,59.987174742368445,
Sychronize.jpg,Number9.jpg,,Human,Human.xlsx,2,h,9,,,,,1,2,10,6,0,2,2,7,,,,,,,,,,,,,,,,,,,,,,,,,,,,,,,,,,,,,,,,,,,,,,,,,,,,,,,,,,,,,2129.5975058999993,None,2129.5975058999993,None,2130.0770651000003,None,2130.0770651000003,None,"['v', 't']","[6.259489100000792, 10.191595600001165]",2130.0770651000003,None,6.259489100000792,10.191595600001165,9,False,False,False,2142.5997479000016,None,2142.5997479000016,None,2142.5997479000016,None,2142.5997479000016,None,2142.5997479000016,None,2142.5997479000016,None,2142.5997479000016,None,2142.5997479000016,None,2143.6143403000005,None,2143.6143403000005,None,2,h,,,,,,,,,,,,,,,,,,11_12,001,2021_Feb_24_1329,ComputerHuman,2020.1.3,59.987174742368445,
Sychronize.jpg,Number8.jpg,,Human,Human.xlsx,2,h,8,,,,,1,2,10,6,0,3,3,4,,,,,,,,,,,,,,,,,,,,,,,,,,,,,,,,,,,,,,,,,,,,,,,,,,,,,,,,,,,,,2144.6340198000016,None,2144.6340198000016,None,2145.1131745000002,None,2145.1131745000002,None,"['v', 't']","[6.675464500000089, 8.079556199998478]",2145.1131745000002,None,6.675464500000089,8.079556199998478,8,False,False,False,2154.795949900001,None,2154.795949900001,None,2154.795949900001,None,2154.795949900001,None,2154.795949900001,None,2154.795949900001,None,2154.795949900001,None,2154.795949900001,None,2155.799813399999,None,2155.799813399999,None,2,h,,,,,,,,,,,,,,,,,,11_12,001,2021_Feb_24_1329,ComputerHuman,2020.1.3,59.987174742368445,
Sychronize.jpg,Number7.jpg,,Human,Human.xlsx,2,h,7,,,,,1,2,10,6,0,4,4,3,,,,,,,,,,,,,,,,,,,,,,,,,,,,,,,,,,,,,,,,,,,,,,,,,,,,,,,,,,,,,2156.8191841999997,None,2156.8191841999997,None,2157.299141900001,None,2157.299141900001,None,"['t', 'v']","[6.037786699998833, 6.80387459999838]",2157.299141900001,None,6.80387459999838,6.037786699998833,7,False,False,False,2167.2049865999998,None,2167.2049865999998,None,2167.2049865999998,None,2167.2049865999998,None,2167.2049865999998,None,2167.2049865999998,None,2167.2049865999998,None,2167.2049865999998,None,2168.2191402000008,None,2168.2191402000008,None,2,h,,,,,,,,,,,,,,,,,,11_12,001,2021_Feb_24_1329,ComputerHuman,2020.1.3,59.987174742368445,
Sychronize.jpg,Number10.jpg,,Human,Human.xlsx,2,h,10,,,,,1,2,10,6,0,5,5,8,,,,,,,,,,,,,,,,,,,,,,,,,,,,,,,,,,,,,,,,,,,,,,,,,,,,,,,,,,,,,2169.238142,None,2169.238142,None,2169.7182415000007,None,2169.7182415000007,None,"['v', 't']","[8.620841500000097, 8.94237780000185]",2169.7182415000007,None,8.620841500000097,8.94237780000185,10,False,False,False,2180.5457974,None,2180.5457974,None,2180.5457974,None,2180.5457974,None,2180.5457974,None,2180.5457974,None,2180.5457974,None,2180.5457974,None,2181.556290999999,None,2181.556290999999,None,2,h,,,,,,,,,,,,,,,,,,11_12,001,2021_Feb_24_1329,ComputerHuman,2020.1.3,59.987174742368445,
Sychronize.jpg,Number6.jpg,,Human,Human.xlsx,2,h,6,,,,,1,2,10,6,0,6,6,1,,,,,,,,,,,,,,,,,,,,,,,,,,,,,,,,,,,,,,,,,,,,,,,,,,,,,,,,,,,,,2182.5799062999995,None,2182.5799062999995,None,2183.055001499999,None,2183.055001499999,None,"['v', 't']","[4.997196200001781, 6.865697799999907]",2183.055001499999,None,4.997196200001781,6.865697799999907,6,False,False,False,2192.3880501000003,None,2192.3880501000003,None,2192.3880501000003,None,2192.3880501000003,None,2192.3880501000003,None,2192.3880501000003,None,2192.3880501000003,None,2192.3880501000003,None,2193.4093226999994,None,2193.4093226999994,None,2,h,,,,,,,,,,,,,,,,,,11_12,001,2021_Feb_24_1329,ComputerHuman,2020.1.3,59.987174742368445,
Sychronize.jpg,Number8.jpg,,Human,Human.xlsx,2,h,8,,,,,1,2,10,6,0,7,7,5,,,,,,,,,,,,,,,,,,,,,,,,,,,,,,,,,,,,,,,,,,,,,,,,,,,,,,,,,,,,,2194.4147460000004,None,2194.4147460000004,None,2194.8900003,None,2194.8900003,None,"['v', 't']","[6.7267236999978195, 7.378418699998292]",2194.8900003,None,6.7267236999978195,7.378418699998292,8,False,False,False,2204.0953436,None,2204.0953436,None,2204.0953436,None,2204.0953436,None,2204.0953436,None,2204.0953436,None,2204.0953436,None,2204.0953436,None,2205.0930284000005,None,2205.0930284000005,None,2,h,,,,,,,,,,,,,,,,,,11_12,001,2021_Feb_24_1329,ComputerHuman,2020.1.3,59.987174742368445,
Sychronize.jpg,Number10.jpg,,Human,Human.xlsx,2,h,10,,,,,1,2,10,6,0,8,8,9,,,,,,,,,,,,,,,,,,,,,,,,,,,,,,,,,,,,,,,,,,,,,,,,,,,,,,,,,,,,,2206.1229984,None,2206.1229984,None,2206.592311800001,None,2206.592311800001,None,"['v', 't']","[8.556517900000472, 9.560110599999462]",2206.592311800001,None,8.556517900000472,9.560110599999462,10,False,False,False,2218.6169279000005,None,2218.6169279000005,None,2218.6169279000005,None,2218.6169279000005,None,2218.6169279000005,None,2218.6169279000005,None,2218.6169279000005,None,2218.6169279000005,None,2219.629594799999,None,2219.629594799999,None,2,h,,,,,,,,,,,,,,,,,,11_12,001,2021_Feb_24_1329,ComputerHuman,2020.1.3,59.987174742368445,
Sychronize.jpg,Number7.jpg,,Human,Human.xlsx,2,h,7,,,,,1,2,10,6,0,9,9,2,,,,,,,,,,,,,,,,,,,,,,,,,,,,,,,,,,,,,,,,,,,,,,,,,,,,,,,,,,,,,2220.6542901999983,None,2220.6542901999983,None,2221.1285621000006,None,2221.1285621000006,None,"['t', 'v']","[7.600325800001883, 7.646911800002272]",2221.1285621000006,None,7.646911800002272,7.600325800001883,7,False,False,False,2232.8730252000005,None,2232.8730252000005,None,2232.8730252000005,None,2232.8730252000005,None,2232.8730252000005,None,2232.8730252000005,None,2232.8730252000005,None,2232.8730252000005,None,2233.9030187000008,None,2233.9030187000008,None,2,h,,,,,,,,,,,,,,,,,,11_12,001,2021_Feb_24_1329,ComputerHuman,2020.1.3,59.987174742368445,
,,,,Human.xlsx,2,h,,,,,,1,2,10,6,,,,,,,,,,,,,,,,,,,,,,,,,,,,,,,,,,,,,,,,,,,,,,,,,,,,,,,,,,,,,,,,,,,,,,,,,,,,,,,,,,,,,,,,,,,,,,,,,,,,,,,2,h,2234.8815369999993,None,c,0,1.1335192999977153,2235.8785334000004,None,2237.0518632000003,None,None,None,None,None,None,,,,11_12,001,2021_Feb_24_1329,ComputerHuman,2020.1.3,59.987174742368445,
Sychronize.jpg,Number8.jpg,,Computer,Computer.xlsx,2,c,8,,,,,1,3,11,7,0,0,0,4,,,,,,,,,,,,,,,,,,,,,,,,,,,,,,,,,,,,,,,,,,,,,,,,,,,,,,,,,2242.0690347,None,2242.0690347,None,2245.069745999999,None,2245.069745999999,None,2245.5502123999995,None,2245.5502123999995,None,"['t', 'v']","[7.442214899998362, 8.242511000000377]",2245.5502123999995,None,8.242511000000377,7.442214899998362,8,False,False,False,2257.201201400001,None,2257.201201400001,None,2257.201201400001,None,2257.201201400001,None,2257.201201400001,None,2257.201201400001,None,2257.201201400001,None,2257.201201400001,None,2258.2212328000005,None,2258.2212328000005,None,2,c,,,,,,,,,,,,,,,,,,11_12,001,2021_Feb_24_1329,ComputerHuman,2020.1.3,59.987174742368445,
Sychronize.jpg,Number6.jpg,,Computer,Computer.xlsx,2,c,6,,,,,1,3,11,7,0,1,1,1,,,,,,,,,,,,,,,,,,,,,,,,,,,,,,,,,,,,,,,,,,,,,,,,,,,,,,,,,,,,,2259.2232494,None,2259.2232494,None,2259.7198101999984,None,2259.7198101999984,None,"['t', 'v']","[5.416324999998324, 6.1805160000003525]",2259.7198101999984,None,6.1805160000003525,5.416324999998324,6,False,False,False,2269.469695900001,None,2269.469695900001,None,2269.469695900001,None,2269.469695900001,None,2269.469695900001,None,2269.469695900001,None,2269.469695900001,None,2269.469695900001,None,2270.4730547000017,None,2270.4730547000017,None,2,c,,,,,,,,,,,,,,,,,,11_12,001,2021_Feb_24_1329,ComputerHuman,2020.1.3,59.987174742368445,
Sychronize.jpg,Number9.jpg,,Computer,Computer.xlsx,2,c,9,,,,,1,3,11,7,0,2,2,7,,,,,,,,,,,,,,,,,,,,,,,,,,,,,,,,,,,,,,,,,,,,,,,,,,,,,,,,,,,,,2271.498071600001,None,2271.498071600001,None,2271.9729209000016,None,2271.9729209000016,None,"['t', 'v']","[8.471887499999866, 9.027640600001178]",2271.9729209000016,None,9.027640600001178,8.471887499999866,9,False,False,False,2284.7454129000016,None,2284.7454129000016,None,2284.7454129000016,None,2284.7454129000016,None,2284.7454129000016,None,2284.7454129000016,None,2284.7454129000016,None,2284.7454129000016,None,2285.7597822000007,None,2285.7597822000007,None,2,c,,,,,,,,,,,,,,,,,,11_12,001,2021_Feb_24_1329,ComputerHuman,2020.1.3,59.987174742368445,
Sychronize.jpg,Number10.jpg,,Computer,Computer.xlsx,2,c,10,,,,,1,3,11,7,0,3,3,9,,,,,,,,,,,,,,,,,,,,,,,,,,,,,,,,,,,,,,,,,,,,,,,,,,,,,,,,,,,,,2286.779199800001,None,2286.779199800001,None,2287.2590967000015,None,2287.2590967000015,None,"['t', 'v']","[8.093503000000055, 8.409353199996985]",2287.2590967000015,None,8.409353199996985,8.093503000000055,10,False,False,False,2299.247399400001,None,2299.247399400001,None,2299.247399400001,None,2299.247399400001,None,2299.247399400001,None,2299.247399400001,None,2299.247399400001,None,2299.247399400001,None,2300.264307200001,None,2300.264307200001,None,2,c,,,,,,,,,,,,,,,,,,11_12,001,2021_Feb_24_1329,ComputerHuman,2020.1.3,59.987174742368445,
Sychronize.jpg,Number7.jpg,,Computer,Computer.xlsx,2,c,7,,,,,1,3,11,7,0,4,4,3,,,,,,,,,,,,,,,,,,,,,,,,,,,,,,,,,,,,,,,,,,,,,,,,,,,,,,,,,,,,,2301.2820088999997,None,2301.2820088999997,None,2301.7615255,None,2301.7615255,None,"['t', 'v']","[5.666789399998379, 7.486807299999782]",2301.7615255,None,7.486807299999782,5.666789399998379,7,False,False,False,2313.3080954000015,None,2313.3080954000015,None,2313.3080954000015,None,2313.3080954000015,None,2313.3080954000015,None,2313.3080954000015,None,2313.3080954000015,None,2313.3080954000015,None,2314.3151148000015,None,2314.3151148000015,None,2,c,,,,,,,,,,,,,,,,,,11_12,001,2021_Feb_24_1329,ComputerHuman,2020.1.3,59.987174742368445,
Sychronize.jpg,Number10.jpg,,Computer,Computer.xlsx,2,c,10,,,,,1,3,11,7,0,5,5,8,,,,,,,,,,,,,,,,,,,,,,,,,,,,,,,,,,,,,,,,,,,,,,,,,,,,,,,,,,,,,2315.3349265000015,None,2315.3349265000015,None,2315.814406299998,None,2315.814406299998,None,"['v', 't']","[8.293843200000993, 9.246160200000304]",2315.814406299998,None,8.293843200000993,9.246160200000304,10,False,False,False,2326.9695871999993,None,2326.9695871999993,None,2326.9695871999993,None,2326.9695871999993,None,2326.9695871999993,None,2326.9695871999993,None,2326.9695871999993,None,2326.9695871999993,None,2327.9845974,None,2327.9845974,None,2,c,,,,,,,,,,,,,,,,,,11_12,001,2021_Feb_24_1329,ComputerHuman,2020.1.3,59.987174742368445,
Sychronize.jpg,Number8.jpg,,Computer,Computer.xlsx,2,c,8,,,,,1,3,11,7,0,6,6,5,,,,,,,,,,,,,,,,,,,,,,,,,,,,,,,,,,,,,,,,,,,,,,,,,,,,,,,,,,,,,2329.010734900001,None,2329.010734900001,None,2329.4838250999983,None,2329.4838250999983,None,"['v', 't']","[5.904693000000407, 7.935304600003292]",2329.4838250999983,None,5.904693000000407,7.935304600003292,8,False,False,False,2339.3077135000003,None,2339.3077135000003,None,2339.3077135000003,None,2339.3077135000003,None,2339.3077135000003,None,2339.3077135000003,None,2339.3077135000003,None,2339.3077135000003,None,2340.340697400001,None,2340.340697400001,None,2,c,,,,,,,,,,,,,,,,,,11_12,001,2021_Feb_24_1329,ComputerHuman,2020.1.3,59.987174742368445,
Sychronize.jpg,Number6.jpg,,Computer,Computer.xlsx,2,c,6,,,,,1,3,11,7,0,7,7,0,,,,,,,,,,,,,,,,,,,,,,,,,,,,,,,,,,,,,,,,,,,,,,,,,,,,,,,,,,,,,2341.3457184000017,None,2341.3457184000017,None,2341.819717100001,None,2341.819717100001,None,"['t', 'v']","[5.601165100000799, 6.88875950000147]",2341.819717100001,None,6.88875950000147,5.601165100000799,6,False,False,False,2350.5910839000007,None,2350.5910839000007,None,2350.5910839000007,None,2350.5910839000007,None,2350.5910839000007,None,2350.5910839000007,None,2350.5910839000007,None,2350.5910839000007,None,2351.6062189999993,None,2351.6062189999993,None,2,c,,,,,,,,,,,,,,,,,,11_12,001,2021_Feb_24_1329,ComputerHuman,2020.1.3,59.987174742368445,
Sychronize.jpg,Number9.jpg,,Computer,Computer.xlsx,2,c,9,,,,,1,3,11,7,0,8,8,6,,,,,,,,,,,,,,,,,,,,,,,,,,,,,,,,,,,,,,,,,,,,,,,,,,,,,,,,,,,,,2352.6258112000014,None,2352.6258112000014,None,2353.1055204999993,None,2353.1055204999993,None,"['v', 't']","[7.539041600000928, 8.135062800000014]",2353.1055204999993,None,7.539041600000928,8.135062800000014,9,False,False,False,2362.9779053,None,2362.9779053,None,2362.9779053,None,2362.9779053,None,2362.9779053,None,2362.9779053,None,2362.9779053,None,2362.9779053,None,2363.992772399999,None,2363.992772399999,None,2,c,,,,,,,,,,,,,,,,,,11_12,001,2021_Feb_24_1329,ComputerHuman,2020.1.3,59.987174742368445,
Sychronize.jpg,Number7.jpg,,Computer,Computer.xlsx,2,c,7,,,,,1,3,11,7,0,9,9,2,,,,,,,,,,,,,,,,,,,,,,,,,,,,,,,,,,,,,,,,,,,,,,,,,,,,,,,,,,,,,2365.0110570000015,None,2365.0110570000015,None,2365.4913768999995,None,2365.4913768999995,None,"['t', 'v']","[5.728907100001379, 6.317150099999708]",2365.4913768999995,None,6.317150099999708,5.728907100001379,7,False,False,False,2375.0985315000016,None,2375.0985315000016,None,2375.0985315000016,None,2375.0985315000016,None,2375.0985315000016,None,2375.0985315000016,None,2375.0985315000016,None,2375.0985315000016,None,2376.1112004000006,None,2376.1112004000006,None,2,c,,,,,,,,,,,,,,,,,,11_12,001,2021_Feb_24_1329,ComputerHuman,2020.1.3,59.987174742368445,
,,,,Computer.xlsx,2,c,,,,,,1,3,11,7,,,,,,,,,,,,,,,,,,,,,,,,,,,,,,,,,,,,,,,,,,,,,,,,,,,,,,,,,,,,,,,,,,,,,,,,,,,,,,,,,,,,,,,,,,,,,,,,,,,,,,,2,c,2377.110552699998,None,h,0,1.368931099998008,2378.1071137000017,None,None,None,2379.5159799999983,None,"['space', 'space']",2380.5077255999986,None,"[0.5005275000003166, 6.719549500001449]",,,11_12,001,2021_Feb_24_1329,ComputerHuman,2020.1.3,59.987174742368445,
Sychronize.jpg,Number7.jpg,,Computer,Computer.xlsx,2,c,7,,,,,1,4,12,5,0,0,0,2,,,,,,,,,,,,,,,,,,,,,,,,,,,,,,,,,,,,,,,,,,,,,,,,,,,,,,,,,2387.2849613000017,None,2387.2849613000017,None,2390.3145185999983,None,2390.3145185999983,None,2390.7782859000017,None,2390.7782859000017,None,"['t', 'v']","[5.893948199998704, 8.71723529999872]",2390.7782859000017,None,8.71723529999872,5.893948199998704,7,False,False,False,2402.5683235999986,None,2402.5683235999986,None,2402.5683235999986,None,2402.5683235999986,None,2402.5683235999986,None,2402.5683235999986,None,2402.5683235999986,None,2402.5683235999986,None,2403.5830880999983,None,2403.5830880999983,None,2,c,,,,,,,,,,,,,,,,,,11_12,001,2021_Feb_24_1329,ComputerHuman,2020.1.3,59.987174742368445,
Sychronize.jpg,Number10.jpg,,Computer,Computer.xlsx,2,c,10,,,,,1,4,12,5,0,1,1,8,,,,,,,,,,,,,,,,,,,,,,,,,,,,,,,,,,,,,,,,,,,,,,,,,,,,,,,,,,,,,2404.6030164999993,None,2404.6030164999993,None,2405.0826786000016,None,2405.0826786000016,None,"['v', 't']","[7.897463300003437, 8.833425300003]",2405.0826786000016,None,7.897463300003437,8.833425300003,10,False,False,False,2415.9895048000017,None,2415.9895048000017,None,2415.9895048000017,None,2415.9895048000017,None,2415.9895048000017,None,2415.9895048000017,None,2415.9895048000017,None,2415.9895048000017,None,2417.0034625999997,None,2417.0034625999997,None,2,c,,,,,,,,,,,,,,,,,,11_12,001,2021_Feb_24_1329,ComputerHuman,2020.1.3,59.987174742368445,
Sychronize.jpg,Number8.jpg,,Computer,Computer.xlsx,2,c,8,,,,,1,4,12,5,0,2,2,4,,,,,,,,,,,,,,,,,,,,,,,,,,,,,,,,,,,,,,,,,,,,,,,,,,,,,,,,,,,,,2418.0282405000016,None,2418.0282405000016,None,2418.5010318000004,None,2418.5010318000004,None,"['v', 't']","[6.411216299999069, 7.987271599999076]",2418.5010318000004,None,6.411216299999069,7.987271599999076,8,False,False,False,2428.8092815,None,2428.8092815,None,2428.8092815,None,2428.8092815,None,2428.8092815,None,2428.8092815,None,2428.8092815,None,2428.8092815,None,2429.822915300001,None,2429.822915300001,None,2,c,,,,,,,,,,,,,,,,,,11_12,001,2021_Feb_24_1329,ComputerHuman,2020.1.3,59.987174742368445,
Sychronize.jpg,Number9.jpg,,Computer,Computer.xlsx,2,c,9,,,,,1,4,12,5,0,3,3,6,,,,,,,,,,,,,,,,,,,,,,,,,,,,,,,,,,,,,,,,,,,,,,,,,,,,,,,,,,,,,2430.841499,None,2430.841499,None,2431.320123899999,None,2431.320123899999,None,"['v', 't']","[7.108050300001196, 9.132248900001287]",2431.320123899999,None,7.108050300001196,9.132248900001287,9,False,False,False,2442.1721777000002,None,2442.1721777000002,None,2442.1721777000002,None,2442.1721777000002,None,2442.1721777000002,None,2442.1721777000002,None,2442.1721777000002,None,2442.1721777000002,None,2443.192129699999,None,2443.192129699999,None,2,c,,,,,,,,,,,,,,,,,,11_12,001,2021_Feb_24_1329,ComputerHuman,2020.1.3,59.987174742368445,
Sychronize.jpg,Number7.jpg,,Computer,Computer.xlsx,2,c,7,,,,,1,4,12,5,0,4,4,3,,,,,,,,,,,,,,,,,,,,,,,,,,,,,,,,,,,,,,,,,,,,,,,,,,,,,,,,,,,,,2444.2100401000007,None,2444.2100401000007,None,2444.690717899999,None,2444.690717899999,None,"['t', 'v']","[6.348641699998552, 7.86146060000101]",2444.690717899999,None,7.86146060000101,6.348641699998552,7,False,False,False,2454.5367395999983,None,2454.5367395999983,None,2454.5367395999983,None,2454.5367395999983,None,2454.5367395999983,None,2454.5367395999983,None,2454.5367395999983,None,2454.5367395999983,None,2455.5436530999996,None,2455.5436530999996,None,2,c,,,,,,,,,,,,,,,,,,11_12,001,2021_Feb_24_1329,ComputerHuman,2020.1.3,59.987174742368445,
Sychronize.jpg,Number6.jpg,,Computer,Computer.xlsx,2,c,6,,,,,1,4,12,5,0,5,5,1,,,,,,,,,,,,,,,,,,,,,,,,,,,,,,,,,,,,,,,,,,,,,,,,,,,,,,,,,,,,,2456.5697616999987,None,2456.5697616999987,None,2457.043186500001,None,2457.043186500001,None,"['v', 't']","[3.9728555000001506, 5.356898900001397]",2457.043186500001,None,3.9728555000001506,5.356898900001397,6,False,False,False,2464.0363879000015,None,2464.0363879000015,None,2464.0363879000015,None,2464.0363879000015,None,2464.0363879000015,None,2464.0363879000015,None,2464.0363879000015,None,2464.0363879000015,None,2465.0467732000016,None,2465.0467732000016,None,2,c,,,,,,,,,,,,,,,,,,11_12,001,2021_Feb_24_1329,ComputerHuman,2020.1.3,59.987174742368445,
Sychronize.jpg,Number9.jpg,,Computer,Computer.xlsx,2,c,9,,,,,1,4,12,5,0,6,6,7,,,,,,,,,,,,,,,,,,,,,,,,,,,,,,,,,,,,,,,,,,,,,,,,,,,,,,,,,,,,,2466.0728,None,2466.0728,None,2466.545583199999,None,2466.545583199999,None,"['v', 't']","[6.690619599998172, 7.242666899997857]",2466.545583199999,None,6.690619599998172,7.242666899997857,9,False,False,False,2476.1568702999994,None,2476.1568702999994,None,2476.1568702999994,None,2476.1568702999994,None,2476.1568702999994,None,2476.1568702999994,None,2476.1568702999994,None,2476.1568702999994,None,2477.1647187,None,2477.1647187,None,2,c,,,,,,,,,,,,,,,,,,11_12,001,2021_Feb_24_1329,ComputerHuman,2020.1.3,59.987174742368445,
Sychronize.jpg,Number8.jpg,,Computer,Computer.xlsx,2,c,8,,,,,1,4,12,5,0,7,7,5,,,,,,,,,,,,,,,,,,,,,,,,,,,,,,,,,,,,,,,,,,,,,,,,,,,,,,,,,,,,,2478.183716900001,None,2478.183716900001,None,2478.6827216,None,2478.6827216,None,"['t', 'v']","[8.445347100001527, 9.381785800000216]",2478.6827216,None,9.381785800000216,8.445347100001527,8,False,False,False,2490.5738972000017,None,2490.5738972000017,None,2490.5738972000017,None,2490.5738972000017,None,2490.5738972000017,None,2490.5738972000017,None,2490.5738972000017,None,2490.5738972000017,None,2491.5841138000014,None,2491.5841138000014,None,2,c,,,,,,,,,,,,,,,,,,11_12,001,2021_Feb_24_1329,ComputerHuman,2020.1.3,59.987174742368445,
Sychronize.jpg,Number10.jpg,,Computer,Computer.xlsx,2,c,10,,,,,1,4,12,5,0,8,8,9,,,,,,,,,,,,,,,,,,,,,,,,,,,,,,,,,,,,,,,,,,,,,,,,,,,,,,,,,,,,,2492.603425200001,None,2492.603425200001,None,2493.0838252000012,None,2493.0838252000012,None,"['v', 't']","[6.979609400001209, 7.244294200001605]",2493.0838252000012,None,6.979609400001209,7.244294200001605,10,False,False,False,2502.567596499999,None,2502.567596499999,None,2502.567596499999,None,2502.567596499999,None,2502.567596499999,None,2502.567596499999,None,2502.567596499999,None,2502.567596499999,None,2503.5872284999987,None,2503.5872284999987,None,2,c,,,,,,,,,,,,,,,,,,11_12,001,2021_Feb_24_1329,ComputerHuman,2020.1.3,59.987174742368445,
