Sychronize,NumberImage,NumberPr,Partner,Condition,TuringResponsePlayer,CorrectTuringReply,Number,trials.thisRepN,trials.thisTrialN,trials.thisN,trials.thisIndex,Block.thisRepN,Block.thisTrialN,Block.thisN,Block.thisIndex,trials_loop.thisRepN,trials_loop.thisTrialN,trials_loop.thisN,trials_loop.thisIndex,textLeft.started,textLeft.stopped,textRight.started,textRight.stopped,key_resp_Istr.keys,key_resp_Istr.rt,key_resp_Istr.started,key_resp_Istr.stopped,SychroLeftPr.started,SychroLeftPr.stopped,SychroRightPr.started,SychroRightPr.stopped,NumberLeftPr.started,NumberLeftPr.stopped,NumberRightPr.started,NumberRightPr.stopped,CrossLeftPr.started,CrossLeftPr.stopped,CrossRightPr.started,CrossRightPr.stopped,key_respPr.keys,key_respPr.rt,key_respPr.started,key_respPr.stopped,RTLeftPr,RTRightPr,CompPr,SychronizedRTsPr,SychronizedRTsLeftCPr,SychronizedRTsRightCPr,FeedbackLeftLeftPr.started,FeedbackLeftLeftPr.stopped,FeedbackLeftRightPr.started,FeedbackLeftRightPr.stopped,FeedbackRightLeftPr.started,FeedbackRightLeftPr.stopped,FeedbackRightRightPr.started,FeedbackRightRightPr.stopped,textLeftLeftPr.started,textLeftLeftPr.stopped,textLeftRightPr.started,textLeftRightPr.stopped,textRightLeftPr.started,textRightLeftPr.stopped,textRightRightPr.started,textRightRightPr.stopped,CreditLeftPr.started,CreditLeftPr.stopped,CreditRightPr.started,CreditRightPr.stopped,text_StartExp.started,text_StartExp.stopped,key_startExp.keys,key_startExp.rt,key_startExp.started,key_startExp.stopped,SychroLeft.started,SychroLeft.stopped,SychroRight.started,SychroRight.stopped,NumberLeft.started,NumberLeft.stopped,NumberRight.started,NumberRight.stopped,CrossLeft.started,CrossLeft.stopped,CrossRight.started,CrossRight.stopped,key_resp.keys,key_resp.rt,key_resp.started,key_resp.stopped,RTLeft,RTRight,Comp,SychronizedRTs,SychronizedRTsLeftC,SychronizedRTsRightC,FeedbackLeftLeft.started,FeedbackLeftLeft.stopped,FeedbackLeftRight.started,FeedbackLeftRight.stopped,FeedbackRightLeft.started,FeedbackRightLeft.stopped,FeedbackRightRight.started,FeedbackRightRight.stopped,textLeftLeft.started,textLeftLeft.stopped,textLeftRight.started,textLeftRight.stopped,textRightLeft.started,textRightLeft.stopped,textRightRight.started,textRightRight.stopped,CreditLeft.started,CreditLeft.stopped,CreditRight.started,CreditRight.stopped,TuringResponsePlayer,CorrectTuringReply,Turingtext.started,Turingtext.stopped,key_resp_2.keys,key_resp_2.corr,key_resp_2.rt,key_resp_2.started,key_resp_2.stopped,BlockText.started,BlockText.stopped,text_Pause.started,text_Pause.stopped,key_respPause.keys,key_respPause.started,key_respPause.stopped,key_respPause.rt,EndText.started,EndText.stopped,participant,session,date,expName,psychopyVersion,frameRate,
,,,,,,,,,,,,,,,,,,,,18.793556600001466,None,18.793556600001466,None,"['v', 'v', 't']","[567.1366624000002, 571.0400236000023, 587.2330126000015]",19.76508499999909,None,,,,,,,,,,,,,,,,,,,,,,,,,,,,,,,,,,,,,,,,,,,,,,,,,,,,,,,,,,,,,,,,,,,,,,,,,,,,,,,,,,,,,,,,,,,,,,,,,,,,,,,,,,,,,,13_14,001,2021_Feb_24_1449,ComputerHuman,2020.1.3,59.89071142947659,
Sychronize.jpg,Number9.jpg,9,Human,,,,,0,0,0,3,,,,,,,,,,,,,,,,,607.0407128000006,None,607.0407128000006,None,610.1002178000017,None,610.1002178000017,None,610.5617832999997,None,610.5617832999997,None,"['v', 't']","[8.880636000001687, 9.300561500000185]",610.5617832999997,None,8.880636000001687,9.300561500000185,9,False,False,False,621.6384743000017,None,621.6384743000017,None,621.6384743000017,None,621.6384743000017,None,621.6384743000017,None,621.6384743000017,None,621.6384743000017,None,621.6384743000017,None,622.6406982000008,None,622.6406982000008,None,,,,,,,,,,,,,,,,,,,,,,,,,,,,,,,,,,,,,,,,,,,,,,,,,,,,,,,,,,,,,,,,,,,,13_14,001,2021_Feb_24_1449,ComputerHuman,2020.1.3,59.89071142947659,
Sychronize.jpg,Number7.jpg,7,Computer,,,,,0,1,1,1,,,,,,,,,,,,,,,,,,,,,623.6646363,None,623.6646363,None,624.1388864,None,624.1388864,None,"['v', 't']","[6.558149899999989, 6.903260899998713]",624.1388864,None,6.558149899999989,6.903260899998713,7,False,False,False,632.5892186000019,None,632.5892186000019,None,632.5892186000019,None,632.5892186000019,None,632.5892186000019,None,632.5892186000019,None,632.5892186000019,None,632.5892186000019,None,633.6094188999996,None,633.6094188999996,None,,,,,,,,,,,,,,,,,,,,,,,,,,,,,,,,,,,,,,,,,,,,,,,,,,,,,,,,,,,,,,,,,,,,13_14,001,2021_Feb_24_1449,ComputerHuman,2020.1.3,59.89071142947659,
Sychronize.jpg,Number10.jpg,10,Computer,,,,,0,2,2,4,,,,,,,,,,,,,,,,,,,,,634.6275671000003,None,634.6275671000003,None,635.1078266000004,None,635.1078266000004,None,"['v', 't']","[7.410342399998626, 9.481933699997171]",635.1078266000004,None,7.410342399998626,9.481933699997171,10,False,False,False,646.5478635,None,646.5478635,None,646.5478635,None,646.5478635,None,646.5478635,None,646.5478635,None,646.5478635,None,646.5478635,None,647.5622877999995,None,647.5622877999995,None,,,,,,,,,,,,,,,,,,,,,,,,,,,,,,,,,,,,,,,,,,,,,,,,,,,,,,,,,,,,,,,,,,,,13_14,001,2021_Feb_24_1449,ComputerHuman,2020.1.3,59.89071142947659,
Sychronize.jpg,Number6.jpg,6,Human,,,,,0,3,3,5,,,,,,,,,,,,,,,,,,,,,648.5857230000001,None,648.5857230000001,None,649.0604934000003,None,649.0604934000003,None,"['v', 't']","[2.496962400000484, 7.209700499999599]",649.0604934000003,None,2.496962400000484,7.209700499999599,6,False,False,False,657.878029200001,None,657.878029200001,None,657.878029200001,None,657.878029200001,None,657.878029200001,None,657.878029200001,None,657.878029200001,None,657.878029200001,None,658.8813083999994,None,658.8813083999994,None,,,,,,,,,,,,,,,,,,,,,,,,,,,,,,,,,,,,,,,,,,,,,,,,,,,,,,,,,,,,,,,,,,,,13_14,001,2021_Feb_24_1449,ComputerHuman,2020.1.3,59.89071142947659,
Sychronize.jpg,Number8.jpg,8,Computer,,,,,0,4,4,2,,,,,,,,,,,,,,,,,,,,,659.9058670000013,None,659.9058670000013,None,660.3795582999992,None,660.3795582999992,None,"['t', 'v']","[7.642185700002301, 8.134837500001595]",660.3795582999992,None,8.134837500001595,7.642185700002301,8,False,False,False,672.1522611,None,672.1522611,None,672.1522611,None,672.1522611,None,672.1522611,None,672.1522611,None,672.1522611,None,672.1522611,None,673.1662739000021,None,673.1662739000021,None,,,,,,,,,,,,,,,,,,,,,,,,,,,,,,,,,,,,,,,,,,,,,,,,,,,,,,,,,,,,,,,,,,,,13_14,001,2021_Feb_24_1449,ComputerHuman,2020.1.3,59.89071142947659,
Sychronize.jpg,Number6.jpg,6,Human,,,,,0,5,5,0,,,,,,,,,,,,,,,,,,,,,674.1905597000004,None,674.1905597000004,None,674.6642008000017,None,674.6642008000017,None,"['v', 't']","[5.50209729999915, 5.662099999997736]",674.6642008000017,None,5.50209729999915,5.662099999997736,6,False,False,False,682.7992674999987,None,682.7992674999987,None,682.7992674999987,None,682.7992674999987,None,682.7992674999987,None,682.7992674999987,None,682.7992674999987,None,682.7992674999987,None,683.843128200002,None,683.843128200002,None,,,,,,,,,,,,,,,,,,,,,,,,,,,,,,,,,,,,,,,,,,,,,,,,,,,,,,,,,,,,,,,,,,,,13_14,001,2021_Feb_24_1449,ComputerHuman,2020.1.3,59.89071142947659,
,,,,,,,,,,,,,,,,,,,,,,,,,,,,,,,,,,,,,,,,,,,,,,,,,,,,,,,,,,,,,,,,,,,,,,684.8035221999999,None,"['space', 'space']","[1.1520183999964502, 2.7722532999978284]",685.7980123999987,None,,,,,,,,,,,,,,,,,,,,,,,,,,,,,,,,,,,,,,,,,,,,,,,,,,,,,,,,,,,,,,13_14,001,2021_Feb_24_1449,ComputerHuman,2020.1.3,59.89071142947659,
Sychronize.jpg,Number8.jpg,,Computer,Computer.xlsx,1,c,8,,,,,0,0,0,3,0,0,0,4,,,,,,,,,,,,,,,,,,,,,,,,,,,,,,,,,,,,,,,,,,,,,,,,,,,,,,,,,688.6236816000019,None,688.6236816000019,None,691.6397584000006,None,691.6397584000006,None,692.1204031999987,None,692.1204031999987,None,"['v', 't']","[7.873816899998928, 8.983993999998347]",692.1204031999987,None,7.873816899998928,8.983993999998347,8,False,False,False,703.6250012000019,None,703.6250012000019,None,703.6250012000019,None,703.6250012000019,None,703.6250012000019,None,703.6250012000019,None,703.6250012000019,None,703.6250012000019,None,704.6471449000019,None,704.6471449000019,None,1,c,,,,,,,,,,,,,,,,,,13_14,001,2021_Feb_24_1449,ComputerHuman,2020.1.3,59.89071142947659,
Sychronize.jpg,Number9.jpg,,Computer,Computer.xlsx,1,c,9,,,,,0,0,0,3,0,1,1,7,,,,,,,,,,,,,,,,,,,,,,,,,,,,,,,,,,,,,,,,,,,,,,,,,,,,,,,,,,,,,705.6695307000009,None,705.6695307000009,None,706.1394409999994,None,706.1394409999994,None,"['v', 't']","[8.230421000000206, 9.313716699998622]",706.1394409999994,None,8.230421000000206,9.313716699998622,9,False,False,False,717.2104528000018,None,717.2104528000018,None,717.2104528000018,None,717.2104528000018,None,717.2104528000018,None,717.2104528000018,None,717.2104528000018,None,717.2104528000018,None,718.2257391999992,None,718.2257391999992,None,1,c,,,,,,,,,,,,,,,,,,13_14,001,2021_Feb_24_1449,ComputerHuman,2020.1.3,59.89071142947659,
Sychronize.jpg,Number7.jpg,,Computer,Computer.xlsx,1,c,7,,,,,0,0,0,3,0,2,2,2,,,,,,,,,,,,,,,,,,,,,,,,,,,,,,,,,,,,,,,,,,,,,,,,,,,,,,,,,,,,,719.2454227999988,None,719.2454227999988,None,719.7252611000004,None,719.7252611000004,None,"['v', 't']","[3.3979161999995995, 6.860911700001452]",719.7252611000004,None,3.3979161999995995,6.860911700001452,7,False,False,False,728.5427039999995,None,728.5427039999995,None,728.5427039999995,None,728.5427039999995,None,728.5427039999995,None,728.5427039999995,None,728.5427039999995,None,728.5427039999995,None,729.5621448999991,None,729.5621448999991,None,1,c,,,,,,,,,,,,,,,,,,13_14,001,2021_Feb_24_1449,ComputerHuman,2020.1.3,59.89071142947659,
Sychronize.jpg,Number7.jpg,,Computer,Computer.xlsx,1,c,7,,,,,0,0,0,3,0,3,3,3,,,,,,,,,,,,,,,,,,,,,,,,,,,,,,,,,,,,,,,,,,,,,,,,,,,,,,,,,,,,,730.5681833999988,None,730.5681833999988,None,731.0609579000011,None,731.0609579000011,None,"['v', 't']","[6.729233399997611, 6.821168899998156]",731.0609579000011,None,6.729233399997611,6.821168899998156,7,False,False,False,739.7970033999991,None,739.7970033999991,None,739.7970033999991,None,739.7970033999991,None,739.7970033999991,None,739.7970033999991,None,739.7970033999991,None,739.7970033999991,None,740.8361136000021,None,740.8361136000021,None,1,c,,,,,,,,,,,,,,,,,,13_14,001,2021_Feb_24_1449,ComputerHuman,2020.1.3,59.89071142947659,
Sychronize.jpg,Number10.jpg,,Computer,Computer.xlsx,1,c,10,,,,,0,0,0,3,0,4,4,8,,,,,,,,,,,,,,,,,,,,,,,,,,,,,,,,,,,,,,,,,,,,,,,,,,,,,,,,,,,,,741.8326770999993,None,741.8326770999993,None,742.3130996,None,742.3130996,None,"['v', 't']","[9.536954699997295, 10.444786899999599]",742.3130996,None,9.536954699997295,10.444786899999599,10,False,False,False,754.4474594999992,None,754.4474594999992,None,754.4474594999992,None,754.4474594999992,None,754.4474594999992,None,754.4474594999992,None,754.4474594999992,None,754.4474594999992,None,755.4663723000012,None,755.4663723000012,None,1,c,,,,,,,,,,,,,,,,,,13_14,001,2021_Feb_24_1449,ComputerHuman,2020.1.3,59.89071142947659,
Sychronize.jpg,Number6.jpg,,Computer,Computer.xlsx,1,c,6,,,,,0,0,0,3,0,5,5,1,,,,,,,,,,,,,,,,,,,,,,,,,,,,,,,,,,,,,,,,,,,,,,,,,,,,,,,,,,,,,756.4919241999996,None,756.4919241999996,None,756.9657102000019,None,756.9657102000019,None,"['t', 'v']","[6.00428870000178, 6.3503706000010425]",756.9657102000019,None,6.3503706000010425,6.00428870000178,6,False,False,False,766.4217276999989,None,766.4217276999989,None,766.4217276999989,None,766.4217276999989,None,766.4217276999989,None,766.4217276999989,None,766.4217276999989,None,766.4217276999989,None,767.437096900001,None,767.437096900001,None,1,c,,,,,,,,,,,,,,,,,,13_14,001,2021_Feb_24_1449,ComputerHuman,2020.1.3,59.89071142947659,
Sychronize.jpg,Number6.jpg,,Computer,Computer.xlsx,1,c,6,,,,,0,0,0,3,0,6,6,0,,,,,,,,,,,,,,,,,,,,,,,,,,,,,,,,,,,,,,,,,,,,,,,,,,,,,,,,,,,,,768.4552776000019,None,768.4552776000019,None,768.9344070000006,None,768.9344070000006,None,"['v', 't']","[4.361999299999297, 6.377982899997733]",768.9344070000006,None,4.361999299999297,6.377982899997733,6,False,False,False,777.0380659000002,None,777.0380659000002,None,777.0380659000002,None,777.0380659000002,None,777.0380659000002,None,777.0380659000002,None,777.0380659000002,None,777.0380659000002,None,778.0375039999999,None,778.0375039999999,None,1,c,,,,,,,,,,,,,,,,,,13_14,001,2021_Feb_24_1449,ComputerHuman,2020.1.3,59.89071142947659,
Sychronize.jpg,Number9.jpg,,Computer,Computer.xlsx,1,c,9,,,,,0,0,0,3,0,7,7,6,,,,,,,,,,,,,,,,,,,,,,,,,,,,,,,,,,,,,,,,,,,,,,,,,,,,,,,,,,,,,779.0574778000009,None,779.0574778000009,None,779.5383490999993,None,779.5383490999993,None,"['v', 't']","[8.463066000000254, 8.843741000000591]",779.5383490999993,None,8.463066000000254,8.843741000000591,9,False,False,False,790.837138400002,None,790.837138400002,None,790.837138400002,None,790.837138400002,None,790.837138400002,None,790.837138400002,None,790.837138400002,None,790.837138400002,None,791.8784630000009,None,791.8784630000009,None,1,c,,,,,,,,,,,,,,,,,,13_14,001,2021_Feb_24_1449,ComputerHuman,2020.1.3,59.89071142947659,
Sychronize.jpg,Number8.jpg,,Computer,Computer.xlsx,1,c,8,,,,,0,0,0,3,0,8,8,5,,,,,,,,,,,,,,,,,,,,,,,,,,,,,,,,,,,,,,,,,,,,,,,,,,,,,,,,,,,,,792.8646668000001,None,792.8646668000001,None,793.3405292999996,None,793.3405292999996,None,"['v', 't']","[7.021453099998325, 8.365102100000513]",793.3405292999996,None,7.021453099998325,8.365102100000513,8,False,False,False,803.3918266000001,None,803.3918266000001,None,803.3918266000001,None,803.3918266000001,None,803.3918266000001,None,803.3918266000001,None,803.3918266000001,None,803.3918266000001,None,804.3929510000016,None,804.3929510000016,None,1,c,,,,,,,,,,,,,,,,,,13_14,001,2021_Feb_24_1449,ComputerHuman,2020.1.3,59.89071142947659,
Sychronize.jpg,Number10.jpg,,Computer,Computer.xlsx,1,c,10,,,,,0,0,0,3,0,9,9,9,,,,,,,,,,,,,,,,,,,,,,,,,,,,,,,,,,,,,,,,,,,,,,,,,,,,,,,,,,,,,805.4189909999986,None,805.4189909999986,None,805.8926068000001,None,805.8926068000001,None,"['v', 't']","[9.535815200000798, 9.889673100002256]",805.8926068000001,None,9.535815200000798,9.889673100002256,10,False,False,False,818.1266364000003,None,818.1266364000003,None,818.1266364000003,None,818.1266364000003,None,818.1266364000003,None,818.1266364000003,None,818.1266364000003,None,818.1266364000003,None,819.1668661000003,None,819.1668661000003,None,1,c,,,,,,,,,,,,,,,,,,13_14,001,2021_Feb_24_1449,ComputerHuman,2020.1.3,59.89071142947659,
,,,,Computer.xlsx,1,c,,,,,,0,0,0,3,,,,,,,,,,,,,,,,,,,,,,,,,,,,,,,,,,,,,,,,,,,,,,,,,,,,,,,,,,,,,,,,,,,,,,,,,,,,,,,,,,,,,,,,,,,,,,,,,,,,,,,1,c,820.1452782999986,None,c,1,7.787862100001803,821.1420221000008,None,828.9702590000015,None,None,None,None,None,None,,,,13_14,001,2021_Feb_24_1449,ComputerHuman,2020.1.3,59.89071142947659,
Sychronize.jpg,Number9.jpg,,Computer,Computer.xlsx,2,c,9,,,,,0,1,1,7,0,0,0,6,,,,,,,,,,,,,,,,,,,,,,,,,,,,,,,,,,,,,,,,,,,,,,,,,,,,,,,,,834.0060197000021,None,834.0060197000021,None,837.0183868999993,None,837.0183868999993,None,837.4821249999986,None,837.4821249999986,None,"['t', 'v']","[8.279789099997288, 9.491647299997567]",837.4821249999986,None,9.491647299997567,8.279789099997288,9,False,False,False,849.0776842999985,None,849.0776842999985,None,849.0776842999985,None,849.0776842999985,None,849.0776842999985,None,849.0776842999985,None,849.0776842999985,None,849.0776842999985,None,850.0855884000011,None,850.0855884000011,None,2,c,,,,,,,,,,,,,,,,,,13_14,001,2021_Feb_24_1449,ComputerHuman,2020.1.3,59.89071142947659,
Sychronize.jpg,Number8.jpg,,Computer,Computer.xlsx,2,c,8,,,,,0,1,1,7,0,1,1,5,,,,,,,,,,,,,,,,,,,,,,,,,,,,,,,,,,,,,,,,,,,,,,,,,,,,,,,,,,,,,851.1047241999986,None,851.1047241999986,None,851.5851819000018,None,851.5851819000018,None,"['v', 't']","[6.424839999999676, 8.14052310000261]",851.5851819000018,None,6.424839999999676,8.14052310000261,8,False,False,False,861.4197626999994,None,861.4197626999994,None,861.4197626999994,None,861.4197626999994,None,861.4197626999994,None,861.4197626999994,None,861.4197626999994,None,861.4197626999994,None,862.4393111999998,None,862.4393111999998,None,2,c,,,,,,,,,,,,,,,,,,13_14,001,2021_Feb_24_1449,ComputerHuman,2020.1.3,59.89071142947659,
Sychronize.jpg,Number7.jpg,,Computer,Computer.xlsx,2,c,7,,,,,0,1,1,7,0,2,2,3,,,,,,,,,,,,,,,,,,,,,,,,,,,,,,,,,,,,,,,,,,,,,,,,,,,,,,,,,,,,,863.4631859000001,None,863.4631859000001,None,863.957250899999,None,863.957250899999,None,"['v', 't']","[5.984037700000044, 6.900666900000942]",863.957250899999,None,5.984037700000044,6.900666900000942,7,False,False,False,873.0979345000014,None,873.0979345000014,None,873.0979345000014,None,873.0979345000014,None,873.0979345000014,None,873.0979345000014,None,873.0979345000014,None,873.0979345000014,None,874.1077702000002,None,874.1077702000002,None,2,c,,,,,,,,,,,,,,,,,,13_14,001,2021_Feb_24_1449,ComputerHuman,2020.1.3,59.89071142947659,
Sychronize.jpg,Number8.jpg,,Computer,Computer.xlsx,2,c,8,,,,,0,1,1,7,0,3,3,4,,,,,,,,,,,,,,,,,,,,,,,,,,,,,,,,,,,,,,,,,,,,,,,,,,,,,,,,,,,,,875.1315789,None,875.1315789,None,875.6047055999989,None,875.6047055999989,None,"['t', 'v']","[8.489258699999482, 9.213108399999328]",875.6047055999989,None,9.213108399999328,8.489258699999482,8,False,False,False,888.0987349999996,None,888.0987349999996,None,888.0987349999996,None,888.0987349999996,None,888.0987349999996,None,888.0987349999996,None,888.0987349999996,None,888.0987349999996,None,889.1100246999995,None,889.1100246999995,None,2,c,,,,,,,,,,,,,,,,,,13_14,001,2021_Feb_24_1449,ComputerHuman,2020.1.3,59.89071142947659,
Sychronize.jpg,Number10.jpg,,Computer,Computer.xlsx,2,c,10,,,,,0,1,1,7,0,4,4,8,,,,,,,,,,,,,,,,,,,,,,,,,,,,,,,,,,,,,,,,,,,,,,,,,,,,,,,,,,,,,890.1292175999988,None,890.1292175999988,None,890.6081336999996,None,890.6081336999996,None,"['v', 't']","[8.861867699997674, 10.209703599997738]",890.6081336999996,None,8.861867699997674,10.209703599997738,10,False,False,False,902.609541400001,None,902.609541400001,None,902.609541400001,None,902.609541400001,None,902.609541400001,None,902.609541400001,None,902.609541400001,None,902.609541400001,None,903.6332985000008,None,903.6332985000008,None,2,c,,,,,,,,,,,,,,,,,,13_14,001,2021_Feb_24_1449,ComputerHuman,2020.1.3,59.89071142947659,
Sychronize.jpg,Number7.jpg,,Computer,Computer.xlsx,2,c,7,,,,,0,1,1,7,0,5,5,2,,,,,,,,,,,,,,,,,,,,,,,,,,,,,,,,,,,,,,,,,,,,,,,,,,,,,,,,,,,,,904.6321306999998,None,904.6321306999998,None,905.1124096999993,None,905.1124096999993,None,"['t', 'v']","[6.313501099997666, 6.476753399998415]",905.1124096999993,None,6.476753399998415,6.313501099997666,7,False,False,False,915.2667660000006,None,915.2667660000006,None,915.2667660000006,None,915.2667660000006,None,915.2667660000006,None,915.2667660000006,None,915.2667660000006,None,915.2667660000006,None,916.2825559000012,None,916.2825559000012,None,2,c,,,,,,,,,,,,,,,,,,13_14,001,2021_Feb_24_1449,ComputerHuman,2020.1.3,59.89071142947659,
Sychronize.jpg,Number6.jpg,,Computer,Computer.xlsx,2,c,6,,,,,0,1,1,7,0,6,6,0,,,,,,,,,,,,,,,,,,,,,,,,,,,,,,,,,,,,,,,,,,,,,,,,,,,,,,,,,,,,,917.3020161999993,None,917.3020161999993,None,917.7816017000005,None,917.7816017000005,None,"['v', 't']","[5.363862199999858, 6.3763412999978755]",917.7816017000005,None,5.363862199999858,6.3763412999978755,6,False,False,False,926.1532107999992,None,926.1532107999992,None,926.1532107999992,None,926.1532107999992,None,926.1532107999992,None,926.1532107999992,None,926.1532107999992,None,926.1532107999992,None,927.1676345999986,None,927.1676345999986,None,2,c,,,,,,,,,,,,,,,,,,13_14,001,2021_Feb_24_1449,ComputerHuman,2020.1.3,59.89071142947659,
Sychronize.jpg,Number9.jpg,,Computer,Computer.xlsx,2,c,9,,,,,0,1,1,7,0,7,7,7,,,,,,,,,,,,,,,,,,,,,,,,,,,,,,,,,,,,,,,,,,,,,,,,,,,,,,,,,,,,,928.1871539999993,None,928.1871539999993,None,928.6670842000021,None,928.6670842000021,None,"['v', 't']","[7.978855999997904, 8.670901999998023]",928.6670842000021,None,7.978855999997904,8.670901999998023,9,False,False,False,939.4054152999997,None,939.4054152999997,None,939.4054152999997,None,939.4054152999997,None,939.4054152999997,None,939.4054152999997,None,939.4054152999997,None,939.4054152999997,None,940.4205339,None,940.4205339,None,2,c,,,,,,,,,,,,,,,,,,13_14,001,2021_Feb_24_1449,ComputerHuman,2020.1.3,59.89071142947659,
Sychronize.jpg,Number10.jpg,,Computer,Computer.xlsx,2,c,10,,,,,0,1,1,7,0,8,8,9,,,,,,,,,,,,,,,,,,,,,,,,,,,,,,,,,,,,,,,,,,,,,,,,,,,,,,,,,,,,,941.4401811999996,None,941.4401811999996,None,941.9201157999996,None,941.9201157999996,None,"['t', 'v']","[9.141512899997906, 10.561443999999028]",941.9201157999996,None,10.561443999999028,9.141512899997906,10,False,False,False,954.4542769,None,954.4542769,None,954.4542769,None,954.4542769,None,954.4542769,None,954.4542769,None,954.4542769,None,954.4542769,None,955.4569806,None,955.4569806,None,2,c,,,,,,,,,,,,,,,,,,13_14,001,2021_Feb_24_1449,ComputerHuman,2020.1.3,59.89071142947659,
Sychronize.jpg,Number6.jpg,,Computer,Computer.xlsx,2,c,6,,,,,0,1,1,7,0,9,9,1,,,,,,,,,,,,,,,,,,,,,,,,,,,,,,,,,,,,,,,,,,,,,,,,,,,,,,,,,,,,,956.4825055000001,None,956.4825055000001,None,956.9762228,None,956.9762228,None,"['t', 'v']","[6.273670500002481, 6.323231200000009]",956.9762228,None,6.323231200000009,6.273670500002481,6,False,False,False,967.5070035999997,None,967.5070035999997,None,967.5070035999997,None,967.5070035999997,None,967.5070035999997,None,967.5070035999997,None,967.5070035999997,None,967.5070035999997,None,968.5270369999998,None,968.5270369999998,None,2,c,,,,,,,,,,,,,,,,,,13_14,001,2021_Feb_24_1449,ComputerHuman,2020.1.3,59.89071142947659,
,,,,Computer.xlsx,2,c,,,,,,0,1,1,7,,,,,,,,,,,,,,,,,,,,,,,,,,,,,,,,,,,,,,,,,,,,,,,,,,,,,,,,,,,,,,,,,,,,,,,,,,,,,,,,,,,,,,,,,,,,,,,,,,,,,,,2,c,969.509527000002,None,c,1,7.992602900001657,970.5055180999989,None,978.5323143999994,None,None,None,None,None,None,,,,13_14,001,2021_Feb_24_1449,ComputerHuman,2020.1.3,59.89071142947659,
Sychronize.jpg,Number10.jpg,,Human,Human.xlsx,2,h,10,,,,,0,2,2,6,0,0,0,8,,,,,,,,,,,,,,,,,,,,,,,,,,,,,,,,,,,,,,,,,,,,,,,,,,,,,,,,,983.5475544000001,None,983.5475544000001,None,986.5989403000021,None,986.5989403000021,None,987.0625400999998,None,987.0625400999998,None,"['v', 't']","[9.759100900002522, 10.371304100000998]",987.0625400999998,None,9.759100900002522,10.371304100000998,10,False,False,False,999.1026936999988,None,999.1026936999988,None,999.1026936999988,None,999.1026936999988,None,999.1026936999988,None,999.1026936999988,None,999.1026936999988,None,999.1026936999988,None,1000.1162551999987,None,1000.1162551999987,None,2,h,,,,,,,,,,,,,,,,,,13_14,001,2021_Feb_24_1449,ComputerHuman,2020.1.3,59.89071142947659,
Sychronize.jpg,Number9.jpg,,Human,Human.xlsx,2,h,9,,,,,0,2,2,6,0,1,1,6,,,,,,,,,,,,,,,,,,,,,,,,,,,,,,,,,,,,,,,,,,,,,,,,,,,,,,,,,,,,,1001.141403900001,None,1001.141403900001,None,1001.6171023999996,None,1001.6171023999996,None,"['t', 'v']","[8.104500499997812, 10.480128699997294]",1001.6171023999996,None,10.480128699997294,8.104500499997812,9,False,False,False,1014.026856299999,None,1014.026856299999,None,1014.026856299999,None,1014.026856299999,None,1014.026856299999,None,1014.026856299999,None,1014.026856299999,None,1014.026856299999,None,1015.0364339000007,None,1015.0364339000007,None,2,h,,,,,,,,,,,,,,,,,,13_14,001,2021_Feb_24_1449,ComputerHuman,2020.1.3,59.89071142947659,
Sychronize.jpg,Number8.jpg,,Human,Human.xlsx,2,h,8,,,,,0,2,2,6,0,2,2,5,,,,,,,,,,,,,,,,,,,,,,,,,,,,,,,,,,,,,,,,,,,,,,,,,,,,,,,,,,,,,1016.0553187000005,None,1016.0553187000005,None,1016.5334413000019,None,1016.5334413000019,None,"['v', 't']","[7.01533980000022, 7.824139799999102]",1016.5334413000019,None,7.01533980000022,7.824139799999102,8,False,False,False,1026.047929299999,None,1026.047929299999,None,1026.047929299999,None,1026.047929299999,None,1026.047929299999,None,1026.047929299999,None,1026.047929299999,None,1026.047929299999,None,1027.0545693999993,None,1027.0545693999993,None,2,h,,,,,,,,,,,,,,,,,,13_14,001,2021_Feb_24_1449,ComputerHuman,2020.1.3,59.89071142947659,
Sychronize.jpg,Number9.jpg,,Human,Human.xlsx,2,h,9,,,,,0,2,2,6,0,3,3,7,,,,,,,,,,,,,,,,,,,,,,,,,,,,,,,,,,,,,,,,,,,,,,,,,,,,,,,,,,,,,1028.0801174000007,None,1028.0801174000007,None,1028.5541396000008,None,1028.5541396000008,None,"['v', 't']","[8.351217100000213, 9.031106099999306]",1028.5541396000008,None,8.351217100000213,9.031106099999306,9,False,False,False,1040.070021200001,None,1040.070021200001,None,1040.070021200001,None,1040.070021200001,None,1040.070021200001,None,1040.070021200001,None,1040.070021200001,None,1040.070021200001,None,1041.0757190000004,None,1041.0757190000004,None,2,h,,,,,,,,,,,,,,,,,,13_14,001,2021_Feb_24_1449,ComputerHuman,2020.1.3,59.89071142947659,
Sychronize.jpg,Number7.jpg,,Human,Human.xlsx,2,h,7,,,,,0,2,2,6,0,4,4,2,,,,,,,,,,,,,,,,,,,,,,,,,,,,,,,,,,,,,,,,,,,,,,,,,,,,,,,,,,,,,1042.0939046999993,None,1042.0939046999993,None,1042.5737356999998,None,1042.5737356999998,None,"['v', 't']","[6.90387120000014, 6.911523099999613]",1042.5737356999998,None,6.90387120000014,6.911523099999613,7,False,False,False,1051.6958240999993,None,1051.6958240999993,None,1051.6958240999993,None,1051.6958240999993,None,1051.6958240999993,None,1051.6958240999993,None,1051.6958240999993,None,1051.6958240999993,None,1052.731233999999,None,1052.731233999999,None,2,h,,,,,,,,,,,,,,,,,,13_14,001,2021_Feb_24_1449,ComputerHuman,2020.1.3,59.89071142947659,
Sychronize.jpg,Number6.jpg,,Human,Human.xlsx,2,h,6,,,,,0,2,2,6,0,5,5,0,,,,,,,,,,,,,,,,,,,,,,,,,,,,,,,,,,,,,,,,,,,,,,,,,,,,,,,,,,,,,1053.728977900002,None,1053.728977900002,None,1054.2097820999988,None,1054.2097820999988,None,"['t', 'v']","[5.947152199998527, 6.351804099998844]",1054.2097820999988,None,6.351804099998844,5.947152199998527,6,False,False,False,1063.885605800002,None,1063.885605800002,None,1063.885605800002,None,1063.885605800002,None,1063.885605800002,None,1063.885605800002,None,1063.885605800002,None,1063.885605800002,None,1064.8957803000012,None,1064.8957803000012,None,2,h,,,,,,,,,,,,,,,,,,13_14,001,2021_Feb_24_1449,ComputerHuman,2020.1.3,59.89071142947659,
Sychronize.jpg,Number7.jpg,,Human,Human.xlsx,2,h,7,,,,,0,2,2,6,0,6,6,3,,,,,,,,,,,,,,,,,,,,,,,,,,,,,,,,,,,,,,,,,,,,,,,,,,,,,,,,,,,,,1065.9147269999994,None,1065.9147269999994,None,1066.3950742999987,None,1066.3950742999987,None,"['t', 'v']","[6.541231999999582, 7.394406899999012]",1066.3950742999987,None,7.394406899999012,6.541231999999582,7,False,False,False,1077.6405197999993,None,1077.6405197999993,None,1077.6405197999993,None,1077.6405197999993,None,1077.6405197999993,None,1077.6405197999993,None,1077.6405197999993,None,1077.6405197999993,None,1078.6485734999987,None,1078.6485734999987,None,2,h,,,,,,,,,,,,,,,,,,13_14,001,2021_Feb_24_1449,ComputerHuman,2020.1.3,59.89071142947659,
Sychronize.jpg,Number6.jpg,,Human,Human.xlsx,2,h,6,,,,,0,2,2,6,0,7,7,1,,,,,,,,,,,,,,,,,,,,,,,,,,,,,,,,,,,,,,,,,,,,,,,,,,,,,,,,,,,,,1079.6738277000004,None,1079.6738277000004,None,1080.1480851999986,None,1080.1480851999986,None,"['v', 't']","[5.638242799999716, 6.433640199997171]",1080.1480851999986,None,5.638242799999716,6.433640199997171,6,False,False,False,1088.6987668000002,None,1088.6987668000002,None,1088.6987668000002,None,1088.6987668000002,None,1088.6987668000002,None,1088.6987668000002,None,1088.6987668000002,None,1088.6987668000002,None,1089.7173253,None,1089.7173253,None,2,h,,,,,,,,,,,,,,,,,,13_14,001,2021_Feb_24_1449,ComputerHuman,2020.1.3,59.89071142947659,
Sychronize.jpg,Number10.jpg,,Human,Human.xlsx,2,h,10,,,,,0,2,2,6,0,8,8,9,,,,,,,,,,,,,,,,,,,,,,,,,,,,,,,,,,,,,,,,,,,,,,,,,,,,,,,,,,,,,1090.7364466,None,1090.7364466,None,1091.2165681000006,None,1091.2165681000006,None,"['v', 't']","[10.469013199999608, 11.541047400001844]",1091.2165681000006,None,10.469013199999608,11.541047400001844,10,False,False,False,1105.152298699999,None,1105.152298699999,None,1105.152298699999,None,1105.152298699999,None,1105.152298699999,None,1105.152298699999,None,1105.152298699999,None,1105.152298699999,None,1106.1721915000016,None,1106.1721915000016,None,2,h,,,,,,,,,,,,,,,,,,13_14,001,2021_Feb_24_1449,ComputerHuman,2020.1.3,59.89071142947659,
Sychronize.jpg,Number8.jpg,,Human,Human.xlsx,2,h,8,,,,,0,2,2,6,0,9,9,4,,,,,,,,,,,,,,,,,,,,,,,,,,,,,,,,,,,,,,,,,,,,,,,,,,,,,,,,,,,,,1107.1903152000014,None,1107.1903152000014,None,1107.6700459999993,None,1107.6700459999993,None,"['v', 't']","[7.914995999999519, 8.390136199999688]",1107.6700459999993,None,7.914995999999519,8.390136199999688,8,False,False,False,1118.3981993999987,None,1118.3981993999987,None,1118.3981993999987,None,1118.3981993999987,None,1118.3981993999987,None,1118.3981993999987,None,1118.3981993999987,None,1118.3981993999987,None,1119.4065623999995,None,1119.4065623999995,None,2,h,,,,,,,,,,,,,,,,,,13_14,001,2021_Feb_24_1449,ComputerHuman,2020.1.3,59.89071142947659,
,,,,Human.xlsx,2,h,,,,,,0,2,2,6,,,,,,,,,,,,,,,,,,,,,,,,,,,,,,,,,,,,,,,,,,,,,,,,,,,,,,,,,,,,,,,,,,,,,,,,,,,,,,,,,,,,,,,,,,,,,,,,,,,,,,,2,h,1120.4062268999987,None,c,0,4.067334000003029,1121.4022528999994,None,1125.4956525999987,None,None,None,None,None,None,,,,13_14,001,2021_Feb_24_1449,ComputerHuman,2020.1.3,59.89071142947659,
Sychronize.jpg,Number8.jpg,,Human,Human.xlsx,2,h,8,,,,,0,3,3,4,0,0,0,4,,,,,,,,,,,,,,,,,,,,,,,,,,,,,,,,,,,,,,,,,,,,,,,,,,,,,,,,,1130.5085221000008,None,1130.5085221000008,None,1133.5456214000005,None,1133.5456214000005,None,1134.0238470000004,None,1134.0238470000004,None,"['v', 't']","[8.165555299998232, 8.248196500000631]",1134.0238470000004,None,8.165555299998232,8.248196500000631,8,False,False,False,1144.609328999999,None,1144.609328999999,None,1144.609328999999,None,1144.609328999999,None,1144.609328999999,None,1144.609328999999,None,1144.609328999999,None,1144.609328999999,None,1145.6514487999993,None,1145.6514487999993,None,2,h,,,,,,,,,,,,,,,,,,13_14,001,2021_Feb_24_1449,ComputerHuman,2020.1.3,59.89071142947659,
Sychronize.jpg,Number9.jpg,,Human,Human.xlsx,2,h,9,,,,,0,3,3,4,0,1,1,7,,,,,,,,,,,,,,,,,,,,,,,,,,,,,,,,,,,,,,,,,,,,,,,,,,,,,,,,,,,,,1146.638683000001,None,1146.638683000001,None,1147.1278825000009,None,1147.1278825000009,None,"['t', 'v']","[9.629759600000398, 9.768665199997486]",1147.1278825000009,None,9.768665199997486,9.629759600000398,9,False,False,False,1161.5345850000012,None,1161.5345850000012,None,1161.5345850000012,None,1161.5345850000012,None,1161.5345850000012,None,1161.5345850000012,None,1161.5345850000012,None,1161.5345850000012,None,1162.5720938000013,None,1162.5720938000013,None,2,h,,,,,,,,,,,,,,,,,,13_14,001,2021_Feb_24_1449,ComputerHuman,2020.1.3,59.89071142947659,
Sychronize.jpg,Number6.jpg,,Human,Human.xlsx,2,h,6,,,,,0,3,3,4,0,2,2,0,,,,,,,,,,,,,,,,,,,,,,,,,,,,,,,,,,,,,,,,,,,,,,,,,,,,,,,,,,,,,1163.5723485000017,None,1163.5723485000017,None,1164.0487121000006,None,1164.0487121000006,None,"['v', 't']","[6.884587799999281, 7.168736200001149]",1164.0487121000006,None,6.884587799999281,7.168736200001149,6,False,False,False,1172.8753371999992,None,1172.8753371999992,None,1172.8753371999992,None,1172.8753371999992,None,1172.8753371999992,None,1172.8753371999992,None,1172.8753371999992,None,1172.8753371999992,None,1173.9047434999993,None,1173.9047434999993,None,2,h,,,,,,,,,,,,,,,,,,13_14,001,2021_Feb_24_1449,ComputerHuman,2020.1.3,59.89071142947659,
Sychronize.jpg,Number8.jpg,,Human,Human.xlsx,2,h,8,,,,,0,3,3,4,0,3,3,5,,,,,,,,,,,,,,,,,,,,,,,,,,,,,,,,,,,,,,,,,,,,,,,,,,,,,,,,,,,,,1174.9079974000015,None,1174.9079974000015,None,1175.3835934000017,None,1175.3835934000017,None,"['t', 'v']","[8.041612600001827, 8.9857273000016]",1175.3835934000017,None,8.9857273000016,8.041612600001827,8,False,False,False,1187.2630252000017,None,1187.2630252000017,None,1187.2630252000017,None,1187.2630252000017,None,1187.2630252000017,None,1187.2630252000017,None,1187.2630252000017,None,1187.2630252000017,None,1188.2718950000017,None,1188.2718950000017,None,2,h,,,,,,,,,,,,,,,,,,13_14,001,2021_Feb_24_1449,ComputerHuman,2020.1.3,59.89071142947659,
Sychronize.jpg,Number7.jpg,,Human,Human.xlsx,2,h,7,,,,,0,3,3,4,0,4,4,2,,,,,,,,,,,,,,,,,,,,,,,,,,,,,,,,,,,,,,,,,,,,,,,,,,,,,,,,,,,,,1189.295279599999,None,1189.295279599999,None,1189.770674700001,None,1189.770674700001,None,['v'],[6.890021800001705],1189.770674700001,None,6.890021800001705,13,7,False,False,False,1202.805357600002,None,1202.805357600002,None,1202.805357600002,None,1202.805357600002,None,1202.805357600002,None,1202.805357600002,None,1202.805357600002,None,1202.805357600002,None,1203.807064200002,None,1203.807064200002,None,2,h,,,,,,,,,,,,,,,,,,13_14,001,2021_Feb_24_1449,ComputerHuman,2020.1.3,59.89071142947659,
Sychronize.jpg,Number7.jpg,,Human,Human.xlsx,2,h,7,,,,,0,3,3,4,0,5,5,3,,,,,,,,,,,,,,,,,,,,,,,,,,,,,,,,,,,,,,,,,,,,,,,,,,,,,,,,,,,,,1204.8266335000008,None,1204.8266335000008,None,1205.3069667000018,None,1205.3069667000018,None,"['t', 'v']","[6.642640500002017, 7.486144599999534]",1205.3069667000018,None,7.486144599999534,6.642640500002017,7,False,False,False,1215.9962524000002,None,1215.9962524000002,None,1215.9962524000002,None,1215.9962524000002,None,1215.9962524000002,None,1215.9962524000002,None,1215.9962524000002,None,1215.9962524000002,None,1217.0113633,None,1217.0113633,None,2,h,,,,,,,,,,,,,,,,,,13_14,001,2021_Feb_24_1449,ComputerHuman,2020.1.3,59.89071142947659,
Sychronize.jpg,Number9.jpg,,Human,Human.xlsx,2,h,9,,,,,0,3,3,4,0,6,6,6,,,,,,,,,,,,,,,,,,,,,,,,,,,,,,,,,,,,,,,,,,,,,,,,,,,,,,,,,,,,,1218.0351348000004,None,1218.0351348000004,None,1218.5098547000016,None,1218.5098547000016,None,"['v', 't']","[9.175755000000208, 9.798408700000437]",1218.5098547000016,None,9.175755000000208,9.798408700000437,9,False,False,False,1230.7055451000015,None,1230.7055451000015,None,1230.7055451000015,None,1230.7055451000015,None,1230.7055451000015,None,1230.7055451000015,None,1230.7055451000015,None,1230.7055451000015,None,1231.712947600001,None,1231.712947600001,None,2,h,,,,,,,,,,,,,,,,,,13_14,001,2021_Feb_24_1449,ComputerHuman,2020.1.3,59.89071142947659,
Sychronize.jpg,Number10.jpg,,Human,Human.xlsx,2,h,10,,,,,0,3,3,4,0,7,7,8,,,,,,,,,,,,,,,,,,,,,,,,,,,,,,,,,,,,,,,,,,,,,,,,,,,,,,,,,,,,,1232.738339399999,None,1232.738339399999,None,1233.2129105999993,None,1233.2129105999993,None,"['v', 't']","[9.396411300000182, 10.964127100000042]",1233.2129105999993,None,9.396411300000182,10.964127100000042,10,False,False,False,1246.3407432999993,None,1246.3407432999993,None,1246.3407432999993,None,1246.3407432999993,None,1246.3407432999993,None,1246.3407432999993,None,1246.3407432999993,None,1246.3407432999993,None,1247.3491103999986,None,1247.3491103999986,None,2,h,,,,,,,,,,,,,,,,,,13_14,001,2021_Feb_24_1449,ComputerHuman,2020.1.3,59.89071142947659,
Sychronize.jpg,Number6.jpg,,Human,Human.xlsx,2,h,6,,,,,0,3,3,4,0,8,8,1,,,,,,,,,,,,,,,,,,,,,,,,,,,,,,,,,,,,,,,,,,,,,,,,,,,,,,,,,,,,,1248.3693031000003,None,1248.3693031000003,None,1248.8467932000021,None,1248.8467932000021,None,"['v', 't']","[5.693170499998814, 6.397031500000594]",1248.8467932000021,None,5.693170499998814,6.397031500000594,6,False,False,False,1257.5475847000016,None,1257.5475847000016,None,1257.5475847000016,None,1257.5475847000016,None,1257.5475847000016,None,1257.5475847000016,None,1257.5475847000016,None,1257.5475847000016,None,1258.551746000001,None,1258.551746000001,None,2,h,,,,,,,,,,,,,,,,,,13_14,001,2021_Feb_24_1449,ComputerHuman,2020.1.3,59.89071142947659,
Sychronize.jpg,Number10.jpg,,Human,Human.xlsx,2,h,10,,,,,0,3,3,4,0,9,9,9,,,,,,,,,,,,,,,,,,,,,,,,,,,,,,,,,,,,,,,,,,,,,,,,,,,,,,,,,,,,,1259.571190499999,None,1259.571190499999,None,1260.0515288999995,None,1260.0515288999995,None,"['v', 't']","[9.60592280000128, 12.549878800000442]",1260.0515288999995,None,9.60592280000128,12.549878800000442,10,False,False,False,1274.3464968000008,None,1274.3464968000008,None,1274.3464968000008,None,1274.3464968000008,None,1274.3464968000008,None,1274.3464968000008,None,1274.3464968000008,None,1274.3464968000008,None,1275.3564797,None,1275.3564797,None,2,h,,,,,,,,,,,,,,,,,,13_14,001,2021_Feb_24_1449,ComputerHuman,2020.1.3,59.89071142947659,
,,,,Human.xlsx,2,h,,,,,,0,3,3,4,,,,,,,,,,,,,,,,,,,,,,,,,,,,,,,,,,,,,,,,,,,,,,,,,,,,,,,,,,,,,,,,,,,,,,,,,,,,,,,,,,,,,,,,,,,,,,,,,,,,,,,2,h,1276.3734723999987,None,c,0,1.8090928999990865,1277.367560300001,None,None,None,1279.2098970000006,None,"['space', 'space']",1280.2015088000007,None,"[1.5955984000029275, 4.302015900000697]",,,13_14,001,2021_Feb_24_1449,ComputerHuman,2020.1.3,59.89071142947659,
Sychronize.jpg,Number10.jpg,,Human,Human.xlsx,1,h,10,,,,,0,4,4,2,0,0,0,9,,,,,,,,,,,,,,,,,,,,,,,,,,,,,,,,,,,,,,,,,,,,,,,,,,,,,,,,,1284.5634059000004,None,1284.5634059000004,None,1287.5912406999996,None,1287.5912406999996,None,1288.0565117000006,None,1288.0565117000006,None,"['v', 't']","[10.216900100000203, 11.339772100000118]",1288.0565117000006,None,10.216900100000203,11.339772100000118,10,False,False,False,1300.958461000002,None,1300.958461000002,None,1300.958461000002,None,1300.958461000002,None,1300.958461000002,None,1300.958461000002,None,1300.958461000002,None,1300.958461000002,None,1301.9768315000001,None,1301.9768315000001,None,1,h,,,,,,,,,,,,,,,,,,13_14,001,2021_Feb_24_1449,ComputerHuman,2020.1.3,59.89071142947659,
Sychronize.jpg,Number10.jpg,,Human,Human.xlsx,1,h,10,,,,,0,4,4,2,0,1,1,8,,,,,,,,,,,,,,,,,,,,,,,,,,,,,,,,,,,,,,,,,,,,,,,,,,,,,,,,,,,,,1303.000955899999,None,1303.000955899999,None,1303.4749128000003,None,1303.4749128000003,None,"['v', 't']","[10.474632999997993, 12.206545900000492]",1303.4749128000003,None,10.474632999997993,12.206545900000492,10,False,False,False,1317.7861794000019,None,1317.7861794000019,None,1317.7861794000019,None,1317.7861794000019,None,1317.7861794000019,None,1317.7861794000019,None,1317.7861794000019,None,1317.7861794000019,None,1318.7970000999994,None,1318.7970000999994,None,1,h,,,,,,,,,,,,,,,,,,13_14,001,2021_Feb_24_1449,ComputerHuman,2020.1.3,59.89071142947659,
Sychronize.jpg,Number9.jpg,,Human,Human.xlsx,1,h,9,,,,,0,4,4,2,0,2,2,7,,,,,,,,,,,,,,,,,,,,,,,,,,,,,,,,,,,,,,,,,,,,,,,,,,,,,,,,,,,,,1319.8267378000019,None,1319.8267378000019,None,1320.2962312000018,None,1320.2962312000018,None,"['v', 't']","[9.296717300003365, 11.140853900000366]",1320.2962312000018,None,9.296717300003365,11.140853900000366,9,False,False,False,1333.6037496999998,None,1333.6037496999998,None,1333.6037496999998,None,1333.6037496999998,None,1333.6037496999998,None,1333.6037496999998,None,1333.6037496999998,None,1333.6037496999998,None,1334.6167466000006,None,1334.6167466000006,None,1,h,,,,,,,,,,,,,,,,,,13_14,001,2021_Feb_24_1449,ComputerHuman,2020.1.3,59.89071142947659,
Sychronize.jpg,Number8.jpg,,Human,Human.xlsx,1,h,8,,,,,0,4,4,2,0,3,3,5,,,,,,,,,,,,,,,,,,,,,,,,,,,,,,,,,,,,,,,,,,,,,,,,,,,,,,,,,,,,,1335.6365237999998,None,1335.6365237999998,None,1336.1161466000012,None,1336.1161466000012,None,"['v', 't']","[6.933246200002031, 9.781199299999571]",1336.1161466000012,None,6.933246200002031,9.781199299999571,8,False,False,False,1347.9423252000015,None,1347.9423252000015,None,1347.9423252000015,None,1347.9423252000015,None,1347.9423252000015,None,1347.9423252000015,None,1347.9423252000015,None,1347.9423252000015,None,1348.953416700002,None,1348.953416700002,None,1,h,,,,,,,,,,,,,,,,,,13_14,001,2021_Feb_24_1449,ComputerHuman,2020.1.3,59.89071142947659,
Sychronize.jpg,Number7.jpg,,Human,Human.xlsx,1,h,7,,,,,0,4,4,2,0,4,4,3,,,,,,,,,,,,,,,,,,,,,,,,,,,,,,,,,,,,,,,,,,,,,,,,,,,,,,,,,,,,,1349.9789364999997,None,1349.9789364999997,None,1350.4509491999997,None,1350.4509491999997,None,"['v', 't']","[8.094503299998905, 9.938428600002226]",1350.4509491999997,None,8.094503299998905,9.938428600002226,7,False,False,False,1362.6123488000012,None,1362.6123488000012,None,1362.6123488000012,None,1362.6123488000012,None,1362.6123488000012,None,1362.6123488000012,None,1362.6123488000012,None,1362.6123488000012,None,1363.6241870000013,None,1363.6241870000013,None,1,h,,,,,,,,,,,,,,,,,,13_14,001,2021_Feb_24_1449,ComputerHuman,2020.1.3,59.89071142947659,
Sychronize.jpg,Number9.jpg,,Human,Human.xlsx,1,h,9,,,,,0,4,4,2,0,5,5,6,,,,,,,,,,,,,,,,,,,,,,,,,,,,,,,,,,,,,,,,,,,,,,,,,,,,,,,,,,,,,1364.6426272999997,None,1364.6426272999997,None,1365.120307199999,None,1365.120307199999,None,['v'],[9.321073099999921],1365.120307199999,None,9.321073099999921,13,9,False,False,False,1378.1630573000002,None,1378.1630573000002,None,1378.1630573000002,None,1378.1630573000002,None,1378.1630573000002,None,1378.1630573000002,None,1378.1630573000002,None,1378.1630573000002,None,1379.1599290000013,None,1379.1599290000013,None,1,h,,,,,,,,,,,,,,,,,,13_14,001,2021_Feb_24_1449,ComputerHuman,2020.1.3,59.89071142947659,
Sychronize.jpg,Number7.jpg,,Human,Human.xlsx,1,h,7,,,,,0,4,4,2,0,6,6,2,,,,,,,,,,,,,,,,,,,,,,,,,,,,,,,,,,,,,,,,,,,,,,,,,,,,,,,,,,,,,1380.1790129,None,1380.1790129,None,1380.6571403999988,None,1380.6571403999988,None,"['v', 't']","[7.668009999997594, 10.267716599999403]",1380.6571403999988,None,7.668009999997594,10.267716599999403,7,False,False,False,1392.8946222000013,None,1392.8946222000013,None,1392.8946222000013,None,1392.8946222000013,None,1392.8946222000013,None,1392.8946222000013,None,1392.8946222000013,None,1392.8946222000013,None,1393.8962213000013,None,1393.8962213000013,None,1,h,,,,,,,,,,,,,,,,,,13_14,001,2021_Feb_24_1449,ComputerHuman,2020.1.3,59.89071142947659,
Sychronize.jpg,Number6.jpg,,Human,Human.xlsx,1,h,6,,,,,0,4,4,2,0,7,7,1,,,,,,,,,,,,,,,,,,,,,,,,,,,,,,,,,,,,,,,,,,,,,,,,,,,,,,,,,,,,,1394.9206660000018,None,1394.9206660000018,None,1395.3946878999996,None,1395.3946878999996,None,"['v', 't']","[6.002270699998917, 11.125539500000741]",1395.3946878999996,None,6.002270699998917,11.125539500000741,6,False,False,False,1408.862166400002,None,1408.862166400002,None,1408.862166400002,None,1408.862166400002,None,1408.862166400002,None,1408.862166400002,None,1408.862166400002,None,1408.862166400002,None,1409.8656693000012,None,1409.8656693000012,None,1,h,,,,,,,,,,,,,,,,,,13_14,001,2021_Feb_24_1449,ComputerHuman,2020.1.3,59.89071142947659,
Sychronize.jpg,Number8.jpg,,Human,Human.xlsx,1,h,8,,,,,0,4,4,2,0,8,8,4,,,,,,,,,,,,,,,,,,,,,,,,,,,,,,,,,,,,,,,,,,,,,,,,,,,,,,,,,,,,,1410.885003200001,None,1410.885003200001,None,1411.3649442999995,None,1411.3649442999995,None,['v'],[10.312366699999984],1411.3649442999995,None,10.312366699999984,13,8,False,False,False,1424.3994755999993,None,1424.3994755999993,None,1424.3994755999993,None,1424.3994755999993,None,1424.3994755999993,None,1424.3994755999993,None,1424.3994755999993,None,1424.3994755999993,None,1425.4018472999996,None,1425.4018472999996,None,1,h,,,,,,,,,,,,,,,,,,13_14,001,2021_Feb_24_1449,ComputerHuman,2020.1.3,59.89071142947659,
Sychronize.jpg,Number6.jpg,,Human,Human.xlsx,1,h,6,,,,,0,4,4,2,0,9,9,0,,,,,,,,,,,,,,,,,,,,,,,,,,,,,,,,,,,,,,,,,,,,,,,,,,,,,,,,,,,,,1426.4212818999986,None,1426.4212818999986,None,1426.9204043999998,None,1426.9204043999998,None,"['v', 't']","[7.024004799997783, 7.404673699998966]",1426.9204043999998,None,7.024004799997783,7.404673699998966,6,False,False,False,1435.9356842999987,None,1435.9356842999987,None,1435.9356842999987,None,1435.9356842999987,None,1435.9356842999987,None,1435.9356842999987,None,1435.9356842999987,None,1435.9356842999987,None,1436.955100700001,None,1436.955100700001,None,1,h,,,,,,,,,,,,,,,,,,13_14,001,2021_Feb_24_1449,ComputerHuman,2020.1.3,59.89071142947659,
,,,,Human.xlsx,1,h,,,,,,0,4,4,2,,,,,,,,,,,,,,,,,,,,,,,,,,,,,,,,,,,,,,,,,,,,,,,,,,,,,,,,,,,,,,,,,,,,,,,,,,,,,,,,,,,,,,,,,,,,,,,,,,,,,,,1,h,1437.953815500001,None,c,0,4.212441400002717,1438.9500595999998,None,1443.2074495000015,None,None,None,None,None,None,,,,13_14,001,2021_Feb_24_1449,ComputerHuman,2020.1.3,59.89071142947659,
Sychronize.jpg,Number9.jpg,,Computer,Computer.xlsx,2,c,9,,,,,0,5,5,5,0,0,0,6,,,,,,,,,,,,,,,,,,,,,,,,,,,,,,,,,,,,,,,,,,,,,,,,,,,,,,,,,1448.226600500002,None,1448.226600500002,None,1451.2430621000021,None,1451.2430621000021,None,1451.7060227000002,None,1451.7060227000002,None,"['v', 't']","[10.598679599999741, 11.043264899999485]",1451.7060227000002,None,10.598679599999741,11.043264899999485,9,False,False,False,1465.029093199999,None,1465.029093199999,None,1465.029093199999,None,1465.029093199999,None,1465.029093199999,None,1465.029093199999,None,1465.029093199999,None,1465.029093199999,None,1466.0441257999992,None,1466.0441257999992,None,2,c,,,,,,,,,,,,,,,,,,13_14,001,2021_Feb_24_1449,ComputerHuman,2020.1.3,59.89071142947659,
Sychronize.jpg,Number10.jpg,,Computer,Computer.xlsx,2,c,10,,,,,0,5,5,5,0,1,1,8,,,,,,,,,,,,,,,,,,,,,,,,,,,,,,,,,,,,,,,,,,,,,,,,,,,,,,,,,,,,,1467.0693002000007,None,1467.0693002000007,None,1467.5425694000005,None,1467.5425694000005,None,['v'],[9.414590299998963],1467.5425694000005,None,9.414590299998963,13,10,False,False,False,1480.5775959999992,None,1480.5775959999992,None,1480.5775959999992,None,1480.5775959999992,None,1480.5775959999992,None,1480.5775959999992,None,1480.5775959999992,None,1480.5775959999992,None,1481.5804008000014,None,1481.5804008000014,None,2,c,,,,,,,,,,,,,,,,,,13_14,001,2021_Feb_24_1449,ComputerHuman,2020.1.3,59.89071142947659,
Sychronize.jpg,Number9.jpg,,Computer,Computer.xlsx,2,c,9,,,,,0,5,5,5,0,2,2,7,,,,,,,,,,,,,,,,,,,,,,,,,,,,,,,,,,,,,,,,,,,,,,,,,,,,,,,,,,,,,1482.5993917999986,None,1482.5993917999986,None,1483.0778234999998,None,1483.0778234999998,None,"['v', 't']","[8.247587400001066, 11.167088199999853]",1483.0778234999998,None,8.247587400001066,11.167088199999853,9,False,False,False,1496.1515842000008,None,1496.1515842000008,None,1496.1515842000008,None,1496.1515842000008,None,1496.1515842000008,None,1496.1515842000008,None,1496.1515842000008,None,1496.1515842000008,None,1497.1675743000014,None,1497.1675743000014,None,2,c,,,,,,,,,,,,,,,,,,13_14,001,2021_Feb_24_1449,ComputerHuman,2020.1.3,59.89071142947659,
Sychronize.jpg,Number8.jpg,,Computer,Computer.xlsx,2,c,8,,,,,0,5,5,5,0,3,3,4,,,,,,,,,,,,,,,,,,,,,,,,,,,,,,,,,,,,,,,,,,,,,,,,,,,,,,,,,,,,,1498.1911861000008,None,1498.1911861000008,None,1498.6860677000004,None,1498.6860677000004,None,"['v', 't']","[8.214987299998029, 9.633447899999737]",1498.6860677000004,None,8.214987299998029,9.633447899999737,8,False,False,False,1510.0908339999987,None,1510.0908339999987,None,1510.0908339999987,None,1510.0908339999987,None,1510.0908339999987,None,1510.0908339999987,None,1510.0908339999987,None,1510.0908339999987,None,1511.1040356000012,None,1511.1040356000012,None,2,c,,,,,,,,,,,,,,,,,,13_14,001,2021_Feb_24_1449,ComputerHuman,2020.1.3,59.89071142947659,
Sychronize.jpg,Number6.jpg,,Computer,Computer.xlsx,2,c,6,,,,,0,5,5,5,0,4,4,0,,,,,,,,,,,,,,,,,,,,,,,,,,,,,,,,,,,,,,,,,,,,,,,,,,,,,,,,,,,,,1512.1287789999988,None,1512.1287789999988,None,1512.6020549999994,None,1512.6020549999994,None,"['v', 't']","[6.855318200003239, 9.190889100002096]",1512.6020549999994,None,6.855318200003239,9.190889100002096,6,False,False,False,1523.7406119000007,None,1523.7406119000007,None,1523.7406119000007,None,1523.7406119000007,None,1523.7406119000007,None,1523.7406119000007,None,1523.7406119000007,None,1523.7406119000007,None,1524.7551125999998,None,1524.7551125999998,None,2,c,,,,,,,,,,,,,,,,,,13_14,001,2021_Feb_24_1449,ComputerHuman,2020.1.3,59.89071142947659,
Sychronize.jpg,Number7.jpg,,Computer,Computer.xlsx,2,c,7,,,,,0,5,5,5,0,5,5,3,,,,,,,,,,,,,,,,,,,,,,,,,,,,,,,,,,,,,,,,,,,,,,,,,,,,,,,,,,,,,1525.7748257999992,None,1525.7748257999992,None,1526.2544990999995,None,1526.2544990999995,None,"['v', 't']","[6.334663800000271, 8.942714500000875]",1526.2544990999995,None,6.334663800000271,8.942714500000875,7,False,False,False,1536.876118100001,None,1536.876118100001,None,1536.876118100001,None,1536.876118100001,None,1536.876118100001,None,1536.876118100001,None,1536.876118100001,None,1536.876118100001,None,1537.8925342000002,None,1537.8925342000002,None,2,c,,,,,,,,,,,,,,,,,,13_14,001,2021_Feb_24_1449,ComputerHuman,2020.1.3,59.89071142947659,
Sychronize.jpg,Number10.jpg,,Computer,Computer.xlsx,2,c,10,,,,,0,5,5,5,0,6,6,9,,,,,,,,,,,,,,,,,,,,,,,,,,,,,,,,,,,,,,,,,,,,,,,,,,,,,,,,,,,,,1538.910519500001,None,1538.910519500001,None,1539.3919669999996,None,1539.3919669999996,None,['v'],[10.12518750000163],1539.3919669999996,None,10.12518750000163,13,10,False,False,False,1552.4253480000007,None,1552.4253480000007,None,1552.4253480000007,None,1552.4253480000007,None,1552.4253480000007,None,1552.4253480000007,None,1552.4253480000007,None,1552.4253480000007,None,1553.4282582000014,None,1553.4282582000014,None,2,c,,,,,,,,,,,,,,,,,,13_14,001,2021_Feb_24_1449,ComputerHuman,2020.1.3,59.89071142947659,
Sychronize.jpg,Number8.jpg,,Computer,Computer.xlsx,2,c,8,,,,,0,5,5,5,0,7,7,5,,,,,,,,,,,,,,,,,,,,,,,,,,,,,,,,,,,,,,,,,,,,,,,,,,,,,,,,,,,,,1554.447184200002,None,1554.447184200002,None,1554.9271602000008,None,1554.9271602000008,None,"['t', 'v']","[8.070177600002353, 8.58176640000238]",1554.9271602000008,None,8.58176640000238,8.070177600002353,8,False,False,False,1567.037086299999,None,1567.037086299999,None,1567.037086299999,None,1567.037086299999,None,1567.037086299999,None,1567.037086299999,None,1567.037086299999,None,1567.037086299999,None,1568.0485697000004,None,1568.0485697000004,None,2,c,,,,,,,,,,,,,,,,,,13_14,001,2021_Feb_24_1449,ComputerHuman,2020.1.3,59.89071142947659,
Sychronize.jpg,Number7.jpg,,Computer,Computer.xlsx,2,c,7,,,,,0,5,5,5,0,8,8,2,,,,,,,,,,,,,,,,,,,,,,,,,,,,,,,,,,,,,,,,,,,,,,,,,,,,,,,,,,,,,1569.0723117000016,None,1569.0723117000016,None,1569.547020599999,None,1569.547020599999,None,"['t', 'v']","[5.84539919999952, 6.884365300000354]",1569.547020599999,None,6.884365300000354,5.84539919999952,7,False,False,False,1579.3309073000019,None,1579.3309073000019,None,1579.3309073000019,None,1579.3309073000019,None,1579.3309073000019,None,1579.3309073000019,None,1579.3309073000019,None,1579.3309073000019,None,1580.3501829000015,None,1580.3501829000015,None,2,c,,,,,,,,,,,,,,,,,,13_14,001,2021_Feb_24_1449,ComputerHuman,2020.1.3,59.89071142947659,
Sychronize.jpg,Number6.jpg,,Computer,Computer.xlsx,2,c,6,,,,,0,5,5,5,0,9,9,1,,,,,,,,,,,,,,,,,,,,,,,,,,,,,,,,,,,,,,,,,,,,,,,,,,,,,,,,,,,,,1581.3739034999999,None,1581.3739034999999,None,1581.8489823000018,None,1581.8489823000018,None,"['v', 't']","[5.5601722999999765, 6.135956499998429]",1581.8489823000018,None,5.5601722999999765,6.135956499998429,6,False,False,False,1589.5238467000017,None,1589.5238467000017,None,1589.5238467000017,None,1589.5238467000017,None,1589.5238467000017,None,1589.5238467000017,None,1589.5238467000017,None,1589.5238467000017,None,1590.536816300002,None,1590.536816300002,None,2,c,,,,,,,,,,,,,,,,,,13_14,001,2021_Feb_24_1449,ComputerHuman,2020.1.3,59.89071142947659,
,,,,Computer.xlsx,2,c,,,,,,0,5,5,5,,,,,,,,,,,,,,,,,,,,,,,,,,,,,,,,,,,,,,,,,,,,,,,,,,,,,,,,,,,,,,,,,,,,,,,,,,,,,,,,,,,,,,,,,,,,,,,,,,,,,,,2,c,1591.5330338999993,None,h,0,3.6736242000006314,1592.531406500002,None,1596.255556600001,None,None,None,None,None,None,,,,13_14,001,2021_Feb_24_1449,ComputerHuman,2020.1.3,59.89071142947659,
Sychronize.jpg,Number10.jpg,,Human,Human.xlsx,1,h,10,,,,,0,6,6,0,0,0,0,8,,,,,,,,,,,,,,,,,,,,,,,,,,,,,,,,,,,,,,,,,,,,,,,,,,,,,,,,,1601.2736006000014,None,1601.2736006000014,None,1604.3076712000002,None,1604.3076712000002,None,1604.7706734000021,None,1604.7706734000021,None,"['t', 'v']","[9.290170000000217, 11.014128200000414]",1604.7706734000021,None,11.014128200000414,9.290170000000217,10,False,False,False,1618.0601658999985,None,1618.0601658999985,None,1618.0601658999985,None,1618.0601658999985,None,1618.0601658999985,None,1618.0601658999985,None,1618.0601658999985,None,1618.0601658999985,None,1619.0745161000013,None,1619.0745161000013,None,1,h,,,,,,,,,,,,,,,,,,13_14,001,2021_Feb_24_1449,ComputerHuman,2020.1.3,59.89071142947659,
Sychronize.jpg,Number9.jpg,,Human,Human.xlsx,1,h,9,,,,,0,6,6,0,0,1,1,7,,,,,,,,,,,,,,,,,,,,,,,,,,,,,,,,,,,,,,,,,,,,,,,,,,,,,,,,,,,,,1620.1005597000003,None,1620.1005597000003,None,1620.5735974999989,None,1620.5735974999989,None,"['t', 'v']","[8.23091519999798, 8.383639799998491]",1620.5735974999989,None,8.383639799998491,8.23091519999798,9,False,False,False,1632.9696187000009,None,1632.9696187000009,None,1632.9696187000009,None,1632.9696187000009,None,1632.9696187000009,None,1632.9696187000009,None,1632.9696187000009,None,1632.9696187000009,None,1634.0000513000014,None,1634.0000513000014,None,1,h,,,,,,,,,,,,,,,,,,13_14,001,2021_Feb_24_1449,ComputerHuman,2020.1.3,59.89071142947659,
Sychronize.jpg,Number7.jpg,,Human,Human.xlsx,1,h,7,,,,,0,6,6,0,0,2,2,3,,,,,,,,,,,,,,,,,,,,,,,,,,,,,,,,,,,,,,,,,,,,,,,,,,,,,,,,,,,,,1634.9969716000014,None,1634.9969716000014,None,1635.4764858000017,None,1635.4764858000017,None,"['t', 'v']","[6.796365800000785, 6.844676000000618]",1635.4764858000017,None,6.844676000000618,6.796365800000785,7,False,False,False,1646.8107358000016,None,1646.8107358000016,None,1646.8107358000016,None,1646.8107358000016,None,1646.8107358000016,None,1646.8107358000016,None,1646.8107358000016,None,1646.8107358000016,None,1647.8523993000017,None,1647.8523993000017,None,1,h,,,,,,,,,,,,,,,,,,13_14,001,2021_Feb_24_1449,ComputerHuman,2020.1.3,59.89071142947659,
Sychronize.jpg,Number8.jpg,,Human,Human.xlsx,1,h,8,,,,,0,6,6,0,0,3,3,5,,,,,,,,,,,,,,,,,,,,,,,,,,,,,,,,,,,,,,,,,,,,,,,,,,,,,,,,,,,,,1648.8330719000005,None,1648.8330719000005,None,1649.311594400002,None,1649.311594400002,None,"['t', 'v']","[7.713480099999288, 8.524581499998021]",1649.311594400002,None,8.524581499998021,7.713480099999288,8,False,False,False,1660.8636373000008,None,1660.8636373000008,None,1660.8636373000008,None,1660.8636373000008,None,1660.8636373000008,None,1660.8636373000008,None,1660.8636373000008,None,1660.8636373000008,None,1661.8828064000008,None,1661.8828064000008,None,1,h,,,,,,,,,,,,,,,,,,13_14,001,2021_Feb_24_1449,ComputerHuman,2020.1.3,59.89071142947659,
Sychronize.jpg,Number7.jpg,,Human,Human.xlsx,1,h,7,,,,,0,6,6,0,0,4,4,2,,,,,,,,,,,,,,,,,,,,,,,,,,,,,,,,,,,,,,,,,,,,,,,,,,,,,,,,,,,,,1662.8920789000003,None,1662.8920789000003,None,1663.3821597999995,None,1663.3821597999995,None,"['v', 't']","[5.6982424999987416, 7.575010000000475]",1663.3821597999995,None,5.6982424999987416,7.575010000000475,7,False,False,False,1673.4217924000004,None,1673.4217924000004,None,1673.4217924000004,None,1673.4217924000004,None,1673.4217924000004,None,1673.4217924000004,None,1673.4217924000004,None,1673.4217924000004,None,1674.4365367999999,None,1674.4365367999999,None,1,h,,,,,,,,,,,,,,,,,,13_14,001,2021_Feb_24_1449,ComputerHuman,2020.1.3,59.89071142947659,
Sychronize.jpg,Number6.jpg,,Human,Human.xlsx,1,h,6,,,,,0,6,6,0,0,5,5,1,,,,,,,,,,,,,,,,,,,,,,,,,,,,,,,,,,,,,,,,,,,,,,,,,,,,,,,,,,,,,1675.4590867000006,None,1675.4590867000006,None,1675.938689900002,None,1675.938689900002,None,"['v', 't']","[5.474322400001256, 7.110108600001695]",1675.938689900002,None,5.474322400001256,7.110108600001695,6,False,False,False,1684.840858399999,None,1684.840858399999,None,1684.840858399999,None,1684.840858399999,None,1684.840858399999,None,1684.840858399999,None,1684.840858399999,None,1684.840858399999,None,1685.8545445000018,None,1685.8545445000018,None,1,h,,,,,,,,,,,,,,,,,,13_14,001,2021_Feb_24_1449,ComputerHuman,2020.1.3,59.89071142947659,
Sychronize.jpg,Number6.jpg,,Human,Human.xlsx,1,h,6,,,,,0,6,6,0,0,6,6,0,,,,,,,,,,,,,,,,,,,,,,,,,,,,,,,,,,,,,,,,,,,,,,,,,,,,,,,,,,,,,1686.8733952000002,None,1686.8733952000002,None,1687.3540952000003,None,1687.3540952000003,None,"['v', 't']","[5.577467199997045, 5.802850599997328]",1687.3540952000003,None,5.577467199997045,5.802850599997328,6,False,False,False,1694.8960172000006,None,1694.8960172000006,None,1694.8960172000006,None,1694.8960172000006,None,1694.8960172000006,None,1694.8960172000006,None,1694.8960172000006,None,1694.8960172000006,None,1695.9073417,None,1695.9073417,None,1,h,,,,,,,,,,,,,,,,,,13_14,001,2021_Feb_24_1449,ComputerHuman,2020.1.3,59.89071142947659,
Sychronize.jpg,Number9.jpg,,Human,Human.xlsx,1,h,9,,,,,0,6,6,0,0,7,7,6,,,,,,,,,,,,,,,,,,,,,,,,,,,,,,,,,,,,,,,,,,,,,,,,,,,,,,,,,,,,,1696.9261743999996,None,1696.9261743999996,None,1697.4056779999992,None,1697.4056779999992,None,"['t', 'v']","[8.583235600002808, 9.119532400000026]",1697.4056779999992,None,9.119532400000026,8.583235600002808,9,False,False,False,1710.1304031,None,1710.1304031,None,1710.1304031,None,1710.1304031,None,1710.1304031,None,1710.1304031,None,1710.1304031,None,1710.1304031,None,1711.1429863000012,None,1711.1429863000012,None,1,h,,,,,,,,,,,,,,,,,,13_14,001,2021_Feb_24_1449,ComputerHuman,2020.1.3,59.89071142947659,
Sychronize.jpg,Number8.jpg,,Human,Human.xlsx,1,h,8,,,,,0,6,6,0,0,8,8,4,,,,,,,,,,,,,,,,,,,,,,,,,,,,,,,,,,,,,,,,,,,,,,,,,,,,,,,,,,,,,1712.1617146999997,None,1712.1617146999997,None,1712.6421279999995,None,1712.6421279999995,None,"['v', 't']","[7.637769900000421, 7.854575699999259]",1712.6421279999995,None,7.637769900000421,7.854575699999259,8,False,False,False,1722.8154446000008,None,1722.8154446000008,None,1722.8154446000008,None,1722.8154446000008,None,1722.8154446000008,None,1722.8154446000008,None,1722.8154446000008,None,1722.8154446000008,None,1723.8512900999995,None,1723.8512900999995,None,1,h,,,,,,,,,,,,,,,,,,13_14,001,2021_Feb_24_1449,ComputerHuman,2020.1.3,59.89071142947659,
Sychronize.jpg,Number10.jpg,,Human,Human.xlsx,1,h,10,,,,,0,6,6,0,0,9,9,9,,,,,,,,,,,,,,,,,,,,,,,,,,,,,,,,,,,,,,,,,,,,,,,,,,,,,,,,,,,,,1724.8484343000018,None,1724.8484343000018,None,1725.3270200000006,None,1725.3270200000006,None,"['t', 'v']","[9.949454000001424, 10.00615950000065]",1725.3270200000006,None,10.00615950000065,9.949454000001424,10,False,False,False,1738.5961849000014,None,1738.5961849000014,None,1738.5961849000014,None,1738.5961849000014,None,1738.5961849000014,None,1738.5961849000014,None,1738.5961849000014,None,1738.5961849000014,None,1739.6356018000006,None,1739.6356018000006,None,1,h,,,,,,,,,,,,,,,,,,13_14,001,2021_Feb_24_1449,ComputerHuman,2020.1.3,59.89071142947659,
,,,,Human.xlsx,1,h,,,,,,0,6,6,0,,,,,,,,,,,,,,,,,,,,,,,,,,,,,,,,,,,,,,,,,,,,,,,,,,,,,,,,,,,,,,,,,,,,,,,,,,,,,,,,,,,,,,,,,,,,,,,,,,,,,,,1,h,1740.598395699999,None,h,1,2.1854954000009457,1741.5945140000003,None,1743.8161629999995,None,None,None,None,None,None,,,,13_14,001,2021_Feb_24_1449,ComputerHuman,2020.1.3,59.89071142947659,
Sychronize.jpg,Number7.jpg,,Computer,Computer.xlsx,1,c,7,,,,,0,7,7,1,0,0,0,2,,,,,,,,,,,,,,,,,,,,,,,,,,,,,,,,,,,,,,,,,,,,,,,,,,,,,,,,,1748.8355230999987,None,1748.8355230999987,None,1751.8865025000014,None,1751.8865025000014,None,1752.3502364000014,None,1752.3502364000014,None,"['t', 'v']","[6.522510900002089, 7.09086070000194]",1752.3502364000014,None,7.09086070000194,6.522510900002089,7,False,False,False,1763.0612623999987,None,1763.0612623999987,None,1763.0612623999987,None,1763.0612623999987,None,1763.0612623999987,None,1763.0612623999987,None,1763.0612623999987,None,1763.0612623999987,None,1764.0703433000017,None,1764.0703433000017,None,1,c,,,,,,,,,,,,,,,,,,13_14,001,2021_Feb_24_1449,ComputerHuman,2020.1.3,59.89071142947659,
Sychronize.jpg,Number8.jpg,,Computer,Computer.xlsx,1,c,8,,,,,0,7,7,1,0,1,1,4,,,,,,,,,,,,,,,,,,,,,,,,,,,,,,,,,,,,,,,,,,,,,,,,,,,,,,,,,,,,,1765.089940599999,None,1765.089940599999,None,1765.5697607000002,None,1765.5697607000002,None,"['t', 'v']","[7.651452300000528, 8.394927299999836]",1765.5697607000002,None,8.394927299999836,7.651452300000528,8,False,False,False,1777.0213790999987,None,1777.0213790999987,None,1777.0213790999987,None,1777.0213790999987,None,1777.0213790999987,None,1777.0213790999987,None,1777.0213790999987,None,1777.0213790999987,None,1778.0412939999987,None,1778.0412939999987,None,1,c,,,,,,,,,,,,,,,,,,13_14,001,2021_Feb_24_1449,ComputerHuman,2020.1.3,59.89071142947659,
Sychronize.jpg,Number8.jpg,,Computer,Computer.xlsx,1,c,8,,,,,0,7,7,1,0,2,2,5,,,,,,,,,,,,,,,,,,,,,,,,,,,,,,,,,,,,,,,,,,,,,,,,,,,,,,,,,,,,,1779.0585293000004,None,1779.0585293000004,None,1779.537645700002,None,1779.537645700002,None,"['v', 't']","[7.190114799999719, 7.471497999998974]",1779.537645700002,None,7.190114799999719,7.471497999998974,8,False,False,False,1789.3487276999986,None,1789.3487276999986,None,1789.3487276999986,None,1789.3487276999986,None,1789.3487276999986,None,1789.3487276999986,None,1789.3487276999986,None,1789.3487276999986,None,1790.3436761000012,None,1790.3436761000012,None,1,c,,,,,,,,,,,,,,,,,,13_14,001,2021_Feb_24_1449,ComputerHuman,2020.1.3,59.89071142947659,
Sychronize.jpg,Number10.jpg,,Computer,Computer.xlsx,1,c,10,,,,,0,7,7,1,0,3,3,8,,,,,,,,,,,,,,,,,,,,,,,,,,,,,,,,,,,,,,,,,,,,,,,,,,,,,,,,,,,,,1791.368390399999,None,1791.368390399999,None,1791.8414139000015,None,1791.8414139000015,None,"['v', 't']","[8.114019499997084, 8.814842899999348]",1791.8414139000015,None,8.114019499997084,8.814842899999348,10,False,False,False,1802.7925084999988,None,1802.7925084999988,None,1802.7925084999988,None,1802.7925084999988,None,1802.7925084999988,None,1802.7925084999988,None,1802.7925084999988,None,1802.7925084999988,None,1803.8135709999988,None,1803.8135709999988,None,1,c,,,,,,,,,,,,,,,,,,13_14,001,2021_Feb_24_1449,ComputerHuman,2020.1.3,59.89071142947659,
Sychronize.jpg,Number10.jpg,,Computer,Computer.xlsx,1,c,10,,,,,0,7,7,1,0,4,4,9,,,,,,,,,,,,,,,,,,,,,,,,,,,,,,,,,,,,,,,,,,,,,,,,,,,,,,,,,,,,,1804.8330198000003,None,1804.8330198000003,None,1805.3097072000019,None,1805.3097072000019,None,['v'],[10.2272054999994],1805.3097072000019,None,10.2272054999994,13,10,False,False,False,1818.351971600001,None,1818.351971600001,None,1818.351971600001,None,1818.351971600001,None,1818.351971600001,None,1818.351971600001,None,1818.351971600001,None,1818.351971600001,None,1819.3492287000008,None,1819.3492287000008,None,1,c,,,,,,,,,,,,,,,,,,13_14,001,2021_Feb_24_1449,ComputerHuman,2020.1.3,59.89071142947659,
Sychronize.jpg,Number7.jpg,,Computer,Computer.xlsx,1,c,7,,,,,0,7,7,1,0,5,5,3,,,,,,,,,,,,,,,,,,,,,,,,,,,,,,,,,,,,,,,,,,,,,,,,,,,,,,,,,,,,,1820.3737083999986,None,1820.3737083999986,None,1820.847673700002,None,1820.847673700002,None,"['t', 'v']","[6.696845800001029, 7.773197300000902]",1820.847673700002,None,7.773197300000902,6.696845800001029,7,False,False,False,1831.5563887999997,None,1831.5563887999997,None,1831.5563887999997,None,1831.5563887999997,None,1831.5563887999997,None,1831.5563887999997,None,1831.5563887999997,None,1831.5563887999997,None,1832.5681791999996,None,1832.5681791999996,None,1,c,,,,,,,,,,,,,,,,,,13_14,001,2021_Feb_24_1449,ComputerHuman,2020.1.3,59.89071142947659,
Sychronize.jpg,Number9.jpg,,Computer,Computer.xlsx,1,c,9,,,,,0,7,7,1,0,6,6,7,,,,,,,,,,,,,,,,,,,,,,,,,,,,,,,,,,,,,,,,,,,,,,,,,,,,,,,,,,,,,1833.5922322000006,None,1833.5922322000006,None,1834.0666444000017,None,1834.0666444000017,None,"['v', 't']","[8.201970000001893, 9.005916500002058]",1834.0666444000017,None,8.201970000001893,9.005916500002058,9,False,False,False,1844.672783599999,None,1844.672783599999,None,1844.672783599999,None,1844.672783599999,None,1844.672783599999,None,1844.672783599999,None,1844.672783599999,None,1844.672783599999,None,1845.6867745000018,None,1845.6867745000018,None,1,c,,,,,,,,,,,,,,,,,,13_14,001,2021_Feb_24_1449,ComputerHuman,2020.1.3,59.89071142947659,
Sychronize.jpg,Number9.jpg,,Computer,Computer.xlsx,1,c,9,,,,,0,7,7,1,0,7,7,6,,,,,,,,,,,,,,,,,,,,,,,,,,,,,,,,,,,,,,,,,,,,,,,,,,,,,,,,,,,,,1846.7096855000018,None,1846.7096855000018,None,1847.206165800002,None,1847.206165800002,None,"['t', 'v']","[8.762361299999611, 9.342443499997898]",1847.206165800002,None,9.342443499997898,8.762361299999611,9,False,False,False,1859.8552418,None,1859.8552418,None,1859.8552418,None,1859.8552418,None,1859.8552418,None,1859.8552418,None,1859.8552418,None,1859.8552418,None,1860.8764431000018,None,1860.8764431000018,None,1,c,,,,,,,,,,,,,,,,,,13_14,001,2021_Feb_24_1449,ComputerHuman,2020.1.3,59.89071142947659,
Sychronize.jpg,Number6.jpg,,Computer,Computer.xlsx,1,c,6,,,,,0,7,7,1,0,8,8,0,,,,,,,,,,,,,,,,,,,,,,,,,,,,,,,,,,,,,,,,,,,,,,,,,,,,,,,,,,,,,1861.8760989000002,None,1861.8760989000002,None,1862.3544155000018,None,1862.3544155000018,None,"['v', 't']","[6.318894200001523, 6.3982114999998885]",1862.3544155000018,None,6.318894200001523,6.3982114999998885,6,False,False,False,1870.8928234000014,None,1870.8928234000014,None,1870.8928234000014,None,1870.8928234000014,None,1870.8928234000014,None,1870.8928234000014,None,1870.8928234000014,None,1870.8928234000014,None,1871.9089212,None,1871.9089212,None,1,c,,,,,,,,,,,,,,,,,,13_14,001,2021_Feb_24_1449,ComputerHuman,2020.1.3,59.89071142947659,
Sychronize.jpg,Number6.jpg,,Computer,Computer.xlsx,1,c,6,,,,,0,7,7,1,0,9,9,1,,,,,,,,,,,,,,,,,,,,,,,,,,,,,,,,,,,,,,,,,,,,,,,,,,,,,,,,,,,,,1872.9284466999998,None,1872.9284466999998,None,1873.4066004999986,None,1873.4066004999986,None,"['v', 't']","[6.638182600003347, 7.065500600001542]",1873.4066004999986,None,6.638182600003347,7.065500600001542,6,False,False,False,1882.4953104999986,None,1882.4953104999986,None,1882.4953104999986,None,1882.4953104999986,None,1882.4953104999986,None,1882.4953104999986,None,1882.4953104999986,None,1882.4953104999986,None,1883.5114705999986,None,1883.5114705999986,None,1,c,,,,,,,,,,,,,,,,,,13_14,001,2021_Feb_24_1449,ComputerHuman,2020.1.3,59.89071142947659,
,,,,Computer.xlsx,1,c,,,,,,0,7,7,1,,,,,,,,,,,,,,,,,,,,,,,,,,,,,,,,,,,,,,,,,,,,,,,,,,,,,,,,,,,,,,,,,,,,,,,,,,,,,,,,,,,,,,,,,,,,,,,,,,,,,,,1,c,1884.5106760999988,None,c,1,2.1855773999996018,1885.507244700002,None,None,None,1887.7476850999992,None,"['space', 'space']",1888.7411500999988,None,"[1.459464100000332, 2.1993775999981153]",,,13_14,001,2021_Feb_24_1449,ComputerHuman,2020.1.3,59.89071142947659,
Sychronize.jpg,Number8.jpg,,Human,Human.xlsx,1,h,8,,,,,1,0,8,0,0,0,0,5,,,,,,,,,,,,,,,,,,,,,,,,,,,,,,,,,,,,,,,,,,,,,,,,,,,,,,,,,1890.9671702000014,None,1890.9671702000014,None,1893.999336500001,None,1893.999336500001,None,1894.480807,None,1894.480807,None,"['t', 'v']","[6.626999200001592, 7.86289730000135]",1894.480807,None,7.86289730000135,6.626999200001592,8,False,False,False,1905.0705769999986,None,1905.0705769999986,None,1905.0705769999986,None,1905.0705769999986,None,1905.0705769999986,None,1905.0705769999986,None,1905.0705769999986,None,1905.0705769999986,None,1906.0831247999995,None,1906.0831247999995,None,1,h,,,,,,,,,,,,,,,,,,13_14,001,2021_Feb_24_1449,ComputerHuman,2020.1.3,59.89071142947659,
Sychronize.jpg,Number10.jpg,,Human,Human.xlsx,1,h,10,,,,,1,0,8,0,0,1,1,8,,,,,,,,,,,,,,,,,,,,,,,,,,,,,,,,,,,,,,,,,,,,,,,,,,,,,,,,,,,,,1907.1018927000005,None,1907.1018927000005,None,1907.582276000001,None,1907.582276000001,None,"['v', 't']","[8.77449759999945, 9.026490000000194]",1907.582276000001,None,8.77449759999945,9.026490000000194,10,False,False,False,1918.8549635999989,None,1918.8549635999989,None,1918.8549635999989,None,1918.8549635999989,None,1918.8549635999989,None,1918.8549635999989,None,1918.8549635999989,None,1918.8549635999989,None,1919.888423299999,None,1919.888423299999,None,1,h,,,,,,,,,,,,,,,,,,13_14,001,2021_Feb_24_1449,ComputerHuman,2020.1.3,59.89071142947659,
Sychronize.jpg,Number10.jpg,,Human,Human.xlsx,1,h,10,,,,,1,0,8,0,0,2,2,9,,,,,,,,,,,,,,,,,,,,,,,,,,,,,,,,,,,,,,,,,,,,,,,,,,,,,,,,,,,,,1920.8873472000014,None,1920.8873472000014,None,1921.3682862999995,None,1921.3682862999995,None,"['t', 'v']","[9.192487899999833, 10.472187999999733]",1921.3682862999995,None,10.472187999999733,9.192487899999833,10,False,False,False,1934.652288600002,None,1934.652288600002,None,1934.652288600002,None,1934.652288600002,None,1934.652288600002,None,1934.652288600002,None,1934.652288600002,None,1934.652288600002,None,1935.6548019000002,None,1935.6548019000002,None,1,h,,,,,,,,,,,,,,,,,,13_14,001,2021_Feb_24_1449,ComputerHuman,2020.1.3,59.89071142947659,
Sychronize.jpg,Number9.jpg,,Human,Human.xlsx,1,h,9,,,,,1,0,8,0,0,3,3,6,,,,,,,,,,,,,,,,,,,,,,,,,,,,,,,,,,,,,,,,,,,,,,,,,,,,,,,,,,,,,1936.6745831000007,None,1936.6745831000007,None,1937.1529081000008,None,1937.1529081000008,None,"['v', 't']","[8.266586800000368, 8.428181100000074]",1937.1529081000008,None,8.266586800000368,8.428181100000074,9,False,False,False,1948.0390775999986,None,1948.0390775999986,None,1948.0390775999986,None,1948.0390775999986,None,1948.0390775999986,None,1948.0390775999986,None,1948.0390775999986,None,1948.0390775999986,None,1949.0639847999992,None,1949.0639847999992,None,1,h,,,,,,,,,,,,,,,,,,13_14,001,2021_Feb_24_1449,ComputerHuman,2020.1.3,59.89071142947659,
Sychronize.jpg,Number8.jpg,,Human,Human.xlsx,1,h,8,,,,,1,0,8,0,0,4,4,4,,,,,,,,,,,,,,,,,,,,,,,,,,,,,,,,,,,,,,,,,,,,,,,,,,,,,,,,,,,,,1950.0606941000005,None,1950.0606941000005,None,1950.5390779000008,None,1950.5390779000008,None,"['t', 'v']","[7.357640899997932, 8.029672399999981]",1950.5390779000008,None,8.029672399999981,7.357640899997932,8,False,False,False,1962.1315651000004,None,1962.1315651000004,None,1962.1315651000004,None,1962.1315651000004,None,1962.1315651000004,None,1962.1315651000004,None,1962.1315651000004,None,1962.1315651000004,None,1963.1445434000016,None,1963.1445434000016,None,1,h,,,,,,,,,,,,,,,,,,13_14,001,2021_Feb_24_1449,ComputerHuman,2020.1.3,59.89071142947659,
Sychronize.jpg,Number6.jpg,,Human,Human.xlsx,1,h,6,,,,,1,0,8,0,0,5,5,0,,,,,,,,,,,,,,,,,,,,,,,,,,,,,,,,,,,,,,,,,,,,,,,,,,,,,,,,,,,,,1964.1635367000017,None,1964.1635367000017,None,1964.6431712000012,None,1964.6431712000012,None,"['t', 'v']","[5.6015365999992355, 6.239819300000818]",1964.6431712000012,None,6.239819300000818,5.6015365999992355,6,False,False,False,1973.8147762000008,None,1973.8147762000008,None,1973.8147762000008,None,1973.8147762000008,None,1973.8147762000008,None,1973.8147762000008,None,1973.8147762000008,None,1973.8147762000008,None,1974.829465400002,None,1974.829465400002,None,1,h,,,,,,,,,,,,,,,,,,13_14,001,2021_Feb_24_1449,ComputerHuman,2020.1.3,59.89071142947659,
Sychronize.jpg,Number6.jpg,,Human,Human.xlsx,1,h,6,,,,,1,0,8,0,0,6,6,1,,,,,,,,,,,,,,,,,,,,,,,,,,,,,,,,,,,,,,,,,,,,,,,,,,,,,,,,,,,,,1975.8510891000005,None,1975.8510891000005,None,1976.3274507999995,None,1976.3274507999995,None,"['v', 't']","[5.079515099998389, 5.689016799999081]",1976.3274507999995,None,5.079515099998389,5.689016799999081,6,False,False,False,1984.5130872000009,None,1984.5130872000009,None,1984.5130872000009,None,1984.5130872000009,None,1984.5130872000009,None,1984.5130872000009,None,1984.5130872000009,None,1984.5130872000009,None,1985.5318898000005,None,1985.5318898000005,None,1,h,,,,,,,,,,,,,,,,,,13_14,001,2021_Feb_24_1449,ComputerHuman,2020.1.3,59.89071142947659,
Sychronize.jpg,Number9.jpg,,Human,Human.xlsx,1,h,9,,,,,1,0,8,0,0,7,7,7,,,,,,,,,,,,,,,,,,,,,,,,,,,,,,,,,,,,,,,,,,,,,,,,,,,,,,,,,,,,,1986.5513561000007,None,1986.5513561000007,None,1987.0503572999987,None,1987.0503572999987,None,"['v', 't']","[8.78669710000031, 8.821224600000278]",1987.0503572999987,None,8.78669710000031,8.821224600000278,9,False,False,False,1998.1819283000004,None,1998.1819283000004,None,1998.1819283000004,None,1998.1819283000004,None,1998.1819283000004,None,1998.1819283000004,None,1998.1819283000004,None,1998.1819283000004,None,1999.2238168000003,None,1999.2238168000003,None,1,h,,,,,,,,,,,,,,,,,,13_14,001,2021_Feb_24_1449,ComputerHuman,2020.1.3,59.89071142947659,
Sychronize.jpg,Number7.jpg,,Human,Human.xlsx,1,h,7,,,,,1,0,8,0,0,8,8,3,,,,,,,,,,,,,,,,,,,,,,,,,,,,,,,,,,,,,,,,,,,,,,,,,,,,,,,,,,,,,2000.2080506999991,None,2000.2080506999991,None,2000.698937699999,None,2000.698937699999,None,"['t', 'v']","[7.4416998000015155, 8.71757830000206]",2000.698937699999,None,8.71757830000206,7.4416998000015155,7,False,False,False,2012.788823400002,None,2012.788823400002,None,2012.788823400002,None,2012.788823400002,None,2012.788823400002,None,2012.788823400002,None,2012.788823400002,None,2012.788823400002,None,2013.8046331000005,None,2013.8046331000005,None,1,h,,,,,,,,,,,,,,,,,,13_14,001,2021_Feb_24_1449,ComputerHuman,2020.1.3,59.89071142947659,
Sychronize.jpg,Number7.jpg,,Human,Human.xlsx,1,h,7,,,,,1,0,8,0,0,9,9,2,,,,,,,,,,,,,,,,,,,,,,,,,,,,,,,,,,,,,,,,,,,,,,,,,,,,,,,,,,,,,2014.8243418999991,None,2014.8243418999991,None,2015.303423199999,None,2015.303423199999,None,"['t', 'v']","[5.951275600000372, 6.973470999997517]",2015.303423199999,None,6.973470999997517,5.951275600000372,7,False,False,False,2024.7932637000013,None,2024.7932637000013,None,2024.7932637000013,None,2024.7932637000013,None,2024.7932637000013,None,2024.7932637000013,None,2024.7932637000013,None,2024.7932637000013,None,2025.806343799999,None,2025.806343799999,None,1,h,,,,,,,,,,,,,,,,,,13_14,001,2021_Feb_24_1449,ComputerHuman,2020.1.3,59.89071142947659,
,,,,Human.xlsx,1,h,,,,,,1,0,8,0,,,,,,,,,,,,,,,,,,,,,,,,,,,,,,,,,,,,,,,,,,,,,,,,,,,,,,,,,,,,,,,,,,,,,,,,,,,,,,,,,,,,,,,,,,,,,,,,,,,,,,,1,h,2026.806497900001,None,h,1,2.9575456000020495,2027.8026486999988,None,2030.794023800001,None,None,None,None,None,None,,,,13_14,001,2021_Feb_24_1449,ComputerHuman,2020.1.3,59.89071142947659,
Sychronize.jpg,Number10.jpg,,Human,Human.xlsx,2,h,10,,,,,1,1,9,6,0,0,0,8,,,,,,,,,,,,,,,,,,,,,,,,,,,,,,,,,,,,,,,,,,,,,,,,,,,,,,,,,2035.8285300999996,None,2035.8285300999996,None,2038.8614615000006,None,2038.8614615000006,None,2039.3247711000004,None,2039.3247711000004,None,"['v', 't']","[10.147884499998327, 10.199360799997521]",2039.3247711000004,None,10.147884499998327,10.199360799997521,10,False,False,False,2051.4384562000014,None,2051.4384562000014,None,2051.4384562000014,None,2051.4384562000014,None,2051.4384562000014,None,2051.4384562000014,None,2051.4384562000014,None,2051.4384562000014,None,2052.4679571999986,None,2052.4679571999986,None,2,h,,,,,,,,,,,,,,,,,,13_14,001,2021_Feb_24_1449,ComputerHuman,2020.1.3,59.89071142947659,
Sychronize.jpg,Number10.jpg,,Human,Human.xlsx,2,h,10,,,,,1,1,9,6,0,1,1,9,,,,,,,,,,,,,,,,,,,,,,,,,,,,,,,,,,,,,,,,,,,,,,,,,,,,,,,,,,,,,2053.4647678,None,2053.4647678,None,2053.944387200001,None,2053.944387200001,None,"['v', 't']","[9.84466059999977, 10.215770200000406]",2053.944387200001,None,9.84466059999977,10.215770200000406,10,False,False,False,2065.940942000001,None,2065.940942000001,None,2065.940942000001,None,2065.940942000001,None,2065.940942000001,None,2065.940942000001,None,2065.940942000001,None,2065.940942000001,None,2066.9479045000007,None,2066.9479045000007,None,2,h,,,,,,,,,,,,,,,,,,13_14,001,2021_Feb_24_1449,ComputerHuman,2020.1.3,59.89071142947659,
Sychronize.jpg,Number7.jpg,,Human,Human.xlsx,2,h,7,,,,,1,1,9,6,0,2,2,2,,,,,,,,,,,,,,,,,,,,,,,,,,,,,,,,,,,,,,,,,,,,,,,,,,,,,,,,,,,,,2067.967360900002,None,2067.967360900002,None,2068.447525899999,None,2068.447525899999,None,"['v', 't']","[7.559266799999023, 8.236761599997408]",2068.447525899999,None,7.559266799999023,8.236761599997408,7,False,False,False,2078.523400500002,None,2078.523400500002,None,2078.523400500002,None,2078.523400500002,None,2078.523400500002,None,2078.523400500002,None,2078.523400500002,None,2078.523400500002,None,2079.5341313999998,None,2079.5341313999998,None,2,h,,,,,,,,,,,,,,,,,,13_14,001,2021_Feb_24_1449,ComputerHuman,2020.1.3,59.89071142947659,
Sychronize.jpg,Number9.jpg,,Human,Human.xlsx,2,h,9,,,,,1,1,9,6,0,3,3,7,,,,,,,,,,,,,,,,,,,,,,,,,,,,,,,,,,,,,,,,,,,,,,,,,,,,,,,,,,,,,2080.559189399999,None,2080.559189399999,None,2081.033620000002,None,2081.033620000002,None,"['t', 'v']","[8.590867199996865, 8.859088899997005]",2081.033620000002,None,8.859088899997005,8.590867199996865,9,False,False,False,2094.176460400002,None,2094.176460400002,None,2094.176460400002,None,2094.176460400002,None,2094.176460400002,None,2094.176460400002,None,2094.176460400002,None,2094.176460400002,None,2095.1873505000003,None,2095.1873505000003,None,2,h,,,,,,,,,,,,,,,,,,13_14,001,2021_Feb_24_1449,ComputerHuman,2020.1.3,59.89071142947659,
Sychronize.jpg,Number7.jpg,,Human,Human.xlsx,2,h,7,,,,,1,1,9,6,0,4,4,3,,,,,,,,,,,,,,,,,,,,,,,,,,,,,,,,,,,,,,,,,,,,,,,,,,,,,,,,,,,,,2096.2116042999987,None,2096.2116042999987,None,2096.6864683999993,None,2096.6864683999993,None,"['v', 't']","[7.233639000001858, 7.846156899999187]",2096.6864683999993,None,7.233639000001858,7.846156899999187,7,False,False,False,2106.6583711999992,None,2106.6583711999992,None,2106.6583711999992,None,2106.6583711999992,None,2106.6583711999992,None,2106.6583711999992,None,2106.6583711999992,None,2106.6583711999992,None,2107.6742113,None,2107.6742113,None,2,h,,,,,,,,,,,,,,,,,,13_14,001,2021_Feb_24_1449,ComputerHuman,2020.1.3,59.89071142947659,
Sychronize.jpg,Number6.jpg,,Human,Human.xlsx,2,h,6,,,,,1,1,9,6,0,5,5,0,,,,,,,,,,,,,,,,,,,,,,,,,,,,,,,,,,,,,,,,,,,,,,,,,,,,,,,,,,,,,2108.6982049,None,2108.6982049,None,2109.172171099999,None,2109.172171099999,None,"['t', 'v']","[6.16003450000062, 6.520495200002188]",2109.172171099999,None,6.520495200002188,6.16003450000062,6,False,False,False,2119.4604325,None,2119.4604325,None,2119.4604325,None,2119.4604325,None,2119.4604325,None,2119.4604325,None,2119.4604325,None,2119.4604325,None,2120.476676099999,None,2120.476676099999,None,2,h,,,,,,,,,,,,,,,,,,13_14,001,2021_Feb_24_1449,ComputerHuman,2020.1.3,59.89071142947659,
Sychronize.jpg,Number8.jpg,,Human,Human.xlsx,2,h,8,,,,,1,1,9,6,0,6,6,5,,,,,,,,,,,,,,,,,,,,,,,,,,,,,,,,,,,,,,,,,,,,,,,,,,,,,,,,,,,,,2121.494554500001,None,2121.494554500001,None,2121.9755829999995,None,2121.9755829999995,None,"['v', 't']","[7.042088100002729, 8.825001799999882]",2121.9755829999995,None,7.042088100002729,8.825001799999882,8,False,False,False,2132.6344654999994,None,2132.6344654999994,None,2132.6344654999994,None,2132.6344654999994,None,2132.6344654999994,None,2132.6344654999994,None,2132.6344654999994,None,2132.6344654999994,None,2133.6468773999986,None,2133.6468773999986,None,2,h,,,,,,,,,,,,,,,,,,13_14,001,2021_Feb_24_1449,ComputerHuman,2020.1.3,59.89071142947659,
Sychronize.jpg,Number6.jpg,,Human,Human.xlsx,2,h,6,,,,,1,1,9,6,0,7,7,1,,,,,,,,,,,,,,,,,,,,,,,,,,,,,,,,,,,,,,,,,,,,,,,,,,,,,,,,,,,,,2134.6643397000007,None,2134.6643397000007,None,2135.144417700001,None,2135.144417700001,None,"['v', 't']","[6.971902299999783, 7.443823600002361]",2135.144417700001,None,6.971902299999783,7.443823600002361,6,False,False,False,2144.9910941000016,None,2144.9910941000016,None,2144.9910941000016,None,2144.9910941000016,None,2144.9910941000016,None,2144.9910941000016,None,2144.9910941000016,None,2144.9910941000016,None,2145.9976104000016,None,2145.9976104000016,None,2,h,,,,,,,,,,,,,,,,,,13_14,001,2021_Feb_24_1449,ComputerHuman,2020.1.3,59.89071142947659,
Sychronize.jpg,Number8.jpg,,Human,Human.xlsx,2,h,8,,,,,1,1,9,6,0,8,8,4,,,,,,,,,,,,,,,,,,,,,,,,,,,,,,,,,,,,,,,,,,,,,,,,,,,,,,,,,,,,,2147.028605300002,None,2147.028605300002,None,2147.4952865000014,None,2147.4952865000014,None,"['t', 'v']","[7.505203900000197, 9.080362400000013]",2147.4952865000014,None,9.080362400000013,7.505203900000197,8,False,False,False,2159.257676100002,None,2159.257676100002,None,2159.257676100002,None,2159.257676100002,None,2159.257676100002,None,2159.257676100002,None,2159.257676100002,None,2159.257676100002,None,2160.266929100002,None,2160.266929100002,None,2,h,,,,,,,,,,,,,,,,,,13_14,001,2021_Feb_24_1449,ComputerHuman,2020.1.3,59.89071142947659,
Sychronize.jpg,Number9.jpg,,Human,Human.xlsx,2,h,9,,,,,1,1,9,6,0,9,9,6,,,,,,,,,,,,,,,,,,,,,,,,,,,,,,,,,,,,,,,,,,,,,,,,,,,,,,,,,,,,,2161.293211100001,None,2161.293211100001,None,2161.7651953999994,None,2161.7651953999994,None,"['v', 't']","[8.358958500000881, 8.81523770000058]",2161.7651953999994,None,8.358958500000881,8.81523770000058,9,False,False,False,2172.549771099999,None,2172.549771099999,None,2172.549771099999,None,2172.549771099999,None,2172.549771099999,None,2172.549771099999,None,2172.549771099999,None,2172.549771099999,None,2173.5541593000016,None,2173.5541593000016,None,2,h,,,,,,,,,,,,,,,,,,13_14,001,2021_Feb_24_1449,ComputerHuman,2020.1.3,59.89071142947659,
,,,,Human.xlsx,2,h,,,,,,1,1,9,6,,,,,,,,,,,,,,,,,,,,,,,,,,,,,,,,,,,,,,,,,,,,,,,,,,,,,,,,,,,,,,,,,,,,,,,,,,,,,,,,,,,,,,,,,,,,,,,,,,,,,,,2,h,2174.5513219999993,None,h,1,7.6074394999996,2175.548988900002,None,2183.2071093000013,None,None,None,None,None,None,,,,13_14,001,2021_Feb_24_1449,ComputerHuman,2020.1.3,59.89071142947659,
Sychronize.jpg,Number7.jpg,,Computer,Computer.xlsx,1,c,7,,,,,1,2,10,1,0,0,0,3,,,,,,,,,,,,,,,,,,,,,,,,,,,,,,,,,,,,,,,,,,,,,,,,,,,,,,,,,2188.2255391,None,2188.2255391,None,2191.242876799999,None,2191.242876799999,None,2191.742050699999,None,2191.742050699999,None,"['v', 't']","[6.790325400001166, 7.618250999999873]",2191.742050699999,None,6.790325400001166,7.618250999999873,7,False,False,False,2201.3459812,None,2201.3459812,None,2201.3459812,None,2201.3459812,None,2201.3459812,None,2201.3459812,None,2201.3459812,None,2201.3459812,None,2202.358997700001,None,2202.358997700001,None,1,c,,,,,,,,,,,,,,,,,,13_14,001,2021_Feb_24_1449,ComputerHuman,2020.1.3,59.89071142947659,
Sychronize.jpg,Number6.jpg,,Computer,Computer.xlsx,1,c,6,,,,,1,2,10,1,0,1,1,1,,,,,,,,,,,,,,,,,,,,,,,,,,,,,,,,,,,,,,,,,,,,,,,,,,,,,,,,,,,,,2203.388286199999,None,2203.388286199999,None,2203.8588100999987,None,2203.8588100999987,None,"['v', 't']","[5.630169500000193, 6.95332530000087]",2203.8588100999987,None,5.630169500000193,6.95332530000087,6,False,False,False,2213.1831758000008,None,2213.1831758000008,None,2213.1831758000008,None,2213.1831758000008,None,2213.1831758000008,None,2213.1831758000008,None,2213.1831758000008,None,2213.1831758000008,None,2214.1775863000003,None,2214.1775863000003,None,1,c,,,,,,,,,,,,,,,,,,13_14,001,2021_Feb_24_1449,ComputerHuman,2020.1.3,59.89071142947659,
Sychronize.jpg,Number9.jpg,,Computer,Computer.xlsx,1,c,9,,,,,1,2,10,1,0,2,2,6,,,,,,,,,,,,,,,,,,,,,,,,,,,,,,,,,,,,,,,,,,,,,,,,,,,,,,,,,,,,,2215.2017976999996,None,2215.2017976999996,None,2215.677084400002,None,2215.677084400002,None,"['v', 't']","[6.961491700003535, 10.12322210000275]",2215.677084400002,None,6.961491700003535,10.12322210000275,9,False,False,False,2228.0783206999986,None,2228.0783206999986,None,2228.0783206999986,None,2228.0783206999986,None,2228.0783206999986,None,2228.0783206999986,None,2228.0783206999986,None,2228.0783206999986,None,2229.0983252000005,None,2229.0983252000005,None,1,c,,,,,,,,,,,,,,,,,,13_14,001,2021_Feb_24_1449,ComputerHuman,2020.1.3,59.89071142947659,
Sychronize.jpg,Number10.jpg,,Computer,Computer.xlsx,1,c,10,,,,,1,2,10,1,0,3,3,8,,,,,,,,,,,,,,,,,,,,,,,,,,,,,,,,,,,,,,,,,,,,,,,,,,,,,,,,,,,,,2230.099766800002,None,2230.099766800002,None,2230.5967074,None,2230.5967074,None,"['v', 't']","[8.771474700002727, 10.735418400003255]",2230.5967074,None,8.771474700002727,10.735418400003255,10,False,False,False,2243.1484923999997,None,2243.1484923999997,None,2243.1484923999997,None,2243.1484923999997,None,2243.1484923999997,None,2243.1484923999997,None,2243.1484923999997,None,2243.1484923999997,None,2244.167134800002,None,2244.167134800002,None,1,c,,,,,,,,,,,,,,,,,,13_14,001,2021_Feb_24_1449,ComputerHuman,2020.1.3,59.89071142947659,
Sychronize.jpg,Number8.jpg,,Computer,Computer.xlsx,1,c,8,,,,,1,2,10,1,0,4,4,5,,,,,,,,,,,,,,,,,,,,,,,,,,,,,,,,,,,,,,,,,,,,,,,,,,,,,,,,,,,,,2245.1732224000007,None,2245.1732224000007,None,2245.6497652,None,2245.6497652,None,"['t', 'v']","[8.254219300000841, 8.53168789999836]",2245.6497652,None,8.53168789999836,8.254219300000841,8,False,False,False,2257.451135200001,None,2257.451135200001,None,2257.451135200001,None,2257.451135200001,None,2257.451135200001,None,2257.451135200001,None,2257.451135200001,None,2257.451135200001,None,2258.471570400001,None,2258.471570400001,None,1,c,,,,,,,,,,,,,,,,,,13_14,001,2021_Feb_24_1449,ComputerHuman,2020.1.3,59.89071142947659,
Sychronize.jpg,Number8.jpg,,Computer,Computer.xlsx,1,c,8,,,,,1,2,10,1,0,5,5,4,,,,,,,,,,,,,,,,,,,,,,,,,,,,,,,,,,,,,,,,,,,,,,,,,,,,,,,,,,,,,2259.4729345999986,None,2259.4729345999986,None,2259.9752315000005,None,2259.9752315000005,None,"['v', 't']","[7.559661700001016, 9.384680400002253]",2259.9752315000005,None,7.559661700001016,9.384680400002253,8,False,False,False,2271.7641468,None,2271.7641468,None,2271.7641468,None,2271.7641468,None,2271.7641468,None,2271.7641468,None,2271.7641468,None,2271.7641468,None,2272.7729365000014,None,2272.7729365000014,None,1,c,,,,,,,,,,,,,,,,,,13_14,001,2021_Feb_24_1449,ComputerHuman,2020.1.3,59.89071142947659,
Sychronize.jpg,Number10.jpg,,Computer,Computer.xlsx,1,c,10,,,,,1,2,10,1,0,6,6,9,,,,,,,,,,,,,,,,,,,,,,,,,,,,,,,,,,,,,,,,,,,,,,,,,,,,,,,,,,,,,2273.7992946000013,None,2273.7992946000013,None,2274.272531999999,None,2274.272531999999,None,"['v', 't']","[7.81956110000101, 12.956447700002172]",2274.272531999999,None,7.81956110000101,12.956447700002172,10,False,False,False,2289.456096400001,None,2289.456096400001,None,2289.456096400001,None,2289.456096400001,None,2289.456096400001,None,2289.456096400001,None,2289.456096400001,None,2289.456096400001,None,2290.4614206000006,None,2290.4614206000006,None,1,c,,,,,,,,,,,,,,,,,,13_14,001,2021_Feb_24_1449,ComputerHuman,2020.1.3,59.89071142947659,
Sychronize.jpg,Number6.jpg,,Computer,Computer.xlsx,1,c,6,,,,,1,2,10,1,0,7,7,0,,,,,,,,,,,,,,,,,,,,,,,,,,,,,,,,,,,,,,,,,,,,,,,,,,,,,,,,,,,,,2291.479553699999,None,2291.479553699999,None,2291.9591514999993,None,2291.9591514999993,None,"['v', 't']","[6.877084799998556, 9.711403499997687]",2291.9591514999993,None,6.877084799998556,9.711403499997687,6,False,False,False,2303.793455400002,None,2303.793455400002,None,2303.793455400002,None,2303.793455400002,None,2303.793455400002,None,2303.793455400002,None,2303.793455400002,None,2303.793455400002,None,2304.7961337999986,None,2304.7961337999986,None,1,c,,,,,,,,,,,,,,,,,,13_14,001,2021_Feb_24_1449,ComputerHuman,2020.1.3,59.89071142947659,
Sychronize.jpg,Number7.jpg,,Computer,Computer.xlsx,1,c,7,,,,,1,2,10,1,0,8,8,2,,,,,,,,,,,,,,,,,,,,,,,,,,,,,,,,,,,,,,,,,,,,,,,,,,,,,,,,,,,,,2305.8217652999992,None,2305.8217652999992,None,2306.295427600002,None,2306.295427600002,None,"['t', 'v']","[9.164437600000383, 9.644865300000674]",2306.295427600002,None,9.644865300000674,9.164437600000383,7,False,False,False,2319.2220903999987,None,2319.2220903999987,None,2319.2220903999987,None,2319.2220903999987,None,2319.2220903999987,None,2319.2220903999987,None,2319.2220903999987,None,2319.2220903999987,None,2320.2330377,None,2320.2330377,None,1,c,,,,,,,,,,,,,,,,,,13_14,001,2021_Feb_24_1449,ComputerHuman,2020.1.3,59.89071142947659,
Sychronize.jpg,Number9.jpg,,Computer,Computer.xlsx,1,c,9,,,,,1,2,10,1,0,9,9,7,,,,,,,,,,,,,,,,,,,,,,,,,,,,,,,,,,,,,,,,,,,,,,,,,,,,,,,,,,,,,2321.2588025000005,None,2321.2588025000005,None,2321.7304253,None,2321.7304253,None,"['v', 't']","[8.525687400000606, 12.125570600001083]",2321.7304253,None,8.525687400000606,12.125570600001083,9,False,False,False,2336.1406472000017,None,2336.1406472000017,None,2336.1406472000017,None,2336.1406472000017,None,2336.1406472000017,None,2336.1406472000017,None,2336.1406472000017,None,2336.1406472000017,None,2337.152511700002,None,2337.152511700002,None,1,c,,,,,,,,,,,,,,,,,,13_14,001,2021_Feb_24_1449,ComputerHuman,2020.1.3,59.89071142947659,
,,,,Computer.xlsx,1,c,,,,,,1,2,10,1,,,,,,,,,,,,,,,,,,,,,,,,,,,,,,,,,,,,,,,,,,,,,,,,,,,,,,,,,,,,,,,,,,,,,,,,,,,,,,,,,,,,,,,,,,,,,,,,,,,,,,,1,c,2338.150618200001,None,c,1,5.763319200003025,2339.1488960999995,None,2344.9352394999987,None,None,None,None,None,None,,,,13_14,001,2021_Feb_24_1449,ComputerHuman,2020.1.3,59.89071142947659,
Sychronize.jpg,Number9.jpg,,Computer,Computer.xlsx,1,c,9,,,,,1,3,11,3,0,0,0,6,,,,,,,,,,,,,,,,,,,,,,,,,,,,,,,,,,,,,,,,,,,,,,,,,,,,,,,,,2349.9451240000017,None,2349.9451240000017,None,2352.992052900001,None,2352.992052900001,None,2353.4551565,None,2353.4551565,None,"['v', 't']","[7.719989999997779, 8.888448999998218]",2353.4551565,None,7.719989999997779,8.888448999998218,9,False,False,False,2363.890137999999,None,2363.890137999999,None,2363.890137999999,None,2363.890137999999,None,2363.890137999999,None,2363.890137999999,None,2363.890137999999,None,2363.890137999999,None,2364.9282435999994,None,2364.9282435999994,None,1,c,,,,,,,,,,,,,,,,,,13_14,001,2021_Feb_24_1449,ComputerHuman,2020.1.3,59.89071142947659,
Sychronize.jpg,Number10.jpg,,Computer,Computer.xlsx,1,c,10,,,,,1,3,11,3,0,1,1,8,,,,,,,,,,,,,,,,,,,,,,,,,,,,,,,,,,,,,,,,,,,,,,,,,,,,,,,,,,,,,2365.927972900001,None,2365.927972900001,None,2366.4062085000005,None,2366.4062085000005,None,"['v', 't']","[9.357685699997091, 11.869975300000078]",2366.4062085000005,None,9.357685699997091,11.869975300000078,10,False,False,False,2380.5359095999993,None,2380.5359095999993,None,2380.5359095999993,None,2380.5359095999993,None,2380.5359095999993,None,2380.5359095999993,None,2380.5359095999993,None,2380.5359095999993,None,2381.5455201000004,None,2381.5455201000004,None,1,c,,,,,,,,,,,,,,,,,,13_14,001,2021_Feb_24_1449,ComputerHuman,2020.1.3,59.89071142947659,
Sychronize.jpg,Number7.jpg,,Computer,Computer.xlsx,1,c,7,,,,,1,3,11,3,0,2,2,3,,,,,,,,,,,,,,,,,,,,,,,,,,,,,,,,,,,,,,,,,,,,,,,,,,,,,,,,,,,,,2382.5642697000003,None,2382.5642697000003,None,2383.0444198000005,None,2383.0444198000005,None,"['v', 't']","[7.651550000002317, 8.7309580000001]",2383.0444198000005,None,7.651550000002317,8.7309580000001,7,False,False,False,2393.5333390999986,None,2393.5333390999986,None,2393.5333390999986,None,2393.5333390999986,None,2393.5333390999986,None,2393.5333390999986,None,2393.5333390999986,None,2393.5333390999986,None,2394.5474907999997,None,2394.5474907999997,None,1,c,,,,,,,,,,,,,,,,,,13_14,001,2021_Feb_24_1449,ComputerHuman,2020.1.3,59.89071142947659,
Sychronize.jpg,Number10.jpg,,Computer,Computer.xlsx,1,c,10,,,,,1,3,11,3,0,3,3,9,,,,,,,,,,,,,,,,,,,,,,,,,,,,,,,,,,,,,,,,,,,,,,,,,,,,,,,,,,,,,2395.573689699999,None,2395.573689699999,None,2396.046841800002,None,2396.046841800002,None,['v'],[9.548791699999128],2396.046841800002,None,9.548791699999128,13,10,False,False,False,2409.0864385999994,None,2409.0864385999994,None,2409.0864385999994,None,2409.0864385999994,None,2409.0864385999994,None,2409.0864385999994,None,2409.0864385999994,None,2409.0864385999994,None,2410.0847773999994,None,2410.0847773999994,None,1,c,,,,,,,,,,,,,,,,,,13_14,001,2021_Feb_24_1449,ComputerHuman,2020.1.3,59.89071142947659,
Sychronize.jpg,Number8.jpg,,Computer,Computer.xlsx,1,c,8,,,,,1,3,11,3,0,4,4,4,,,,,,,,,,,,,,,,,,,,,,,,,,,,,,,,,,,,,,,,,,,,,,,,,,,,,,,,,,,,,2411.108828200002,None,2411.108828200002,None,2411.5836533,None,2411.5836533,None,"['v', 't']","[7.292289299999538, 8.844295899998542]",2411.5836533,None,7.292289299999538,8.844295899998542,8,False,False,False,2422.184574499999,None,2422.184574499999,None,2422.184574499999,None,2422.184574499999,None,2422.184574499999,None,2422.184574499999,None,2422.184574499999,None,2422.184574499999,None,2423.203469600001,None,2423.203469600001,None,1,c,,,,,,,,,,,,,,,,,,13_14,001,2021_Feb_24_1449,ComputerHuman,2020.1.3,59.89071142947659,
Sychronize.jpg,Number7.jpg,,Computer,Computer.xlsx,1,c,7,,,,,1,3,11,3,0,5,5,2,,,,,,,,,,,,,,,,,,,,,,,,,,,,,,,,,,,,,,,,,,,,,,,,,,,,,,,,,,,,,2424.211806899999,None,2424.211806899999,None,2424.6862168000007,None,2424.6862168000007,None,"['t', 'v']","[2.141738599999371, 7.188880899997457]",2424.6862168000007,None,7.188880899997457,2.141738599999371,7,False,False,False,2434.577730600002,None,2434.577730600002,None,2434.577730600002,None,2434.577730600002,None,2434.577730600002,None,2434.577730600002,None,2434.577730600002,None,2434.577730600002,None,2435.5908142000008,None,2435.5908142000008,None,1,c,,,,,,,,,,,,,,,,,,13_14,001,2021_Feb_24_1449,ComputerHuman,2020.1.3,59.89071142947659,
Sychronize.jpg,Number9.jpg,,Computer,Computer.xlsx,1,c,9,,,,,1,3,11,3,0,6,6,7,,,,,,,,,,,,,,,,,,,,,,,,,,,,,,,,,,,,,,,,,,,,,,,,,,,,,,,,,,,,,2436.6153010000016,None,2436.6153010000016,None,2437.0884504999995,None,2437.0884504999995,None,"['v', 't']","[9.85628849999921, 10.115871000001789]",2437.0884504999995,None,9.85628849999921,10.115871000001789,9,False,False,False,2449.2332554999994,None,2449.2332554999994,None,2449.2332554999994,None,2449.2332554999994,None,2449.2332554999994,None,2449.2332554999994,None,2449.2332554999994,None,2449.2332554999994,None,2450.2429894000015,None,2450.2429894000015,None,1,c,,,,,,,,,,,,,,,,,,13_14,001,2021_Feb_24_1449,ComputerHuman,2020.1.3,59.89071142947659,
Sychronize.jpg,Number6.jpg,,Computer,Computer.xlsx,1,c,6,,,,,1,3,11,3,0,7,7,1,,,,,,,,,,,,,,,,,,,,,,,,,,,,,,,,,,,,,,,,,,,,,,,,,,,,,,,,,,,,,2451.2683608000007,None,2451.2683608000007,None,2451.762359100001,None,2451.762359100001,None,"['t', 'v']","[6.23757520000072, 6.553796500000317]",2451.762359100001,None,6.553796500000317,6.23757520000072,6,False,False,False,2462.1640087999986,None,2462.1640087999986,None,2462.1640087999986,None,2462.1640087999986,None,2462.1640087999986,None,2462.1640087999986,None,2462.1640087999986,None,2462.1640087999986,None,2463.1796615999992,None,2463.1796615999992,None,1,c,,,,,,,,,,,,,,,,,,13_14,001,2021_Feb_24_1449,ComputerHuman,2020.1.3,59.89071142947659,
Sychronize.jpg,Number8.jpg,,Computer,Computer.xlsx,1,c,8,,,,,1,3,11,3,0,8,8,5,,,,,,,,,,,,,,,,,,,,,,,,,,,,,,,,,,,,,,,,,,,,,,,,,,,,,,,,,,,,,2464.1975304000007,None,2464.1975304000007,None,2464.677746199999,None,2464.677746199999,None,['t'],[8.985380000001896],2464.677746199999,None,13,8.985380000001896,8,False,False,False,2479.7355121,None,2479.7355121,None,2479.7355121,None,2479.7355121,None,2479.7355121,None,2479.7355121,None,2479.7355121,None,2479.7355121,None,2480.7486516999998,None,2480.7486516999998,None,1,c,,,,,,,,,,,,,,,,,,13_14,001,2021_Feb_24_1449,ComputerHuman,2020.1.3,59.89071142947659,
Sychronize.jpg,Number6.jpg,,Computer,Computer.xlsx,1,c,6,,,,,1,3,11,3,0,9,9,0,,,,,,,,,,,,,,,,,,,,,,,,,,,,,,,,,,,,,,,,,,,,,,,,,,,,,,,,,,,,,2481.7745313999985,None,2481.7745313999985,None,2482.247615100001,None,2482.247615100001,None,"['v', 't']","[5.595974899999419, 8.89652279999791]",2482.247615100001,None,5.595974899999419,8.89652279999791,6,False,False,False,2493.223372799999,None,2493.223372799999,None,2493.223372799999,None,2493.223372799999,None,2493.223372799999,None,2493.223372799999,None,2493.223372799999,None,2493.223372799999,None,2494.234604000001,None,2494.234604000001,None,1,c,,,,,,,,,,,,,,,,,,13_14,001,2021_Feb_24_1449,ComputerHuman,2020.1.3,59.89071142947659,
,,,,Computer.xlsx,1,c,,,,,,1,3,11,3,,,,,,,,,,,,,,,,,,,,,,,,,,,,,,,,,,,,,,,,,,,,,,,,,,,,,,,,,,,,,,,,,,,,,,,,,,,,,,,,,,,,,,,,,,,,,,,,,,,,,,,1,c,2495.2342836999997,None,c,1,4.413511099999596,2496.2306234999996,None,None,None,2500.672215300001,None,"['space', 'space']",2501.6649049000007,None,"[1.0776162000001932, 2.6693435000015597]",,,13_14,001,2021_Feb_24_1449,ComputerHuman,2020.1.3,59.89071142947659,
Sychronize.jpg,Number8.jpg,,Computer,Computer.xlsx,2,c,8,,,,,1,4,12,5,0,0,0,4,,,,,,,,,,,,,,,,,,,,,,,,,,,,,,,,,,,,,,,,,,,,,,,,,,,,,,,,,2504.3951775999994,None,2504.3951775999994,None,2507.4227439999995,None,2507.4227439999995,None,2507.909591899999,None,2507.909591899999,None,"['v', 't']","[7.350249899998744, 8.574238199998945]",2507.909591899999,None,7.350249899998744,8.574238199998945,8,False,False,False,2518.4975755000014,None,2518.4975755000014,None,2518.4975755000014,None,2518.4975755000014,None,2518.4975755000014,None,2518.4975755000014,None,2518.4975755000014,None,2518.4975755000014,None,2519.506782200002,None,2519.506782200002,None,2,c,,,,,,,,,,,,,,,,,,13_14,001,2021_Feb_24_1449,ComputerHuman,2020.1.3,59.89071142947659,
Sychronize.jpg,Number6.jpg,,Computer,Computer.xlsx,2,c,6,,,,,1,4,12,5,0,1,1,0,,,,,,,,,,,,,,,,,,,,,,,,,,,,,,,,,,,,,,,,,,,,,,,,,,,,,,,,,,,,,2520.532745700002,None,2520.532745700002,None,2521.0041729000004,None,2521.0041729000004,None,"['t', 'v']","[5.891890399998374, 6.411573399996996]",2521.0041729000004,None,6.411573399996996,5.891890399998374,6,False,False,False,2530.711044800002,None,2530.711044800002,None,2530.711044800002,None,2530.711044800002,None,2530.711044800002,None,2530.711044800002,None,2530.711044800002,None,2530.711044800002,None,2531.725454800002,None,2531.725454800002,None,2,c,,,,,,,,,,,,,,,,,,13_14,001,2021_Feb_24_1449,ComputerHuman,2020.1.3,59.89071142947659,
Sychronize.jpg,Number10.jpg,,Computer,Computer.xlsx,2,c,10,,,,,1,4,12,5,0,2,2,8,,,,,,,,,,,,,,,,,,,,,,,,,,,,,,,,,,,,,,,,,,,,,,,,,,,,,,,,,,,,,2532.750200999999,None,2532.750200999999,None,2533.224855799999,None,2533.224855799999,None,"['v', 't']","[9.97915869999997, 10.259171500001685]",2533.224855799999,None,9.97915869999997,10.259171500001685,10,False,False,False,2545.3595093000004,None,2545.3595093000004,None,2545.3595093000004,None,2545.3595093000004,None,2545.3595093000004,None,2545.3595093000004,None,2545.3595093000004,None,2545.3595093000004,None,2546.4024040000004,None,2546.4024040000004,None,2,c,,,,,,,,,,,,,,,,,,13_14,001,2021_Feb_24_1449,ComputerHuman,2020.1.3,59.89071142947659,
Sychronize.jpg,Number8.jpg,,Computer,Computer.xlsx,2,c,8,,,,,1,4,12,5,0,3,3,5,,,,,,,,,,,,,,,,,,,,,,,,,,,,,,,,,,,,,,,,,,,,,,,,,,,,,,,,,,,,,2547.3980037,None,2547.3980037,None,2547.8777998000005,None,2547.8777998000005,None,['v'],[8.24840249999761],2547.8777998000005,None,8.24840249999761,13,8,False,False,False,2560.9185614000016,None,2560.9185614000016,None,2560.9185614000016,None,2560.9185614000016,None,2560.9185614000016,None,2560.9185614000016,None,2560.9185614000016,None,2560.9185614000016,None,2561.9146113999996,None,2561.9146113999996,None,2,c,,,,,,,,,,,,,,,,,,13_14,001,2021_Feb_24_1449,ComputerHuman,2020.1.3,59.89071142947659,
Sychronize.jpg,Number9.jpg,,Computer,Computer.xlsx,2,c,9,,,,,1,4,12,5,0,4,4,6,,,,,,,,,,,,,,,,,,,,,,,,,,,,,,,,,,,,,,,,,,,,,,,,,,,,,,,,,,,,,2562.9337749000006,None,2562.9337749000006,None,2563.414253400002,None,2563.414253400002,None,"['t', 'v']","[8.080543600000965, 9.749402500001452]",2563.414253400002,None,9.749402500001452,8.080543600000965,9,False,False,False,2574.9657775999985,None,2574.9657775999985,None,2574.9657775999985,None,2574.9657775999985,None,2574.9657775999985,None,2574.9657775999985,None,2574.9657775999985,None,2574.9657775999985,None,2575.9680254000014,None,2575.9680254000014,None,2,c,,,,,,,,,,,,,,,,,,13_14,001,2021_Feb_24_1449,ComputerHuman,2020.1.3,59.89071142947659,
Sychronize.jpg,Number6.jpg,,Computer,Computer.xlsx,2,c,6,,,,,1,4,12,5,0,5,5,1,,,,,,,,,,,,,,,,,,,,,,,,,,,,,,,,,,,,,,,,,,,,,,,,,,,,,,,,,,,,,2576.994458000001,None,2576.994458000001,None,2577.490684200002,None,2577.490684200002,None,"['t', 'v']","[5.329114500000287, 5.717445400001452]",2577.490684200002,None,5.717445400001452,5.329114500000287,6,False,False,False,2587.4833776999985,None,2587.4833776999985,None,2587.4833776999985,None,2587.4833776999985,None,2587.4833776999985,None,2587.4833776999985,None,2587.4833776999985,None,2587.4833776999985,None,2588.486629700001,None,2588.486629700001,None,2,c,,,,,,,,,,,,,,,,,,13_14,001,2021_Feb_24_1449,ComputerHuman,2020.1.3,59.89071142947659,
Sychronize.jpg,Number7.jpg,,Computer,Computer.xlsx,2,c,7,,,,,1,4,12,5,0,6,6,3,,,,,,,,,,,,,,,,,,,,,,,,,,,,,,,,,,,,,,,,,,,,,,,,,,,,,,,,,,,,,2589.511468200002,None,2589.511468200002,None,2589.985992400001,None,2589.985992400001,None,"['t', 'v']","[6.925984999998036, 7.665407199998299]",2589.985992400001,None,7.665407199998299,6.925984999998036,7,False,False,False,2600.9034772000014,None,2600.9034772000014,None,2600.9034772000014,None,2600.9034772000014,None,2600.9034772000014,None,2600.9034772000014,None,2600.9034772000014,None,2600.9034772000014,None,2601.943849899999,None,2601.943849899999,None,2,c,,,,,,,,,,,,,,,,,,13_14,001,2021_Feb_24_1449,ComputerHuman,2020.1.3,59.89071142947659,
Sychronize.jpg,Number9.jpg,,Computer,Computer.xlsx,2,c,9,,,,,1,4,12,5,0,7,7,7,,,,,,,,,,,,,,,,,,,,,,,,,,,,,,,,,,,,,,,,,,,,,,,,,,,,,,,,,,,,,2602.931994499999,None,2602.931994499999,None,2603.405630699999,None,2603.405630699999,None,"['t', 'v']","[9.117880800000421, 9.29825179999898]",2603.405630699999,None,9.29825179999898,9.117880800000421,9,False,False,False,2616.6488639000017,None,2616.6488639000017,None,2616.6488639000017,None,2616.6488639000017,None,2616.6488639000017,None,2616.6488639000017,None,2616.6488639000017,None,2616.6488639000017,None,2617.679473600001,None,2617.679473600001,None,2,c,,,,,,,,,,,,,,,,,,13_14,001,2021_Feb_24_1449,ComputerHuman,2020.1.3,59.89071142947659,
Sychronize.jpg,Number7.jpg,,Computer,Computer.xlsx,2,c,7,,,,,1,4,12,5,0,8,8,2,,,,,,,,,,,,,,,,,,,,,,,,,,,,,,,,,,,,,,,,,,,,,,,,,,,,,,,,,,,,,2618.678689200002,None,2618.678689200002,None,2619.158566500002,None,2619.158566500002,None,"['t', 'v']","[7.125383900001907, 7.411597700000129]",2619.158566500002,None,7.411597700000129,7.125383900001907,7,False,False,False,2630.9423534000016,None,2630.9423534000016,None,2630.9423534000016,None,2630.9423534000016,None,2630.9423534000016,None,2630.9423534000016,None,2630.9423534000016,None,2630.9423534000016,None,2631.947283199999,None,2631.947283199999,None,2,c,,,,,,,,,,,,,,,,,,13_14,001,2021_Feb_24_1449,ComputerHuman,2020.1.3,59.89071142947659,
