Sychronize,NumberImage,NumberPr,Partner,Condition,TuringResponsePlayer,CorrectTuringReply,Number,trials.thisRepN,trials.thisTrialN,trials.thisN,trials.thisIndex,Block.thisRepN,Block.thisTrialN,Block.thisN,Block.thisIndex,trials_loop.thisRepN,trials_loop.thisTrialN,trials_loop.thisN,trials_loop.thisIndex,textLeft.started,textLeft.stopped,textRight.started,textRight.stopped,key_resp_Istr.keys,key_resp_Istr.rt,key_resp_Istr.started,key_resp_Istr.stopped,SychroLeftPr.started,SychroLeftPr.stopped,SychroRightPr.started,SychroRightPr.stopped,NumberLeftPr.started,NumberLeftPr.stopped,NumberRightPr.started,NumberRightPr.stopped,CrossLeftPr.started,CrossLeftPr.stopped,CrossRightPr.started,CrossRightPr.stopped,key_respPr.keys,key_respPr.rt,key_respPr.started,key_respPr.stopped,RTLeftPr,RTRightPr,CompPr,SychronizedRTsPr,SychronizedRTsLeftCPr,SychronizedRTsRightCPr,FeedbackLeftLeftPr.started,FeedbackLeftLeftPr.stopped,FeedbackLeftRightPr.started,FeedbackLeftRightPr.stopped,FeedbackRightLeftPr.started,FeedbackRightLeftPr.stopped,FeedbackRightRightPr.started,FeedbackRightRightPr.stopped,textLeftLeftPr.started,textLeftLeftPr.stopped,textLeftRightPr.started,textLeftRightPr.stopped,textRightLeftPr.started,textRightLeftPr.stopped,textRightRightPr.started,textRightRightPr.stopped,CreditLeftPr.started,CreditLeftPr.stopped,CreditRightPr.started,CreditRightPr.stopped,text_StartExp.started,text_StartExp.stopped,key_startExp.keys,key_startExp.rt,key_startExp.started,key_startExp.stopped,SychroLeft.started,SychroLeft.stopped,SychroRight.started,SychroRight.stopped,NumberLeft.started,NumberLeft.stopped,NumberRight.started,NumberRight.stopped,CrossLeft.started,CrossLeft.stopped,CrossRight.started,CrossRight.stopped,key_resp.keys,key_resp.rt,key_resp.started,key_resp.stopped,RTLeft,RTRight,Comp,SychronizedRTs,SychronizedRTsLeftC,SychronizedRTsRightC,FeedbackLeftLeft.started,FeedbackLeftLeft.stopped,FeedbackLeftRight.started,FeedbackLeftRight.stopped,FeedbackRightLeft.started,FeedbackRightLeft.stopped,FeedbackRightRight.started,FeedbackRightRight.stopped,textLeftLeft.started,textLeftLeft.stopped,textLeftRight.started,textLeftRight.stopped,textRightLeft.started,textRightLeft.stopped,textRightRight.started,textRightRight.stopped,CreditLeft.started,CreditLeft.stopped,CreditRight.started,CreditRight.stopped,TuringResponsePlayer,CorrectTuringReply,Turingtext.started,Turingtext.stopped,key_resp_2.keys,key_resp_2.corr,key_resp_2.rt,key_resp_2.started,key_resp_2.stopped,BlockText.started,BlockText.stopped,text_Pause.started,text_Pause.stopped,key_respPause.keys,key_respPause.started,key_respPause.stopped,key_respPause.rt,EndText.started,EndText.stopped,participant,session,date,expName,psychopyVersion,frameRate,
,,,,,,,,,,,,,,,,,,,,14.677986799972132,None,14.677986799972132,None,"['v', 'v', 'v', 'v', 'v', 'v', 't']","[207.20116289998987, 211.65273189998697, 212.072616999998, 212.5167123999854, 212.69275529999868, 212.86467489998904, 217.0845541000017]",15.63927989997319,None,,,,,,,,,,,,,,,,,,,,,,,,,,,,,,,,,,,,,,,,,,,,,,,,,,,,,,,,,,,,,,,,,,,,,,,,,,,,,,,,,,,,,,,,,,,,,,,,,,,,,,,,,,,,,,1_2,001,2021_Feb_23_1341,ComputerHuman,2020.1.3,60.00276013401265,
Sychronize.jpg,Number8.jpg,8,Computer,,,,,0,0,0,2,,,,,,,,,,,,,,,,,232.77870419999817,None,232.77870419999817,None,235.81324879999738,None,235.81324879999738,None,236.26826259997324,None,236.26826259997324,None,"['t', 'v']","[8.031674300000304, 9.171759999997448]",236.26826259997324,None,9.171759999997448,8.031674300000304,8,False,False,False,248.73274279999896,None,248.73274279999896,None,248.73274279999896,None,248.73274279999896,None,248.73274279999896,None,248.73274279999896,None,248.73274279999896,None,248.73274279999896,None,249.76579359997413,None,249.76579359997413,None,,,,,,,,,,,,,,,,,,,,,,,,,,,,,,,,,,,,,,,,,,,,,,,,,,,,,,,,,,,,,,,,,,,,1_2,001,2021_Feb_23_1341,ComputerHuman,2020.1.3,60.00276013401265,
Sychronize.jpg,Number9.jpg,9,Human,,,,,0,1,1,3,,,,,,,,,,,,,,,,,,,,,250.7596990999882,None,250.7596990999882,None,251.23812149997684,None,251.23812149997684,None,['t'],[10.833520500018494],251.23812149997684,None,13,10.833520500018494,9,False,False,False,266.8747023999749,None,266.8747023999749,None,266.8747023999749,None,266.8747023999749,None,266.8747023999749,None,266.8747023999749,None,266.8747023999749,None,266.8747023999749,None,267.89526799999294,None,267.89526799999294,None,,,,,,,,,,,,,,,,,,,,,,,,,,,,,,,,,,,,,,,,,,,,,,,,,,,,,,,,,,,,,,,,,,,,1_2,001,2021_Feb_23_1341,ComputerHuman,2020.1.3,60.00276013401265,
Sychronize.jpg,Number6.jpg,6,Human,,,,,0,2,2,5,,,,,,,,,,,,,,,,,,,,,268.8962739999988,None,268.8962739999988,None,269.3913948999834,None,269.3913948999834,None,['t'],[6.102036800002679],269.3913948999834,None,13,6.102036800002679,6,False,False,False,285.30299249998643,None,285.30299249998643,None,285.30299249998643,None,285.30299249998643,None,285.30299249998643,None,285.30299249998643,None,285.30299249998643,None,285.30299249998643,None,286.315126099973,None,286.315126099973,None,,,,,,,,,,,,,,,,,,,,,,,,,,,,,,,,,,,,,,,,,,,,,,,,,,,,,,,,,,,,,,,,,,,,1_2,001,2021_Feb_23_1341,ComputerHuman,2020.1.3,60.00276013401265,
Sychronize.jpg,Number10.jpg,10,Computer,,,,,0,3,3,4,,,,,,,,,,,,,,,,,,,,,287.3387903999828,None,287.3387903999828,None,287.81211249998887,None,287.81211249998887,None,"['v', 't']","[5.009722900023917, 10.204450400022324]",287.81211249998887,None,5.009722900023917,10.204450400022324,10,False,False,False,300.3364613999729,None,300.3364613999729,None,300.3364613999729,None,300.3364613999729,None,300.3364613999729,None,300.3364613999729,None,300.3364613999729,None,300.3364613999729,None,301.3503420999914,None,301.3503420999914,None,,,,,,,,,,,,,,,,,,,,,,,,,,,,,,,,,,,,,,,,,,,,,,,,,,,,,,,,,,,,,,,,,,,,1_2,001,2021_Feb_23_1341,ComputerHuman,2020.1.3,60.00276013401265,
Sychronize.jpg,Number7.jpg,7,Computer,,,,,0,4,4,1,,,,,,,,,,,,,,,,,,,,,302.37016689998563,None,302.37016689998563,None,302.8484807999921,None,302.8484807999921,None,['v'],[5.187504199973773],302.8484807999921,None,5.187504199973773,13,7,False,False,False,315.8899320999917,None,315.8899320999917,None,315.8899320999917,None,315.8899320999917,None,315.8899320999917,None,315.8899320999917,None,315.8899320999917,None,315.8899320999917,None,316.8866485999897,None,316.8866485999897,None,,,,,,,,,,,,,,,,,,,,,,,,,,,,,,,,,,,,,,,,,,,,,,,,,,,,,,,,,,,,,,,,,,,,1_2,001,2021_Feb_23_1341,ComputerHuman,2020.1.3,60.00276013401265,
Sychronize.jpg,Number6.jpg,6,Human,,,,,0,5,5,0,,,,,,,,,,,,,,,,,,,,,317.90640639999765,None,317.90640639999765,None,318.40585659997305,None,318.40585659997305,None,"['v', 't']","[3.9914684999966994, 6.642943299986655]",318.40585659997305,None,3.9914684999966994,6.642943299986655,6,False,False,False,326.7607914999826,None,326.7607914999826,None,326.7607914999826,None,326.7607914999826,None,326.7607914999826,None,326.7607914999826,None,326.7607914999826,None,326.7607914999826,None,327.77233649999835,None,327.77233649999835,None,,,,,,,,,,,,,,,,,,,,,,,,,,,,,,,,,,,,,,,,,,,,,,,,,,,,,,,,,,,,,,,,,,,,1_2,001,2021_Feb_23_1341,ComputerHuman,2020.1.3,60.00276013401265,
,,,,,,,,,,,,,,,,,,,,,,,,,,,,,,,,,,,,,,,,,,,,,,,,,,,,,,,,,,,,,,,,,,,,,,328.77436879999004,None,"['space', 'space']","[0.944962299981853, 1.852912699978333]",329.7683568999928,None,,,,,,,,,,,,,,,,,,,,,,,,,,,,,,,,,,,,,,,,,,,,,,,,,,,,,,,,,,,,,,1_2,001,2021_Feb_23_1341,ComputerHuman,2020.1.3,60.00276013401265,
Sychronize.jpg,Number8.jpg,,Computer,Computer.xlsx,1,c,8,,,,,0,0,0,3,0,0,0,5,,,,,,,,,,,,,,,,,,,,,,,,,,,,,,,,,,,,,,,,,,,,,,,,,,,,,,,,,331.6769835999876,None,331.6769835999876,None,334.69661009998526,None,334.69661009998526,None,335.1923728999973,None,335.1923728999973,None,"['v', 't']","[5.580980600003386, 8.123537700012093]",335.1923728999973,None,5.580980600003386,8.123537700012093,8,False,False,False,345.24517639999976,None,345.24517639999976,None,345.24517639999976,None,345.24517639999976,None,345.24517639999976,None,345.24517639999976,None,345.24517639999976,None,345.24517639999976,None,346.26366479997523,None,346.26366479997523,None,1,c,,,,,,,,,,,,,,,,,,1_2,001,2021_Feb_23_1341,ComputerHuman,2020.1.3,60.00276013401265,
Sychronize.jpg,Number10.jpg,,Computer,Computer.xlsx,1,c,10,,,,,0,0,0,3,0,1,1,9,,,,,,,,,,,,,,,,,,,,,,,,,,,,,,,,,,,,,,,,,,,,,,,,,,,,,,,,,,,,,347.27242289998685,None,347.27242289998685,None,347.7406754999829,None,347.7406754999829,None,"['v', 't']","[6.340492199989967, 11.267130699998233]",347.7406754999829,None,6.340492199989967,11.267130699998233,10,False,False,False,360.54637659998843,None,360.54637659998843,None,360.54637659998843,None,360.54637659998843,None,360.54637659998843,None,360.54637659998843,None,360.54637659998843,None,360.54637659998843,None,361.56274119997397,None,361.56274119997397,None,1,c,,,,,,,,,,,,,,,,,,1_2,001,2021_Feb_23_1341,ComputerHuman,2020.1.3,60.00276013401265,
Sychronize.jpg,Number7.jpg,,Computer,Computer.xlsx,1,c,7,,,,,0,0,0,3,0,2,2,2,,,,,,,,,,,,,,,,,,,,,,,,,,,,,,,,,,,,,,,,,,,,,,,,,,,,,,,,,,,,,362.5874308999919,None,362.5874308999919,None,363.06121709998115,None,363.06121709998115,None,"['v', 't']","[4.074823999981163, 9.343064999993658]",363.06121709998115,None,4.074823999981163,9.343064999993658,7,False,False,False,374.3568143999728,None,374.3568143999728,None,374.3568143999728,None,374.3568143999728,None,374.3568143999728,None,374.3568143999728,None,374.3568143999728,None,374.3568143999728,None,375.36562050000066,None,375.36562050000066,None,1,c,,,,,,,,,,,,,,,,,,1_2,001,2021_Feb_23_1341,ComputerHuman,2020.1.3,60.00276013401265,
Sychronize.jpg,Number10.jpg,,Computer,Computer.xlsx,1,c,10,,,,,0,0,0,3,0,3,3,8,,,,,,,,,,,,,,,,,,,,,,,,,,,,,,,,,,,,,,,,,,,,,,,,,,,,,,,,,,,,,376.38963709998643,None,376.38963709998643,None,376.8633864999865,None,376.8633864999865,None,"['v', 't']","[6.237960800004657, 11.788558100000955]",376.8633864999865,None,6.237960800004657,11.788558100000955,10,False,False,False,390.80113139998866,None,390.80113139998866,None,390.80113139998866,None,390.80113139998866,None,390.80113139998866,None,390.80113139998866,None,390.80113139998866,None,390.80113139998866,None,391.8208146999823,None,391.8208146999823,None,1,c,,,,,,,,,,,,,,,,,,1_2,001,2021_Feb_23_1341,ComputerHuman,2020.1.3,60.00276013401265,
Sychronize.jpg,Number9.jpg,,Computer,Computer.xlsx,1,c,9,,,,,0,0,0,3,0,4,4,7,,,,,,,,,,,,,,,,,,,,,,,,,,,,,,,,,,,,,,,,,,,,,,,,,,,,,,,,,,,,,392.838566099992,None,392.838566099992,None,393.31796570000006,None,393.31796570000006,None,"['v', 't']","[7.919380699982867, 10.562859199999366]",393.31796570000006,None,7.919380699982867,10.562859199999366,9,False,False,False,405.44144539997797,None,405.44144539997797,None,405.44144539997797,None,405.44144539997797,None,405.44144539997797,None,405.44144539997797,None,405.44144539997797,None,405.44144539997797,None,406.4384665999969,None,406.4384665999969,None,1,c,,,,,,,,,,,,,,,,,,1_2,001,2021_Feb_23_1341,ComputerHuman,2020.1.3,60.00276013401265,
Sychronize.jpg,Number7.jpg,,Computer,Computer.xlsx,1,c,7,,,,,0,0,0,3,0,5,5,3,,,,,,,,,,,,,,,,,,,,,,,,,,,,,,,,,,,,,,,,,,,,,,,,,,,,,,,,,,,,,407.45825019999756,None,407.45825019999756,None,407.93761579997954,None,407.93761579997954,None,"['v', 't']","[7.743701799976407, 8.018602899974212]",407.93761579997954,None,7.743701799976407,8.018602899974212,7,False,False,False,418.20527719997335,None,418.20527719997335,None,418.20527719997335,None,418.20527719997335,None,418.20527719997335,None,418.20527719997335,None,418.20527719997335,None,418.20527719997335,None,419.2236856999807,None,419.2236856999807,None,1,c,,,,,,,,,,,,,,,,,,1_2,001,2021_Feb_23_1341,ComputerHuman,2020.1.3,60.00276013401265,
Sychronize.jpg,Number6.jpg,,Computer,Computer.xlsx,1,c,6,,,,,0,0,0,3,0,6,6,0,,,,,,,,,,,,,,,,,,,,,,,,,,,,,,,,,,,,,,,,,,,,,,,,,,,,,,,,,,,,,420.2317864999932,None,420.2317864999932,None,420.7053634999902,None,420.7053634999902,None,"['v', 't']","[4.971793300006539, 6.254431699984707]",420.7053634999902,None,4.971793300006539,6.254431699984707,6,False,False,False,428.97467339999275,None,428.97467339999275,None,428.97467339999275,None,428.97467339999275,None,428.97467339999275,None,428.97467339999275,None,428.97467339999275,None,428.97467339999275,None,429.97593289997894,None,429.97593289997894,None,1,c,,,,,,,,,,,,,,,,,,1_2,001,2021_Feb_23_1341,ComputerHuman,2020.1.3,60.00276013401265,
Sychronize.jpg,Number9.jpg,,Computer,Computer.xlsx,1,c,9,,,,,0,0,0,3,0,7,7,6,,,,,,,,,,,,,,,,,,,,,,,,,,,,,,,,,,,,,,,,,,,,,,,,,,,,,,,,,,,,,431.00613089997205,None,431.00613089997205,None,431.47434769998654,None,431.47434769998654,None,"['v', 't']","[9.07806719999644, 9.83447800000431]",431.47434769998654,None,9.07806719999644,9.83447800000431,9,False,False,False,443.6975589999929,None,443.6975589999929,None,443.6975589999929,None,443.6975589999929,None,443.6975589999929,None,443.6975589999929,None,443.6975589999929,None,443.6975589999929,None,444.7131891999743,None,444.7131891999743,None,1,c,,,,,,,,,,,,,,,,,,1_2,001,2021_Feb_23_1341,ComputerHuman,2020.1.3,60.00276013401265,
Sychronize.jpg,Number6.jpg,,Computer,Computer.xlsx,1,c,6,,,,,0,0,0,3,0,8,8,1,,,,,,,,,,,,,,,,,,,,,,,,,,,,,,,,,,,,,,,,,,,,,,,,,,,,,,,,,,,,,445.7327229999937,None,445.7327229999937,None,446.2105116999883,None,446.2105116999883,None,"['t', 'v']","[5.999170299997786, 7.366704600019148]",446.2105116999883,None,7.366704600019148,5.999170299997786,6,False,False,False,455.55243329997757,None,455.55243329997757,None,455.55243329997757,None,455.55243329997757,None,455.55243329997757,None,455.55243329997757,None,455.55243329997757,None,455.55243329997757,None,456.56534279999323,None,456.56534279999323,None,1,c,,,,,,,,,,,,,,,,,,1_2,001,2021_Feb_23_1341,ComputerHuman,2020.1.3,60.00276013401265,
Sychronize.jpg,Number8.jpg,,Computer,Computer.xlsx,1,c,8,,,,,0,0,0,3,0,9,9,4,,,,,,,,,,,,,,,,,,,,,,,,,,,,,,,,,,,,,,,,,,,,,,,,,,,,,,,,,,,,,457.58879319997504,None,457.58879319997504,None,458.0650900999899,None,458.0650900999899,None,"['v', 't']","[7.522785500012105, 8.534982300014235]",458.0650900999899,None,7.522785500012105,8.534982300014235,8,False,False,False,468.85899269999936,None,468.85899269999936,None,468.85899269999936,None,468.85899269999936,None,468.85899269999936,None,468.85899269999936,None,468.85899269999936,None,468.85899269999936,None,469.86813299998175,None,469.86813299998175,None,1,c,,,,,,,,,,,,,,,,,,1_2,001,2021_Feb_23_1341,ComputerHuman,2020.1.3,60.00276013401265,
,,,,Computer.xlsx,1,c,,,,,,0,0,0,3,,,,,,,,,,,,,,,,,,,,,,,,,,,,,,,,,,,,,,,,,,,,,,,,,,,,,,,,,,,,,,,,,,,,,,,,,,,,,,,,,,,,,,,,,,,,,,,,,,,,,,,1,c,470.8675524999853,None,c,1,8.071789399982663,471.86414399999194,None,479.96788939999533,None,None,None,None,None,None,,,,1_2,001,2021_Feb_23_1341,ComputerHuman,2020.1.3,60.00276013401265,
Sychronize.jpg,Number7.jpg,,Computer,Computer.xlsx,2,c,7,,,,,0,1,1,5,0,0,0,3,,,,,,,,,,,,,,,,,,,,,,,,,,,,,,,,,,,,,,,,,,,,,,,,,,,,,,,,,484.98994599998696,None,484.98994599998696,None,488.02387309999904,None,488.02387309999904,None,488.5063297999732,None,488.5063297999732,None,"['v', 't']","[7.6429481000232045, 8.213574400026118]",488.5063297999732,None,7.6429481000232045,8.213574400026118,7,False,False,False,498.40946889997576,None,498.40946889997576,None,498.40946889997576,None,498.40946889997576,None,498.40946889997576,None,498.40946889997576,None,498.40946889997576,None,498.40946889997576,None,499.4247331999941,None,499.4247331999941,None,2,c,,,,,,,,,,,,,,,,,,1_2,001,2021_Feb_23_1341,ComputerHuman,2020.1.3,60.00276013401265,
Sychronize.jpg,Number6.jpg,,Computer,Computer.xlsx,2,c,6,,,,,0,1,1,5,0,1,1,0,,,,,,,,,,,,,,,,,,,,,,,,,,,,,,,,,,,,,,,,,,,,,,,,,,,,,,,,,,,,,500.44338539999444,None,500.44338539999444,None,500.9236616999842,None,500.9236616999842,None,"['v', 't']","[4.337464199983515, 5.4923010999918915]",500.9236616999842,None,4.337464199983515,5.4923010999918915,6,False,False,False,508.4391687999887,None,508.4391687999887,None,508.4391687999887,None,508.4391687999887,None,508.4391687999887,None,508.4391687999887,None,508.4391687999887,None,508.4391687999887,None,509.44366009999067,None,509.44366009999067,None,2,c,,,,,,,,,,,,,,,,,,1_2,001,2021_Feb_23_1341,ComputerHuman,2020.1.3,60.00276013401265,
Sychronize.jpg,Number6.jpg,,Computer,Computer.xlsx,2,c,6,,,,,0,1,1,5,0,2,2,1,,,,,,,,,,,,,,,,,,,,,,,,,,,,,,,,,,,,,,,,,,,,,,,,,,,,,,,,,,,,,510.46503479999956,None,510.46503479999956,None,510.9426786999975,None,510.9426786999975,None,"['v', 't']","[5.510611700010486, 6.189298500015866]",510.9426786999975,None,5.510611700010486,6.189298500015866,6,False,False,False,519.0131372999749,None,519.0131372999749,None,519.0131372999749,None,519.0131372999749,None,519.0131372999749,None,519.0131372999749,None,519.0131372999749,None,519.0131372999749,None,520.0506326999748,None,520.0506326999748,None,2,c,,,,,,,,,,,,,,,,,,1_2,001,2021_Feb_23_1341,ComputerHuman,2020.1.3,60.00276013401265,
Sychronize.jpg,Number10.jpg,,Computer,Computer.xlsx,2,c,10,,,,,0,1,1,5,0,3,3,8,,,,,,,,,,,,,,,,,,,,,,,,,,,,,,,,,,,,,,,,,,,,,,,,,,,,,,,,,,,,,521.0371523999784,None,521.0371523999784,None,521.5095096000005,None,521.5095096000005,None,"['v', 't']","[8.715824999992037, 10.418420600006357]",521.5095096000005,None,8.715824999992037,10.418420600006357,10,False,False,False,534.2903324999788,None,534.2903324999788,None,534.2903324999788,None,534.2903324999788,None,534.2903324999788,None,534.2903324999788,None,534.2903324999788,None,534.2903324999788,None,535.2980186999775,None,535.2980186999775,None,2,c,,,,,,,,,,,,,,,,,,1_2,001,2021_Feb_23_1341,ComputerHuman,2020.1.3,60.00276013401265,
Sychronize.jpg,Number8.jpg,,Computer,Computer.xlsx,2,c,8,,,,,0,1,1,5,0,4,4,5,,,,,,,,,,,,,,,,,,,,,,,,,,,,,,,,,,,,,,,,,,,,,,,,,,,,,,,,,,,,,536.3175946999982,None,536.3175946999982,None,536.7955908000004,None,536.7955908000004,None,"['t', 'v']","[7.849530300009064, 8.737663100007921]",536.7955908000004,None,8.737663100007921,7.849530300009064,8,False,False,False,549.2529586999735,None,549.2529586999735,None,549.2529586999735,None,549.2529586999735,None,549.2529586999735,None,549.2529586999735,None,549.2529586999735,None,549.2529586999735,None,550.2508517999959,None,550.2508517999959,None,2,c,,,,,,,,,,,,,,,,,,1_2,001,2021_Feb_23_1341,ComputerHuman,2020.1.3,60.00276013401265,
Sychronize.jpg,Number8.jpg,,Computer,Computer.xlsx,2,c,8,,,,,0,1,1,5,0,5,5,4,,,,,,,,,,,,,,,,,,,,,,,,,,,,,,,,,,,,,,,,,,,,,,,,,,,,,,,,,,,,,551.270635199995,None,551.270635199995,None,551.7507178999949,None,551.7507178999949,None,"['t', 'v']","[7.800992900010897, 8.050557799986564]",551.7507178999949,None,8.050557799986564,7.800992900010897,8,False,False,False,564.4179558999895,None,564.4179558999895,None,564.4179558999895,None,564.4179558999895,None,564.4179558999895,None,564.4179558999895,None,564.4179558999895,None,564.4179558999895,None,565.4215044999728,None,565.4215044999728,None,2,c,,,,,,,,,,,,,,,,,,1_2,001,2021_Feb_23_1341,ComputerHuman,2020.1.3,60.00276013401265,
Sychronize.jpg,Number7.jpg,,Computer,Computer.xlsx,2,c,7,,,,,0,1,1,5,0,6,6,2,,,,,,,,,,,,,,,,,,,,,,,,,,,,,,,,,,,,,,,,,,,,,,,,,,,,,,,,,,,,,566.4403588999994,None,566.4403588999994,None,566.9198156999773,None,566.9198156999773,None,"['v', 't']","[7.005567699990934, 7.364069799979916]",566.9198156999773,None,7.005567699990934,7.364069799979916,7,False,False,False,576.7272598999843,None,576.7272598999843,None,576.7272598999843,None,576.7272598999843,None,576.7272598999843,None,576.7272598999843,None,576.7272598999843,None,576.7272598999843,None,577.7235270999954,None,577.7235270999954,None,2,c,,,,,,,,,,,,,,,,,,1_2,001,2021_Feb_23_1341,ComputerHuman,2020.1.3,60.00276013401265,
Sychronize.jpg,Number9.jpg,,Computer,Computer.xlsx,2,c,9,,,,,0,1,1,5,0,7,7,7,,,,,,,,,,,,,,,,,,,,,,,,,,,,,,,,,,,,,,,,,,,,,,,,,,,,,,,,,,,,,578.7427065999946,None,578.7427065999946,None,579.2210392999987,None,579.2210392999987,None,"['v', 't']","[8.908754999982193, 9.218827500008047]",579.2210392999987,None,8.908754999982193,9.218827500008047,9,False,False,False,590.9175742999942,None,590.9175742999942,None,590.9175742999942,None,590.9175742999942,None,590.9175742999942,None,590.9175742999942,None,590.9175742999942,None,590.9175742999942,None,591.9260741999897,None,591.9260741999897,None,2,c,,,,,,,,,,,,,,,,,,1_2,001,2021_Feb_23_1341,ComputerHuman,2020.1.3,60.00276013401265,
Sychronize.jpg,Number10.jpg,,Computer,Computer.xlsx,2,c,10,,,,,0,1,1,5,0,8,8,9,,,,,,,,,,,,,,,,,,,,,,,,,,,,,,,,,,,,,,,,,,,,,,,,,,,,,,,,,,,,,592.9492561999941,None,592.9492561999941,None,593.4238819999737,None,593.4238819999737,None,"['v', 't']","[9.45341190000181, 9.608251400000881]",593.4238819999737,None,9.45341190000181,9.608251400000881,10,False,False,False,604.694210799993,None,604.694210799993,None,604.694210799993,None,604.694210799993,None,604.694210799993,None,604.694210799993,None,604.694210799993,None,604.694210799993,None,605.6961970999837,None,605.6961970999837,None,2,c,,,,,,,,,,,,,,,,,,1_2,001,2021_Feb_23_1341,ComputerHuman,2020.1.3,60.00276013401265,
Sychronize.jpg,Number9.jpg,,Computer,Computer.xlsx,2,c,9,,,,,0,1,1,5,0,9,9,6,,,,,,,,,,,,,,,,,,,,,,,,,,,,,,,,,,,,,,,,,,,,,,,,,,,,,,,,,,,,,606.7220779999916,None,606.7220779999916,None,607.1950097999943,None,607.1950097999943,None,"['t', 'v']","[9.066768000018783, 9.261474600003567]",607.1950097999943,None,9.261474600003567,9.066768000018783,9,False,False,False,620.803488399979,None,620.803488399979,None,620.803488399979,None,620.803488399979,None,620.803488399979,None,620.803488399979,None,620.803488399979,None,620.803488399979,None,621.8160997999948,None,621.8160997999948,None,2,c,,,,,,,,,,,,,,,,,,1_2,001,2021_Feb_23_1341,ComputerHuman,2020.1.3,60.00276013401265,
,,,,Computer.xlsx,2,c,,,,,,0,1,1,5,,,,,,,,,,,,,,,,,,,,,,,,,,,,,,,,,,,,,,,,,,,,,,,,,,,,,,,,,,,,,,,,,,,,,,,,,,,,,,,,,,,,,,,,,,,,,,,,,,,,,,,2,c,622.8147783999739,None,h,0,4.0136985999997705,623.8115423999843,None,627.8549128999875,None,None,None,None,None,None,,,,1_2,001,2021_Feb_23_1341,ComputerHuman,2020.1.3,60.00276013401265,
Sychronize.jpg,Number7.jpg,,Human,Human.xlsx,1,h,7,,,,,0,2,2,0,0,0,0,3,,,,,,,,,,,,,,,,,,,,,,,,,,,,,,,,,,,,,,,,,,,,,,,,,,,,,,,,,632.8739945999987,None,632.8739945999987,None,635.904429199989,None,635.904429199989,None,636.384971499996,None,636.384971499996,None,"['v', 't']","[6.879894499987131, 7.8669096999801695]",636.384971499996,None,6.879894499987131,7.8669096999801695,7,False,False,False,646.0459330999875,None,646.0459330999875,None,646.0459330999875,None,646.0459330999875,None,646.0459330999875,None,646.0459330999875,None,646.0459330999875,None,646.0459330999875,None,647.0537415999861,None,647.0537415999861,None,1,h,,,,,,,,,,,,,,,,,,1_2,001,2021_Feb_23_1341,ComputerHuman,2020.1.3,60.00276013401265,
Sychronize.jpg,Number10.jpg,,Human,Human.xlsx,1,h,10,,,,,0,2,2,0,0,1,1,9,,,,,,,,,,,,,,,,,,,,,,,,,,,,,,,,,,,,,,,,,,,,,,,,,,,,,,,,,,,,,648.0796522999881,None,648.0796522999881,None,648.5726842999866,None,648.5726842999866,None,"['v', 't']","[9.45656359998975, 11.066828999988502]",648.5726842999866,None,9.45656359998975,11.066828999988502,10,False,False,False,661.9417011999758,None,661.9417011999758,None,661.9417011999758,None,661.9417011999758,None,661.9417011999758,None,661.9417011999758,None,661.9417011999758,None,661.9417011999758,None,662.9574007999909,None,662.9574007999909,None,1,h,,,,,,,,,,,,,,,,,,1_2,001,2021_Feb_23_1341,ComputerHuman,2020.1.3,60.00276013401265,
Sychronize.jpg,Number9.jpg,,Human,Human.xlsx,1,h,9,,,,,0,2,2,0,0,2,2,6,,,,,,,,,,,,,,,,,,,,,,,,,,,,,,,,,,,,,,,,,,,,,,,,,,,,,,,,,,,,,663.9818168999918,None,663.9818168999918,None,664.4573845999839,None,664.4573845999839,None,"['v', 't']","[8.959865999990143, 10.206343199999537]",664.4573845999839,None,8.959865999990143,10.206343199999537,9,False,False,False,676.6298321999784,None,676.6298321999784,None,676.6298321999784,None,676.6298321999784,None,676.6298321999784,None,676.6298321999784,None,676.6298321999784,None,676.6298321999784,None,677.6276877999771,None,677.6276877999771,None,1,h,,,,,,,,,,,,,,,,,,1_2,001,2021_Feb_23_1341,ComputerHuman,2020.1.3,60.00276013401265,
Sychronize.jpg,Number8.jpg,,Human,Human.xlsx,1,h,8,,,,,0,2,2,0,0,3,3,4,,,,,,,,,,,,,,,,,,,,,,,,,,,,,,,,,,,,,,,,,,,,,,,,,,,,,,,,,,,,,678.6465561999939,None,678.6465561999939,None,679.1259380999836,None,679.1259380999836,None,"['t', 'v']","[7.535242600017227, 8.255669200007105]",679.1259380999836,None,8.255669200007105,7.535242600017227,8,False,False,False,690.8332735000004,None,690.8332735000004,None,690.8332735000004,None,690.8332735000004,None,690.8332735000004,None,690.8332735000004,None,690.8332735000004,None,690.8332735000004,None,691.8463016999885,None,691.8463016999885,None,1,h,,,,,,,,,,,,,,,,,,1_2,001,2021_Feb_23_1341,ComputerHuman,2020.1.3,60.00276013401265,
Sychronize.jpg,Number10.jpg,,Human,Human.xlsx,1,h,10,,,,,0,2,2,0,0,4,4,8,,,,,,,,,,,,,,,,,,,,,,,,,,,,,,,,,,,,,,,,,,,,,,,,,,,,,,,,,,,,,692.8660278999887,None,692.8660278999887,None,693.3454809999967,None,693.3454809999967,None,"['v', 't']","[9.443733199994313, 10.734405600000173]",693.3454809999967,None,9.443733199994313,10.734405600000173,10,False,False,False,706.239255499997,None,706.239255499997,None,706.239255499997,None,706.239255499997,None,706.239255499997,None,706.239255499997,None,706.239255499997,None,706.239255499997,None,707.249562299985,None,707.249562299985,None,1,h,,,,,,,,,,,,,,,,,,1_2,001,2021_Feb_23_1341,ComputerHuman,2020.1.3,60.00276013401265,
Sychronize.jpg,Number6.jpg,,Human,Human.xlsx,1,h,6,,,,,0,2,2,0,0,5,5,1,,,,,,,,,,,,,,,,,,,,,,,,,,,,,,,,,,,,,,,,,,,,,,,,,,,,,,,,,,,,,708.2762695999991,None,708.2762695999991,None,708.7488649000006,None,708.7488649000006,None,"['t', 'v']","[5.296498900017468, 6.480422599997837]",708.7488649000006,None,6.480422599997837,5.296498900017468,6,False,False,False,718.448098599998,None,718.448098599998,None,718.448098599998,None,718.448098599998,None,718.448098599998,None,718.448098599998,None,718.448098599998,None,718.448098599998,None,719.4529660999833,None,719.4529660999833,None,1,h,,,,,,,,,,,,,,,,,,1_2,001,2021_Feb_23_1341,ComputerHuman,2020.1.3,60.00276013401265,
Sychronize.jpg,Number8.jpg,,Human,Human.xlsx,1,h,8,,,,,0,2,2,0,0,6,6,5,,,,,,,,,,,,,,,,,,,,,,,,,,,,,,,,,,,,,,,,,,,,,,,,,,,,,,,,,,,,,720.4714238999877,None,720.4714238999877,None,720.9512409999734,None,720.9512409999734,None,"['v', 't']","[7.152441900019767, 8.065013900020858]",720.9512409999734,None,7.152441900019767,8.065013900020858,8,False,False,False,730.5681001999765,None,730.5681001999765,None,730.5681001999765,None,730.5681001999765,None,730.5681001999765,None,730.5681001999765,None,730.5681001999765,None,730.5681001999765,None,731.5724049999844,None,731.5724049999844,None,1,h,,,,,,,,,,,,,,,,,,1_2,001,2021_Feb_23_1341,ComputerHuman,2020.1.3,60.00276013401265,
Sychronize.jpg,Number7.jpg,,Human,Human.xlsx,1,h,7,,,,,0,2,2,0,0,7,7,2,,,,,,,,,,,,,,,,,,,,,,,,,,,,,,,,,,,,,,,,,,,,,,,,,,,,,,,,,,,,,732.5903854999924,None,732.5903854999924,None,733.070599699975,None,733.070599699975,None,"['v', 't']","[6.906650899996748, 7.48152790000313]",733.070599699975,None,6.906650899996748,7.48152790000313,7,False,False,False,743.0437829000002,None,743.0437829000002,None,743.0437829000002,None,743.0437829000002,None,743.0437829000002,None,743.0437829000002,None,743.0437829000002,None,743.0437829000002,None,744.0571279999858,None,744.0571279999858,None,1,h,,,,,,,,,,,,,,,,,,1_2,001,2021_Feb_23_1341,ComputerHuman,2020.1.3,60.00276013401265,
Sychronize.jpg,Number9.jpg,,Human,Human.xlsx,1,h,9,,,,,0,2,2,0,0,8,8,7,,,,,,,,,,,,,,,,,,,,,,,,,,,,,,,,,,,,,,,,,,,,,,,,,,,,,,,,,,,,,745.0814303999941,None,745.0814303999941,None,745.5564075000002,None,745.5564075000002,None,"['t', 'v']","[7.360727299994323, 8.496485799987568]",745.5564075000002,None,8.496485799987568,7.360727299994323,9,False,False,False,757.3394154999987,None,757.3394154999987,None,757.3394154999987,None,757.3394154999987,None,757.3394154999987,None,757.3394154999987,None,757.3394154999987,None,757.3394154999987,None,758.3437875999953,None,758.3437875999953,None,1,h,,,,,,,,,,,,,,,,,,1_2,001,2021_Feb_23_1341,ComputerHuman,2020.1.3,60.00276013401265,
Sychronize.jpg,Number6.jpg,,Human,Human.xlsx,1,h,6,,,,,0,2,2,0,0,9,9,0,,,,,,,,,,,,,,,,,,,,,,,,,,,,,,,,,,,,,,,,,,,,,,,,,,,,,,,,,,,,,759.3690460999787,None,759.3690460999787,None,759.8422776999942,None,759.8422776999942,None,"['t', 'v']","[4.99110670000664, 6.41339319999679]",759.8422776999942,None,6.41339319999679,4.99110670000664,6,False,False,False,769.4261362999969,None,769.4261362999969,None,769.4261362999969,None,769.4261362999969,None,769.4261362999969,None,769.4261362999969,None,769.4261362999969,None,769.4261362999969,None,770.4292245999968,None,770.4292245999968,None,1,h,,,,,,,,,,,,,,,,,,1_2,001,2021_Feb_23_1341,ComputerHuman,2020.1.3,60.00276013401265,
,,,,Human.xlsx,1,h,,,,,,0,2,2,0,,,,,,,,,,,,,,,,,,,,,,,,,,,,,,,,,,,,,,,,,,,,,,,,,,,,,,,,,,,,,,,,,,,,,,,,,,,,,,,,,,,,,,,,,,,,,,,,,,,,,,,1,h,771.4268084999931,None,h,1,7.188678100006655,772.4245692999975,None,779.652512199973,None,None,None,None,None,None,,,,1_2,001,2021_Feb_23_1341,ComputerHuman,2020.1.3,60.00276013401265,
Sychronize.jpg,Number7.jpg,,Computer,Computer.xlsx,2,c,7,,,,,0,3,3,7,0,0,0,3,,,,,,,,,,,,,,,,,,,,,,,,,,,,,,,,,,,,,,,,,,,,,,,,,,,,,,,,,784.6848011999973,None,784.6848011999973,None,787.7005254999967,None,787.7005254999967,None,788.1860117999895,None,788.1860117999895,None,"['v', 't']","[6.206744600000093, 6.4857063999807]",788.1860117999895,None,6.206744600000093,6.4857063999807,7,False,False,False,796.6111113999796,None,796.6111113999796,None,796.6111113999796,None,796.6111113999796,None,796.6111113999796,None,796.6111113999796,None,796.6111113999796,None,796.6111113999796,None,797.6179307999846,None,797.6179307999846,None,2,c,,,,,,,,,,,,,,,,,,1_2,001,2021_Feb_23_1341,ComputerHuman,2020.1.3,60.00276013401265,
Sychronize.jpg,Number8.jpg,,Computer,Computer.xlsx,2,c,8,,,,,0,3,3,7,0,1,1,5,,,,,,,,,,,,,,,,,,,,,,,,,,,,,,,,,,,,,,,,,,,,,,,,,,,,,,,,,,,,,798.643096499989,None,798.643096499989,None,799.1158741999825,None,799.1158741999825,None,"['t', 'v']","[7.261368699982995, 8.409313399984967]",799.1158741999825,None,8.409313399984967,7.261368699982995,8,False,False,False,810.273014299979,None,810.273014299979,None,810.273014299979,None,810.273014299979,None,810.273014299979,None,810.273014299979,None,810.273014299979,None,810.273014299979,None,811.2889428999915,None,811.2889428999915,None,2,c,,,,,,,,,,,,,,,,,,1_2,001,2021_Feb_23_1341,ComputerHuman,2020.1.3,60.00276013401265,
Sychronize.jpg,Number9.jpg,,Computer,Computer.xlsx,2,c,9,,,,,0,3,3,7,0,2,2,7,,,,,,,,,,,,,,,,,,,,,,,,,,,,,,,,,,,,,,,,,,,,,,,,,,,,,,,,,,,,,812.3126447999966,None,812.3126447999966,None,812.7867123999749,None,812.7867123999749,None,"['v', 't']","[7.118732500006445, 9.185092700005043]",812.7867123999749,None,7.118732500006445,9.185092700005043,9,False,False,False,824.4215984999901,None,824.4215984999901,None,824.4215984999901,None,824.4215984999901,None,824.4215984999901,None,824.4215984999901,None,824.4215984999901,None,824.4215984999901,None,825.4591179999989,None,825.4591179999989,None,2,c,,,,,,,,,,,,,,,,,,1_2,001,2021_Feb_23_1341,ComputerHuman,2020.1.3,60.00276013401265,
Sychronize.jpg,Number7.jpg,,Computer,Computer.xlsx,2,c,7,,,,,0,3,3,7,0,3,3,2,,,,,,,,,,,,,,,,,,,,,,,,,,,,,,,,,,,,,,,,,,,,,,,,,,,,,,,,,,,,,826.4658551999892,None,826.4658551999892,None,826.9395055999921,None,826.9395055999921,None,"['t', 'v']","[7.156703499989817, 7.441687399987131]",826.9395055999921,None,7.441687399987131,7.156703499989817,7,False,False,False,838.684245099983,None,838.684245099983,None,838.684245099983,None,838.684245099983,None,838.684245099983,None,838.684245099983,None,838.684245099983,None,838.684245099983,None,839.6947985999868,None,839.6947985999868,None,2,c,,,,,,,,,,,,,,,,,,1_2,001,2021_Feb_23_1341,ComputerHuman,2020.1.3,60.00276013401265,
Sychronize.jpg,Number6.jpg,,Computer,Computer.xlsx,2,c,6,,,,,0,3,3,7,0,4,4,0,,,,,,,,,,,,,,,,,,,,,,,,,,,,,,,,,,,,,,,,,,,,,,,,,,,,,,,,,,,,,840.712708099978,None,840.712708099978,None,841.1921387999901,None,841.1921387999901,None,"['v', 't']","[5.568952100002207, 6.387700699997367]",841.1921387999901,None,5.568952100002207,6.387700699997367,6,False,False,False,849.4874908999773,None,849.4874908999773,None,849.4874908999773,None,849.4874908999773,None,849.4874908999773,None,849.4874908999773,None,849.4874908999773,None,849.4874908999773,None,850.4950121999718,None,850.4950121999718,None,2,c,,,,,,,,,,,,,,,,,,1_2,001,2021_Feb_23_1341,ComputerHuman,2020.1.3,60.00276013401265,
Sychronize.jpg,Number10.jpg,,Computer,Computer.xlsx,2,c,10,,,,,0,3,3,7,0,5,5,8,,,,,,,,,,,,,,,,,,,,,,,,,,,,,,,,,,,,,,,,,,,,,,,,,,,,,,,,,,,,,851.514864799974,None,851.514864799974,None,852.0146616999991,None,852.0146616999991,None,"['t', 'v']","[10.137713300005998, 10.342260900011752]",852.0146616999991,None,10.342260900011752,10.137713300005998,10,False,False,False,865.488405799988,None,865.488405799988,None,865.488405799988,None,865.488405799988,None,865.488405799988,None,865.488405799988,None,865.488405799988,None,865.488405799988,None,866.5215369999933,None,866.5215369999933,None,2,c,,,,,,,,,,,,,,,,,,1_2,001,2021_Feb_23_1341,ComputerHuman,2020.1.3,60.00276013401265,
Sychronize.jpg,Number9.jpg,,Computer,Computer.xlsx,2,c,9,,,,,0,3,3,7,0,6,6,6,,,,,,,,,,,,,,,,,,,,,,,,,,,,,,,,,,,,,,,,,,,,,,,,,,,,,,,,,,,,,867.5183241999766,None,867.5183241999766,None,867.9982966999814,None,867.9982966999814,None,"['t', 'v']","[8.310918500006665, 10.321700600004988]",867.9982966999814,None,10.321700600004988,8.310918500006665,9,False,False,False,882.4529969999858,None,882.4529969999858,None,882.4529969999858,None,882.4529969999858,None,882.4529969999858,None,882.4529969999858,None,882.4529969999858,None,882.4529969999858,None,883.4685081999924,None,883.4685081999924,None,2,c,,,,,,,,,,,,,,,,,,1_2,001,2021_Feb_23_1341,ComputerHuman,2020.1.3,60.00276013401265,
Sychronize.jpg,Number8.jpg,,Computer,Computer.xlsx,2,c,8,,,,,0,3,3,7,0,7,7,4,,,,,,,,,,,,,,,,,,,,,,,,,,,,,,,,,,,,,,,,,,,,,,,,,,,,,,,,,,,,,884.4944063999865,None,884.4944063999865,None,884.9663897999853,None,884.9663897999853,None,"['t', 'v']","[8.538782799994806, 8.598352599976351]",884.9663897999853,None,8.598352599976351,8.538782799994806,8,False,False,False,897.7618328999961,None,897.7618328999961,None,897.7618328999961,None,897.7618328999961,None,897.7618328999961,None,897.7618328999961,None,897.7618328999961,None,897.7618328999961,None,898.7715876000002,None,898.7715876000002,None,2,c,,,,,,,,,,,,,,,,,,1_2,001,2021_Feb_23_1341,ComputerHuman,2020.1.3,60.00276013401265,
Sychronize.jpg,Number10.jpg,,Computer,Computer.xlsx,2,c,10,,,,,0,3,3,7,0,8,8,9,,,,,,,,,,,,,,,,,,,,,,,,,,,,,,,,,,,,,,,,,,,,,,,,,,,,,,,,,,,,,899.7942793999973,None,899.7942793999973,None,900.2727258999948,None,900.2727258999948,None,"['t', 'v']","[10.140156700013904, 11.112646000023233]",900.2727258999948,None,11.112646000023233,10.140156700013904,10,False,False,False,914.8836783999868,None,914.8836783999868,None,914.8836783999868,None,914.8836783999868,None,914.8836783999868,None,914.8836783999868,None,914.8836783999868,None,914.8836783999868,None,915.8916855999851,None,915.8916855999851,None,2,c,,,,,,,,,,,,,,,,,,1_2,001,2021_Feb_23_1341,ComputerHuman,2020.1.3,60.00276013401265,
Sychronize.jpg,Number6.jpg,,Computer,Computer.xlsx,2,c,6,,,,,0,3,3,7,0,9,9,1,,,,,,,,,,,,,,,,,,,,,,,,,,,,,,,,,,,,,,,,,,,,,,,,,,,,,,,,,,,,,916.9114695999888,None,916.9114695999888,None,917.3909477999841,None,917.3909477999841,None,"['v', 't']","[5.446186399989529, 8.7650795999798]",917.3909477999841,None,5.446186399989529,8.7650795999798,6,False,False,False,928.1084425999725,None,928.1084425999725,None,928.1084425999725,None,928.1084425999725,None,928.1084425999725,None,928.1084425999725,None,928.1084425999725,None,928.1084425999725,None,929.1275395999837,None,929.1275395999837,None,2,c,,,,,,,,,,,,,,,,,,1_2,001,2021_Feb_23_1341,ComputerHuman,2020.1.3,60.00276013401265,
,,,,Computer.xlsx,2,c,,,,,,0,3,3,7,,,,,,,,,,,,,,,,,,,,,,,,,,,,,,,,,,,,,,,,,,,,,,,,,,,,,,,,,,,,,,,,,,,,,,,,,,,,,,,,,,,,,,,,,,,,,,,,,,,,,,,2,c,930.1107911999861,None,c,1,2.1496303000021726,931.1073070999992,None,None,None,933.2836498999968,None,"['space', 'space']",934.2740580999816,None,"[1.9018316000001505, 5.063093000004301]",,,1_2,001,2021_Feb_23_1341,ComputerHuman,2020.1.3,60.00276013401265,
Sychronize.jpg,Number8.jpg,,Human,Human.xlsx,2,h,8,,,,,0,4,4,4,0,0,0,5,,,,,,,,,,,,,,,,,,,,,,,,,,,,,,,,,,,,,,,,,,,,,,,,,,,,,,,,,939.383474399976,None,939.383474399976,None,942.4164069999824,None,942.4164069999824,None,942.8798074999941,None,942.8798074999941,None,"['t', 'v']","[7.444050200021593, 7.516685300011886]",942.8798074999941,None,7.516685300011886,7.444050200021593,8,False,False,False,954.3969746999792,None,954.3969746999792,None,954.3969746999792,None,954.3969746999792,None,954.3969746999792,None,954.3969746999792,None,954.3969746999792,None,954.3969746999792,None,955.4386909999885,None,955.4386909999885,None,2,h,,,,,,,,,,,,,,,,,,1_2,001,2021_Feb_23_1341,ComputerHuman,2020.1.3,60.00276013401265,
Sychronize.jpg,Number10.jpg,,Human,Human.xlsx,2,h,10,,,,,0,4,4,4,0,1,1,9,,,,,,,,,,,,,,,,,,,,,,,,,,,,,,,,,,,,,,,,,,,,,,,,,,,,,,,,,,,,,956.4362140999874,None,956.4362140999874,None,956.9144385999825,None,956.9144385999825,None,"['t', 'v']","[9.742821599997114, 10.773884599999292]",956.9144385999825,None,10.773884599999292,9.742821599997114,10,False,False,False,970.7464840999746,None,970.7464840999746,None,970.7464840999746,None,970.7464840999746,None,970.7464840999746,None,970.7464840999746,None,970.7464840999746,None,970.7464840999746,None,971.7533903000003,None,971.7533903000003,None,2,h,,,,,,,,,,,,,,,,,,1_2,001,2021_Feb_23_1341,ComputerHuman,2020.1.3,60.00276013401265,
Sychronize.jpg,Number6.jpg,,Human,Human.xlsx,2,h,6,,,,,0,4,4,4,0,2,2,0,,,,,,,,,,,,,,,,,,,,,,,,,,,,,,,,,,,,,,,,,,,,,,,,,,,,,,,,,,,,,972.7780195999949,None,972.7780195999949,None,973.2512712999887,None,973.2512712999887,None,"['t', 'v']","[6.680835699982708, 7.457818499999121]",973.2512712999887,None,7.457818499999121,6.680835699982708,6,False,False,False,984.1870810999826,None,984.1870810999826,None,984.1870810999826,None,984.1870810999826,None,984.1870810999826,None,984.1870810999826,None,984.1870810999826,None,984.1870810999826,None,985.2074368999747,None,985.2074368999747,None,2,h,,,,,,,,,,,,,,,,,,1_2,001,2021_Feb_23_1341,ComputerHuman,2020.1.3,60.00276013401265,
Sychronize.jpg,Number7.jpg,,Human,Human.xlsx,2,h,7,,,,,0,4,4,4,0,3,3,2,,,,,,,,,,,,,,,,,,,,,,,,,,,,,,,,,,,,,,,,,,,,,,,,,,,,,,,,,,,,,986.2089043999731,None,986.2089043999731,None,986.7036238999863,None,986.7036238999863,None,"['t', 'v']","[7.0032156000088435, 7.429772700008471]",986.7036238999863,None,7.429772700008471,7.0032156000088435,7,False,False,False,997.0157291999785,None,997.0157291999785,None,997.0157291999785,None,997.0157291999785,None,997.0157291999785,None,997.0157291999785,None,997.0157291999785,None,997.0157291999785,None,998.0260057999985,None,998.0260057999985,None,2,h,,,,,,,,,,,,,,,,,,1_2,001,2021_Feb_23_1341,ComputerHuman,2020.1.3,60.00276013401265,
Sychronize.jpg,Number9.jpg,,Human,Human.xlsx,2,h,9,,,,,0,4,4,4,0,4,4,6,,,,,,,,,,,,,,,,,,,,,,,,,,,,,,,,,,,,,,,,,,,,,,,,,,,,,,,,,,,,,999.0442656999803,None,999.0442656999803,None,999.5438698999933,None,999.5438698999933,None,"['v', 't']","[7.66916879999917, 10.496417999995174]",999.5438698999933,None,7.66916879999917,10.496417999995174,9,False,False,False,1011.9860434999864,None,1011.9860434999864,None,1011.9860434999864,None,1011.9860434999864,None,1011.9860434999864,None,1011.9860434999864,None,1011.9860434999864,None,1011.9860434999864,None,1012.9957442999876,None,1012.9957442999876,None,2,h,,,,,,,,,,,,,,,,,,1_2,001,2021_Feb_23_1341,ComputerHuman,2020.1.3,60.00276013401265,
Sychronize.jpg,Number8.jpg,,Human,Human.xlsx,2,h,8,,,,,0,4,4,4,0,5,5,4,,,,,,,,,,,,,,,,,,,,,,,,,,,,,,,,,,,,,,,,,,,,,,,,,,,,,,,,,,,,,1014.0181805999891,None,1014.0181805999891,None,1014.4942401999724,None,1014.4942401999724,None,"['t', 'v']","[7.030759799992666, 8.986662500014063]",1014.4942401999724,None,8.986662500014063,7.030759799992666,8,False,False,False,1026.7327213999815,None,1026.7327213999815,None,1026.7327213999815,None,1026.7327213999815,None,1026.7327213999815,None,1026.7327213999815,None,1026.7327213999815,None,1026.7327213999815,None,1027.7478608999809,None,1027.7478608999809,None,2,h,,,,,,,,,,,,,,,,,,1_2,001,2021_Feb_23_1341,ComputerHuman,2020.1.3,60.00276013401265,
Sychronize.jpg,Number9.jpg,,Human,Human.xlsx,2,h,9,,,,,0,4,4,4,0,6,6,7,,,,,,,,,,,,,,,,,,,,,,,,,,,,,,,,,,,,,,,,,,,,,,,,,,,,,,,,,,,,,1028.766928499972,None,1028.766928499972,None,1029.2683783999819,None,1029.2683783999819,None,"['t', 'v']","[7.932755999994697, 9.184828199999174]",1029.2683783999819,None,9.184828199999174,7.932755999994697,9,False,False,False,1041.4647699999914,None,1041.4647699999914,None,1041.4647699999914,None,1041.4647699999914,None,1041.4647699999914,None,1041.4647699999914,None,1041.4647699999914,None,1041.4647699999914,None,1042.485543799994,None,1042.485543799994,None,2,h,,,,,,,,,,,,,,,,,,1_2,001,2021_Feb_23_1341,ComputerHuman,2020.1.3,60.00276013401265,
Sychronize.jpg,Number10.jpg,,Human,Human.xlsx,2,h,10,,,,,0,4,4,4,0,7,7,8,,,,,,,,,,,,,,,,,,,,,,,,,,,,,,,,,,,,,,,,,,,,,,,,,,,,,,,,,,,,,1043.487195099995,None,1043.487195099995,None,1043.9672480999725,None,1043.9672480999725,None,"['t', 'v']","[9.134213999990607, 9.410786599997664]",1043.9672480999725,None,9.410786599997664,9.134213999990607,10,False,False,False,1057.0517772999883,None,1057.0517772999883,None,1057.0517772999883,None,1057.0517772999883,None,1057.0517772999883,None,1057.0517772999883,None,1057.0517772999883,None,1057.0517772999883,None,1058.076171099994,None,1058.076171099994,None,2,h,,,,,,,,,,,,,,,,,,1_2,001,2021_Feb_23_1341,ComputerHuman,2020.1.3,60.00276013401265,
Sychronize.jpg,Number7.jpg,,Human,Human.xlsx,2,h,7,,,,,0,4,4,4,0,8,8,3,,,,,,,,,,,,,,,,,,,,,,,,,,,,,,,,,,,,,,,,,,,,,,,,,,,,,,,,,,,,,1059.0767278999847,None,1059.0767278999847,None,1059.553444899997,None,1059.553444899997,None,"['t', 'v']","[6.488680399983423, 7.2442535999871325]",1059.553444899997,None,7.2442535999871325,6.488680399983423,7,False,False,False,1070.058926699974,None,1070.058926699974,None,1070.058926699974,None,1070.058926699974,None,1070.058926699974,None,1070.058926699974,None,1070.058926699974,None,1070.058926699974,None,1071.073127199983,None,1071.073127199983,None,2,h,,,,,,,,,,,,,,,,,,1_2,001,2021_Feb_23_1341,ComputerHuman,2020.1.3,60.00276013401265,
Sychronize.jpg,Number6.jpg,,Human,Human.xlsx,2,h,6,,,,,0,4,4,4,0,9,9,1,,,,,,,,,,,,,,,,,,,,,,,,,,,,,,,,,,,,,,,,,,,,,,,,,,,,,,,,,,,,,1072.0932174999907,None,1072.0932174999907,None,1072.5718529999722,None,1072.5718529999722,None,"['v', 't']","[5.469338800001424, 6.26438340000459]",1072.5718529999722,None,5.469338800001424,6.26438340000459,6,False,False,False,1080.411065399996,None,1080.411065399996,None,1080.411065399996,None,1080.411065399996,None,1080.411065399996,None,1080.411065399996,None,1080.411065399996,None,1080.411065399996,None,1081.4259457000007,None,1081.4259457000007,None,2,h,,,,,,,,,,,,,,,,,,1_2,001,2021_Feb_23_1341,ComputerHuman,2020.1.3,60.00276013401265,
,,,,Human.xlsx,2,h,,,,,,0,4,4,4,,,,,,,,,,,,,,,,,,,,,,,,,,,,,,,,,,,,,,,,,,,,,,,,,,,,,,,,,,,,,,,,,,,,,,,,,,,,,,,,,,,,,,,,,,,,,,,,,,,,,,,2,h,1082.4444688999793,None,c,0,3.0466049000096973,1083.4545311999973,None,1086.531823199999,None,None,None,None,None,None,,,,1_2,001,2021_Feb_23_1341,ComputerHuman,2020.1.3,60.00276013401265,
Sychronize.jpg,Number6.jpg,,Human,Human.xlsx,2,h,6,,,,,0,5,5,6,0,0,0,1,,,,,,,,,,,,,,,,,,,,,,,,,,,,,,,,,,,,,,,,,,,,,,,,,,,,,,,,,1091.5650474999857,None,1091.5650474999857,None,1094.5798789999972,None,1094.5798789999972,None,1095.0440061999834,None,1095.0440061999834,None,"['v', 't']","[6.145156599988695, 6.828893099998822]",1095.0440061999834,None,6.145156599988695,6.828893099998822,6,False,False,False,1104.1218608999916,None,1104.1218608999916,None,1104.1218608999916,None,1104.1218608999916,None,1104.1218608999916,None,1104.1218608999916,None,1104.1218608999916,None,1104.1218608999916,None,1105.130857799988,None,1105.130857799988,None,2,h,,,,,,,,,,,,,,,,,,1_2,001,2021_Feb_23_1341,ComputerHuman,2020.1.3,60.00276013401265,
Sychronize.jpg,Number9.jpg,,Human,Human.xlsx,2,h,9,,,,,0,5,5,6,0,1,1,7,,,,,,,,,,,,,,,,,,,,,,,,,,,,,,,,,,,,,,,,,,,,,,,,,,,,,,,,,,,,,1106.1563634999911,None,1106.1563634999911,None,1106.629471399996,None,1106.629471399996,None,"['t', 'v']","[9.063676500023575, 10.391667600022629]",1106.629471399996,None,10.391667600022629,9.063676500023575,9,False,False,False,1119.680979799974,None,1119.680979799974,None,1119.680979799974,None,1119.680979799974,None,1119.680979799974,None,1119.680979799974,None,1119.680979799974,None,1119.680979799974,None,1120.6998387999774,None,1120.6998387999774,None,2,h,,,,,,,,,,,,,,,,,,1_2,001,2021_Feb_23_1341,ComputerHuman,2020.1.3,60.00276013401265,
Sychronize.jpg,Number7.jpg,,Human,Human.xlsx,2,h,7,,,,,0,5,5,6,0,2,2,3,,,,,,,,,,,,,,,,,,,,,,,,,,,,,,,,,,,,,,,,,,,,,,,,,,,,,,,,,,,,,1121.708752799983,None,1121.708752799983,None,1122.2027335999883,None,1122.2027335999883,None,"['t', 'v']","[6.302192400005879, 7.166145700000925]",1122.2027335999883,None,7.166145700000925,6.302192400005879,7,False,False,False,1132.785610699997,None,1132.785610699997,None,1132.785610699997,None,1132.785610699997,None,1132.785610699997,None,1132.785610699997,None,1132.785610699997,None,1132.785610699997,None,1133.8027732999763,None,1133.8027732999763,None,2,h,,,,,,,,,,,,,,,,,,1_2,001,2021_Feb_23_1341,ComputerHuman,2020.1.3,60.00276013401265,
Sychronize.jpg,Number10.jpg,,Human,Human.xlsx,2,h,10,,,,,0,5,5,6,0,3,3,8,,,,,,,,,,,,,,,,,,,,,,,,,,,,,,,,,,,,,,,,,,,,,,,,,,,,,,,,,,,,,1134.8223481999885,None,1134.8223481999885,None,1135.320384999999,None,1135.320384999999,None,"['v', 't']","[8.129202500014799, 8.927441800013185]",1135.320384999999,None,8.129202500014799,8.927441800013185,10,False,False,False,1145.820092399983,None,1145.820092399983,None,1145.820092399983,None,1145.820092399983,None,1145.820092399983,None,1145.820092399983,None,1145.820092399983,None,1145.820092399983,None,1146.8394245999807,None,1146.8394245999807,None,2,h,,,,,,,,,,,,,,,,,,1_2,001,2021_Feb_23_1341,ComputerHuman,2020.1.3,60.00276013401265,
Sychronize.jpg,Number6.jpg,,Human,Human.xlsx,2,h,6,,,,,0,5,5,6,0,4,4,0,,,,,,,,,,,,,,,,,,,,,,,,,,,,,,,,,,,,,,,,,,,,,,,,,,,,,,,,,,,,,1147.8577933999768,None,1147.8577933999768,None,1148.3364823999873,None,1148.3364823999873,None,"['t', 'v']","[4.772674400010146, 6.251365900010569]",1148.3364823999873,None,6.251365900010569,4.772674400010146,6,False,False,False,1157.137193499977,None,1157.137193499977,None,1157.137193499977,None,1157.137193499977,None,1157.137193499977,None,1157.137193499977,None,1157.137193499977,None,1157.137193499977,None,1158.1409199999762,None,1158.1409199999762,None,2,h,,,,,,,,,,,,,,,,,,1_2,001,2021_Feb_23_1341,ComputerHuman,2020.1.3,60.00276013401265,
Sychronize.jpg,Number8.jpg,,Human,Human.xlsx,2,h,8,,,,,0,5,5,6,0,5,5,4,,,,,,,,,,,,,,,,,,,,,,,,,,,,,,,,,,,,,,,,,,,,,,,,,,,,,,,,,,,,,1159.1653455999913,None,1159.1653455999913,None,1159.6386681000004,None,1159.6386681000004,None,"['t', 'v']","[7.817104399990058, 8.666858099983074]",1159.6386681000004,None,8.666858099983074,7.817104399990058,8,False,False,False,1171.7983030999894,None,1171.7983030999894,None,1171.7983030999894,None,1171.7983030999894,None,1171.7983030999894,None,1171.7983030999894,None,1171.7983030999894,None,1171.7983030999894,None,1172.8107686000003,None,1172.8107686000003,None,2,h,,,,,,,,,,,,,,,,,,1_2,001,2021_Feb_23_1341,ComputerHuman,2020.1.3,60.00276013401265,
Sychronize.jpg,Number7.jpg,,Human,Human.xlsx,2,h,7,,,,,0,5,5,6,0,6,6,2,,,,,,,,,,,,,,,,,,,,,,,,,,,,,,,,,,,,,,,,,,,,,,,,,,,,,,,,,,,,,1173.8297102999932,None,1173.8297102999932,None,1174.3096857999917,None,1174.3096857999917,None,"['t', 'v']","[7.688295600004494, 7.975653300003614]",1174.3096857999917,None,7.975653300003614,7.688295600004494,7,False,False,False,1186.527258099988,None,1186.527258099988,None,1186.527258099988,None,1186.527258099988,None,1186.527258099988,None,1186.527258099988,None,1186.527258099988,None,1186.527258099988,None,1187.5522625999874,None,1187.5522625999874,None,2,h,,,,,,,,,,,,,,,,,,1_2,001,2021_Feb_23_1341,ComputerHuman,2020.1.3,60.00276013401265,
Sychronize.jpg,Number8.jpg,,Human,Human.xlsx,2,h,8,,,,,0,5,5,6,0,7,7,5,,,,,,,,,,,,,,,,,,,,,,,,,,,,,,,,,,,,,,,,,,,,,,,,,,,,,,,,,,,,,1188.555043099972,None,1188.555043099972,None,1189.0304982999805,None,1189.0304982999805,None,"['t', 'v']","[8.738693699997384, 8.941351099987514]",1189.0304982999805,None,8.941351099987514,8.738693699997384,8,False,False,False,1202.4312109999883,None,1202.4312109999883,None,1202.4312109999883,None,1202.4312109999883,None,1202.4312109999883,None,1202.4312109999883,None,1202.4312109999883,None,1202.4312109999883,None,1203.4562179999775,None,1203.4562179999775,None,2,h,,,,,,,,,,,,,,,,,,1_2,001,2021_Feb_23_1341,ComputerHuman,2020.1.3,60.00276013401265,
Sychronize.jpg,Number10.jpg,,Human,Human.xlsx,2,h,10,,,,,0,5,5,6,0,8,8,9,,,,,,,,,,,,,,,,,,,,,,,,,,,,,,,,,,,,,,,,,,,,,,,,,,,,,,,,,,,,,1204.4531380999833,None,1204.4531380999833,None,1204.9315002999792,None,1204.9315002999792,None,"['t', 'v']","[10.545763400004944, 11.085910000023432]",1204.9315002999792,None,11.085910000023432,10.545763400004944,10,False,False,False,1219.3065536999784,None,1219.3065536999784,None,1219.3065536999784,None,1219.3065536999784,None,1219.3065536999784,None,1219.3065536999784,None,1219.3065536999784,None,1219.3065536999784,None,1220.3201187999803,None,1220.3201187999803,None,2,h,,,,,,,,,,,,,,,,,,1_2,001,2021_Feb_23_1341,ComputerHuman,2020.1.3,60.00276013401265,
Sychronize.jpg,Number9.jpg,,Human,Human.xlsx,2,h,9,,,,,0,5,5,6,0,9,9,6,,,,,,,,,,,,,,,,,,,,,,,,,,,,,,,,,,,,,,,,,,,,,,,,,,,,,,,,,,,,,1221.3395841999736,None,1221.3395841999736,None,1221.8209381999914,None,1221.8209381999914,None,"['t', 'v']","[9.13985199999297, 9.876173799973913]",1221.8209381999914,None,9.876173799973913,9.13985199999297,9,False,False,False,1235.3703122999868,None,1235.3703122999868,None,1235.3703122999868,None,1235.3703122999868,None,1235.3703122999868,None,1235.3703122999868,None,1235.3703122999868,None,1235.3703122999868,None,1236.373214399995,None,1236.373214399995,None,2,h,,,,,,,,,,,,,,,,,,1_2,001,2021_Feb_23_1341,ComputerHuman,2020.1.3,60.00276013401265,
,,,,Human.xlsx,2,h,,,,,,0,5,5,6,,,,,,,,,,,,,,,,,,,,,,,,,,,,,,,,,,,,,,,,,,,,,,,,,,,,,,,,,,,,,,,,,,,,,,,,,,,,,,,,,,,,,,,,,,,,,,,,,,,,,,,2,h,1237.3924409999745,None,h,1,0.5740706000069622,1238.402795699978,None,1239.0257793999917,None,None,None,None,None,None,,,,1_2,001,2021_Feb_23_1341,ComputerHuman,2020.1.3,60.00276013401265,
Sychronize.jpg,Number10.jpg,,Computer,Computer.xlsx,1,c,10,,,,,0,6,6,1,0,0,0,8,,,,,,,,,,,,,,,,,,,,,,,,,,,,,,,,,,,,,,,,,,,,,,,,,,,,,,,,,1244.0475120999909,None,1244.0475120999909,None,1247.0622249999724,None,1247.0622249999724,None,1247.543707899982,None,1247.543707899982,None,"['t', 'v']","[9.510052799974801, 10.945407599996543]",1247.543707899982,None,10.945407599996543,9.510052799974801,10,False,False,False,1261.3488562999992,None,1261.3488562999992,None,1261.3488562999992,None,1261.3488562999992,None,1261.3488562999992,None,1261.3488562999992,None,1261.3488562999992,None,1261.3488562999992,None,1262.3620708999806,None,1262.3620708999806,None,1,c,,,,,,,,,,,,,,,,,,1_2,001,2021_Feb_23_1341,ComputerHuman,2020.1.3,60.00276013401265,
Sychronize.jpg,Number7.jpg,,Computer,Computer.xlsx,1,c,7,,,,,0,6,6,1,0,1,1,2,,,,,,,,,,,,,,,,,,,,,,,,,,,,,,,,,,,,,,,,,,,,,,,,,,,,,,,,,,,,,1263.3812964999815,None,1263.3812964999815,None,1263.8612955999852,None,1263.8612955999852,None,"['t', 'v']","[7.042756000009831, 11.514353900012793]",1263.8612955999852,None,11.514353900012793,7.042756000009831,7,False,False,False,1279.0905956999923,None,1279.0905956999923,None,1279.0905956999923,None,1279.0905956999923,None,1279.0905956999923,None,1279.0905956999923,None,1279.0905956999923,None,1279.0905956999923,None,1280.0995512999943,None,1280.0995512999943,None,1,c,,,,,,,,,,,,,,,,,,1_2,001,2021_Feb_23_1341,ComputerHuman,2020.1.3,60.00276013401265,
Sychronize.jpg,Number9.jpg,,Computer,Computer.xlsx,1,c,9,,,,,0,6,6,1,0,2,2,6,,,,,,,,,,,,,,,,,,,,,,,,,,,,,,,,,,,,,,,,,,,,,,,,,,,,,,,,,,,,,1281.1297186999873,None,1281.1297186999873,None,1281.6193727999926,None,1281.6193727999926,None,"['t', 'v']","[8.67453829999431, 10.281610000005458]",1281.6193727999926,None,10.281610000005458,8.67453829999431,9,False,False,False,1294.3537747999944,None,1294.3537747999944,None,1294.3537747999944,None,1294.3537747999944,None,1294.3537747999944,None,1294.3537747999944,None,1294.3537747999944,None,1294.3537747999944,None,1295.3686337999825,None,1295.3686337999825,None,1,c,,,,,,,,,,,,,,,,,,1_2,001,2021_Feb_23_1341,ComputerHuman,2020.1.3,60.00276013401265,
Sychronize.jpg,Number8.jpg,,Computer,Computer.xlsx,1,c,8,,,,,0,6,6,1,0,3,3,4,,,,,,,,,,,,,,,,,,,,,,,,,,,,,,,,,,,,,,,,,,,,,,,,,,,,,,,,,,,,,1296.3885265999998,None,1296.3885265999998,None,1296.867076399998,None,1296.867076399998,None,"['t', 'v']","[7.358107399981236, 8.645963599992683]",1296.867076399998,None,8.645963599992683,7.358107399981236,8,False,False,False,1307.9695923999825,None,1307.9695923999825,None,1307.9695923999825,None,1307.9695923999825,None,1307.9695923999825,None,1307.9695923999825,None,1307.9695923999825,None,1307.9695923999825,None,1308.973210199998,None,1308.973210199998,None,1,c,,,,,,,,,,,,,,,,,,1_2,001,2021_Feb_23_1341,ComputerHuman,2020.1.3,60.00276013401265,
Sychronize.jpg,Number6.jpg,,Computer,Computer.xlsx,1,c,6,,,,,0,6,6,1,0,4,4,0,,,,,,,,,,,,,,,,,,,,,,,,,,,,,,,,,,,,,,,,,,,,,,,,,,,,,,,,,,,,,1309.9966108999797,None,1309.9966108999797,None,1310.4707225999737,None,1310.4707225999737,None,"['v', 't']","[6.014008800004376, 6.389044100011233]",1310.4707225999737,None,6.014008800004376,6.389044100011233,6,False,False,False,1319.1385307999735,None,1319.1385307999735,None,1319.1385307999735,None,1319.1385307999735,None,1319.1385307999735,None,1319.1385307999735,None,1319.1385307999735,None,1319.1385307999735,None,1320.1581856999837,None,1320.1581856999837,None,1,c,,,,,,,,,,,,,,,,,,1_2,001,2021_Feb_23_1341,ComputerHuman,2020.1.3,60.00276013401265,
Sychronize.jpg,Number10.jpg,,Computer,Computer.xlsx,1,c,10,,,,,0,6,6,1,0,5,5,9,,,,,,,,,,,,,,,,,,,,,,,,,,,,,,,,,,,,,,,,,,,,,,,,,,,,,,,,,,,,,1321.1826697999786,None,1321.1826697999786,None,1321.6566789999779,None,1321.6566789999779,None,"['t', 'v']","[11.503801100014243, 11.526814000011655]",1321.6566789999779,None,13,13,10,False,False,False,1337.2755108999845,None,1337.2755108999845,None,1337.2755108999845,None,1337.2755108999845,None,1337.2755108999845,None,1337.2755108999845,None,1337.2755108999845,None,1337.2755108999845,None,1338.295736,None,1338.295736,None,1,c,,,,,,,,,,,,,,,,,,1_2,001,2021_Feb_23_1341,ComputerHuman,2020.1.3,60.00276013401265,
Sychronize.jpg,Number9.jpg,,Computer,Computer.xlsx,1,c,9,,,,,0,6,6,1,0,6,6,7,,,,,,,,,,,,,,,,,,,,,,,,,,,,,,,,,,,,,,,,,,,,,,,,,,,,,,,,,,,,,1339.313523799996,None,1339.313523799996,None,1339.7920221999811,None,1339.7920221999811,None,"['t', 'v']","[9.203782600001432, 10.523825399985071]",1339.7920221999811,None,10.523825399985071,9.203782600001432,9,False,False,False,1352.8118812999746,None,1352.8118812999746,None,1352.8118812999746,None,1352.8118812999746,None,1352.8118812999746,None,1352.8118812999746,None,1352.8118812999746,None,1352.8118812999746,None,1353.851454299991,None,1353.851454299991,None,1,c,,,,,,,,,,,,,,,,,,1_2,001,2021_Feb_23_1341,ComputerHuman,2020.1.3,60.00276013401265,
Sychronize.jpg,Number6.jpg,,Computer,Computer.xlsx,1,c,6,,,,,0,6,6,1,0,7,7,1,,,,,,,,,,,,,,,,,,,,,,,,,,,,,,,,,,,,,,,,,,,,,,,,,,,,,,,,,,,,,1354.844343099976,None,1354.844343099976,None,1355.3290754999907,None,1355.3290754999907,None,"['v', 't']","[5.366674899996724, 6.562568800000008]",1355.3290754999907,None,5.366674899996724,6.562568800000008,6,False,False,False,1364.3363416999928,None,1364.3363416999928,None,1364.3363416999928,None,1364.3363416999928,None,1364.3363416999928,None,1364.3363416999928,None,1364.3363416999928,None,1364.3363416999928,None,1365.3497603999858,None,1365.3497603999858,None,1,c,,,,,,,,,,,,,,,,,,1_2,001,2021_Feb_23_1341,ComputerHuman,2020.1.3,60.00276013401265,
Sychronize.jpg,Number8.jpg,,Computer,Computer.xlsx,1,c,8,,,,,0,6,6,1,0,8,8,5,,,,,,,,,,,,,,,,,,,,,,,,,,,,,,,,,,,,,,,,,,,,,,,,,,,,,,,,,,,,,1366.369645299972,None,1366.369645299972,None,1366.8488605999737,None,1366.8488605999737,None,"['t', 'v']","[8.319938700005878, 8.4195030000119]",1366.8488605999737,None,8.4195030000119,8.319938700005878,8,False,False,False,1379.5162125999923,None,1379.5162125999923,None,1379.5162125999923,None,1379.5162125999923,None,1379.5162125999923,None,1379.5162125999923,None,1379.5162125999923,None,1379.5162125999923,None,1380.519168799976,None,1380.519168799976,None,1,c,,,,,,,,,,,,,,,,,,1_2,001,2021_Feb_23_1341,ComputerHuman,2020.1.3,60.00276013401265,
Sychronize.jpg,Number7.jpg,,Computer,Computer.xlsx,1,c,7,,,,,0,6,6,1,0,9,9,3,,,,,,,,,,,,,,,,,,,,,,,,,,,,,,,,,,,,,,,,,,,,,,,,,,,,,,,,,,,,,1381.538452799985,None,1381.538452799985,None,1382.0172831999953,None,1382.0172831999953,None,"['v', 't']","[7.855826899991371, 12.090452600008575]",1382.0172831999953,None,7.855826899991371,12.090452600008575,7,False,False,False,1395.9887181999802,None,1395.9887181999802,None,1395.9887181999802,None,1395.9887181999802,None,1395.9887181999802,None,1395.9887181999802,None,1395.9887181999802,None,1395.9887181999802,None,1397.005848699977,None,1397.005848699977,None,1,c,,,,,,,,,,,,,,,,,,1_2,001,2021_Feb_23_1341,ComputerHuman,2020.1.3,60.00276013401265,
,,,,Computer.xlsx,1,c,,,,,,0,6,6,1,,,,,,,,,,,,,,,,,,,,,,,,,,,,,,,,,,,,,,,,,,,,,,,,,,,,,,,,,,,,,,,,,,,,,,,,,,,,,,,,,,,,,,,,,,,,,,,,,,,,,,,1,c,1398.0039151999808,None,h,0,1.5757894999987911,1398.9850452999817,None,1400.594108899997,None,None,None,None,None,None,,,,1_2,001,2021_Feb_23_1341,ComputerHuman,2020.1.3,60.00276013401265,
Sychronize.jpg,Number9.jpg,,Human,Human.xlsx,1,h,9,,,,,0,7,7,2,0,0,0,7,,,,,,,,,,,,,,,,,,,,,,,,,,,,,,,,,,,,,,,,,,,,,,,,,,,,,,,,,1405.6326215000008,None,1405.6326215000008,None,1408.6274122999748,None,1408.6274122999748,None,1409.1063767999876,None,1409.1063767999876,None,"['v', 't']","[5.082259700022405, 8.113623800018104]",1409.1063767999876,None,5.082259700022405,8.113623800018104,9,False,False,False,1419.7128578999836,None,1419.7128578999836,None,1419.7128578999836,None,1419.7128578999836,None,1419.7128578999836,None,1419.7128578999836,None,1419.7128578999836,None,1419.7128578999836,None,1420.7273317999789,None,1420.7273317999789,None,1,h,,,,,,,,,,,,,,,,,,1_2,001,2021_Feb_23_1341,ComputerHuman,2020.1.3,60.00276013401265,
Sychronize.jpg,Number8.jpg,,Human,Human.xlsx,1,h,8,,,,,0,7,7,2,0,1,1,4,,,,,,,,,,,,,,,,,,,,,,,,,,,,,,,,,,,,,,,,,,,,,,,,,,,,,,,,,,,,,1421.7465610999789,None,1421.7465610999789,None,1422.2267188999976,None,1422.2267188999976,None,"['v', 't']","[6.566462300019339, 8.03267680000863]",1422.2267188999976,None,6.566462300019339,8.03267680000863,8,False,False,False,1432.734220399987,None,1432.734220399987,None,1432.734220399987,None,1432.734220399987,None,1432.734220399987,None,1432.734220399987,None,1432.734220399987,None,1432.734220399987,None,1433.7470667999878,None,1433.7470667999878,None,1,h,,,,,,,,,,,,,,,,,,1_2,001,2021_Feb_23_1341,ComputerHuman,2020.1.3,60.00276013401265,
Sychronize.jpg,Number7.jpg,,Human,Human.xlsx,1,h,7,,,,,0,7,7,2,0,2,2,2,,,,,,,,,,,,,,,,,,,,,,,,,,,,,,,,,,,,,,,,,,,,,,,,,,,,,,,,,,,,,1434.7660155999765,None,1434.7660155999765,None,1435.2478035999811,None,1435.2478035999811,None,"['t', 'v']","[6.689305700012483, 8.068686799990246]",1435.2478035999811,None,8.068686799990246,6.689305700012483,7,False,False,False,1445.8129444999795,None,1445.8129444999795,None,1445.8129444999795,None,1445.8129444999795,None,1445.8129444999795,None,1445.8129444999795,None,1445.8129444999795,None,1445.8129444999795,None,1446.8162216999917,None,1446.8162216999917,None,1,h,,,,,,,,,,,,,,,,,,1_2,001,2021_Feb_23_1341,ComputerHuman,2020.1.3,60.00276013401265,
Sychronize.jpg,Number7.jpg,,Human,Human.xlsx,1,h,7,,,,,0,7,7,2,0,3,3,3,,,,,,,,,,,,,,,,,,,,,,,,,,,,,,,,,,,,,,,,,,,,,,,,,,,,,,,,,,,,,1447.835558699997,None,1447.835558699997,None,1448.3138611999748,None,1448.3138611999748,None,"['v', 't']","[7.365671400009887, 7.393695699982345]",1448.3138611999748,None,7.365671400009887,7.393695699982345,7,False,False,False,1457.7033654999977,None,1457.7033654999977,None,1457.7033654999977,None,1457.7033654999977,None,1457.7033654999977,None,1457.7033654999977,None,1457.7033654999977,None,1457.7033654999977,None,1458.7190812999906,None,1458.7190812999906,None,1,h,,,,,,,,,,,,,,,,,,1_2,001,2021_Feb_23_1341,ComputerHuman,2020.1.3,60.00276013401265,
Sychronize.jpg,Number10.jpg,,Human,Human.xlsx,1,h,10,,,,,0,7,7,2,0,4,4,9,,,,,,,,,,,,,,,,,,,,,,,,,,,,,,,,,,,,,,,,,,,,,,,,,,,,,,,,,,,,,1459.7383039999986,None,1459.7383039999986,None,1460.2180435999762,None,1460.2180435999762,None,"['v', 't']","[10.30699199999799, 10.485874500009231]",1460.2180435999762,None,10.30699199999799,10.485874500009231,10,False,False,False,1472.2732462999993,None,1472.2732462999993,None,1472.2732462999993,None,1472.2732462999993,None,1472.2732462999993,None,1472.2732462999993,None,1472.2732462999993,None,1472.2732462999993,None,1473.2721042999765,None,1473.2721042999765,None,1,h,,,,,,,,,,,,,,,,,,1_2,001,2021_Feb_23_1341,ComputerHuman,2020.1.3,60.00276013401265,
Sychronize.jpg,Number6.jpg,,Human,Human.xlsx,1,h,6,,,,,0,7,7,2,0,5,5,1,,,,,,,,,,,,,,,,,,,,,,,,,,,,,,,,,,,,,,,,,,,,,,,,,,,,,,,,,,,,,1474.2915657999984,None,1474.2915657999984,None,1474.7712076999887,None,1474.7712076999887,None,"['t', 'v']","[5.447118599986425, 6.310120599984657]",1474.7712076999887,None,6.310120599984657,5.447118599986425,6,False,False,False,1484.2549745999859,None,1484.2549745999859,None,1484.2549745999859,None,1484.2549745999859,None,1484.2549745999859,None,1484.2549745999859,None,1484.2549745999859,None,1484.2549745999859,None,1485.2573248999834,None,1485.2573248999834,None,1,h,,,,,,,,,,,,,,,,,,1_2,001,2021_Feb_23_1341,ComputerHuman,2020.1.3,60.00276013401265,
Sychronize.jpg,Number8.jpg,,Human,Human.xlsx,1,h,8,,,,,0,7,7,2,0,6,6,5,,,,,,,,,,,,,,,,,,,,,,,,,,,,,,,,,,,,,,,,,,,,,,,,,,,,,,,,,,,,,1486.2819399999862,None,1486.2819399999862,None,1486.7577521999774,None,1486.7577521999774,None,"['t', 'v']","[8.223302200000035, 8.590197800018359]",1486.7577521999774,None,8.590197800018359,8.223302200000035,8,False,False,False,1498.4404287999787,None,1498.4404287999787,None,1498.4404287999787,None,1498.4404287999787,None,1498.4404287999787,None,1498.4404287999787,None,1498.4404287999787,None,1498.4404287999787,None,1499.4599490999826,None,1499.4599490999826,None,1,h,,,,,,,,,,,,,,,,,,1_2,001,2021_Feb_23_1341,ComputerHuman,2020.1.3,60.00276013401265,
Sychronize.jpg,Number10.jpg,,Human,Human.xlsx,1,h,10,,,,,0,7,7,2,0,7,7,8,,,,,,,,,,,,,,,,,,,,,,,,,,,,,,,,,,,,,,,,,,,,,,,,,,,,,,,,,,,,,1500.4669955999998,None,1500.4669955999998,None,1500.9426893999917,None,1500.9426893999917,None,"['v', 't']","[10.384875700023258, 10.576882200024556]",1500.9426893999917,None,10.384875700023258,10.576882200024556,10,False,False,False,1513.688455399999,None,1513.688455399999,None,1513.688455399999,None,1513.688455399999,None,1513.688455399999,None,1513.688455399999,None,1513.688455399999,None,1513.688455399999,None,1514.7156539999996,None,1514.7156539999996,None,1,h,,,,,,,,,,,,,,,,,,1_2,001,2021_Feb_23_1341,ComputerHuman,2020.1.3,60.00276013401265,
Sychronize.jpg,Number6.jpg,,Human,Human.xlsx,1,h,6,,,,,0,7,7,2,0,8,8,0,,,,,,,,,,,,,,,,,,,,,,,,,,,,,,,,,,,,,,,,,,,,,,,,,,,,,,,,,,,,,1515.7156535999966,None,1515.7156535999966,None,1516.2137485999847,None,1516.2137485999847,None,"['t', 'v']","[6.038001899985829, 6.5680790999904275]",1516.2137485999847,None,6.5680790999904275,6.038001899985829,6,False,False,False,1525.8725131999818,None,1525.8725131999818,None,1525.8725131999818,None,1525.8725131999818,None,1525.8725131999818,None,1525.8725131999818,None,1525.8725131999818,None,1525.8725131999818,None,1526.8835844999994,None,1526.8835844999994,None,1,h,,,,,,,,,,,,,,,,,,1_2,001,2021_Feb_23_1341,ComputerHuman,2020.1.3,60.00276013401265,
Sychronize.jpg,Number9.jpg,,Human,Human.xlsx,1,h,9,,,,,0,7,7,2,0,9,9,6,,,,,,,,,,,,,,,,,,,,,,,,,,,,,,,,,,,,,,,,,,,,,,,,,,,,,,,,,,,,,1527.907788899989,None,1527.907788899989,None,1528.3802859999996,None,1528.3802859999996,None,"['v', 't']","[9.100430000020424, 9.243963899993105]",1528.3802859999996,None,9.100430000020424,9.243963899993105,9,False,False,False,1539.9085013000004,None,1539.9085013000004,None,1539.9085013000004,None,1539.9085013000004,None,1539.9085013000004,None,1539.9085013000004,None,1539.9085013000004,None,1539.9085013000004,None,1540.9416515999765,None,1540.9416515999765,None,1,h,,,,,,,,,,,,,,,,,,1_2,001,2021_Feb_23_1341,ComputerHuman,2020.1.3,60.00276013401265,
,,,,Human.xlsx,1,h,,,,,,0,7,7,2,,,,,,,,,,,,,,,,,,,,,,,,,,,,,,,,,,,,,,,,,,,,,,,,,,,,,,,,,,,,,,,,,,,,,,,,,,,,,,,,,,,,,,,,,,,,,,,,,,,,,,,1,h,1541.9182533999847,None,c,0,1.406055200000992,1542.9148299999943,None,None,None,1544.3704213999736,None,"['space', 'space']",1545.3651240999752,None,"[1.2103949000011198, 5.343754900008207]",,,1_2,001,2021_Feb_23_1341,ComputerHuman,2020.1.3,60.00276013401265,
Sychronize.jpg,Number9.jpg,,Computer,Computer.xlsx,1,c,9,,,,,1,0,8,3,0,0,0,6,,,,,,,,,,,,,,,,,,,,,,,,,,,,,,,,,,,,,,,,,,,,,,,,,,,,,,,,,1550.7401860999817,None,1550.7401860999817,None,1553.778777999978,None,1553.778777999978,None,1554.2538797999732,None,1554.2538797999732,None,"['t', 'v']","[8.583679100003792, 8.899440000008326]",1554.2538797999732,None,8.899440000008326,8.583679100003792,9,False,False,False,1566.4752426999912,None,1566.4752426999912,None,1566.4752426999912,None,1566.4752426999912,None,1566.4752426999912,None,1566.4752426999912,None,1566.4752426999912,None,1566.4752426999912,None,1567.49058719998,None,1567.49058719998,None,1,c,,,,,,,,,,,,,,,,,,1_2,001,2021_Feb_23_1341,ComputerHuman,2020.1.3,60.00276013401265,
Sychronize.jpg,Number10.jpg,,Computer,Computer.xlsx,1,c,10,,,,,1,0,8,3,0,1,1,9,,,,,,,,,,,,,,,,,,,,,,,,,,,,,,,,,,,,,,,,,,,,,,,,,,,,,,,,,,,,,1568.5100351999863,None,1568.5100351999863,None,1568.98861629999,None,1568.98861629999,None,"['t', 'v']","[8.612234700005502, 10.708375799993519]",1568.98861629999,None,10.708375799993519,8.612234700005502,10,False,False,False,1581.3245429999952,None,1581.3245429999952,None,1581.3245429999952,None,1581.3245429999952,None,1581.3245429999952,None,1581.3245429999952,None,1581.3245429999952,None,1581.3245429999952,None,1582.345388799993,None,1582.345388799993,None,1,c,,,,,,,,,,,,,,,,,,1_2,001,2021_Feb_23_1341,ComputerHuman,2020.1.3,60.00276013401265,
Sychronize.jpg,Number9.jpg,,Computer,Computer.xlsx,1,c,9,,,,,1,0,8,3,0,2,2,7,,,,,,,,,,,,,,,,,,,,,,,,,,,,,,,,,,,,,,,,,,,,,,,,,,,,,,,,,,,,,1583.3523322999827,None,1583.3523322999827,None,1583.8265094999806,None,1583.8265094999806,None,"['t', 'v']","[9.082643999980064, 10.214768899983028]",1583.8265094999806,None,10.214768899983028,9.082643999980064,9,False,False,False,1597.8322656999808,None,1597.8322656999808,None,1597.8322656999808,None,1597.8322656999808,None,1597.8322656999808,None,1597.8322656999808,None,1597.8322656999808,None,1597.8322656999808,None,1598.8494032999733,None,1598.8494032999733,None,1,c,,,,,,,,,,,,,,,,,,1_2,001,2021_Feb_23_1341,ComputerHuman,2020.1.3,60.00276013401265,
Sychronize.jpg,Number6.jpg,,Computer,Computer.xlsx,1,c,6,,,,,1,0,8,3,0,3,3,1,,,,,,,,,,,,,,,,,,,,,,,,,,,,,,,,,,,,,,,,,,,,,,,,,,,,,,,,,,,,,1599.8662543999963,None,1599.8662543999963,None,1600.3452219999745,None,1600.3452219999745,None,"['v', 't']","[6.096062900003744, 7.390827800001716]",1600.3452219999745,None,6.096062900003744,7.390827800001716,6,False,False,False,1609.5763941999758,None,1609.5763941999758,None,1609.5763941999758,None,1609.5763941999758,None,1609.5763941999758,None,1609.5763941999758,None,1609.5763941999758,None,1609.5763941999758,None,1610.5839411999914,None,1610.5839411999914,None,1,c,,,,,,,,,,,,,,,,,,1_2,001,2021_Feb_23_1341,ComputerHuman,2020.1.3,60.00276013401265,
Sychronize.jpg,Number10.jpg,,Computer,Computer.xlsx,1,c,10,,,,,1,0,8,3,0,4,4,8,,,,,,,,,,,,,,,,,,,,,,,,,,,,,,,,,,,,,,,,,,,,,,,,,,,,,,,,,,,,,1611.6085246999864,None,1611.6085246999864,None,1612.08390529998,None,1612.08390529998,None,"['v', 't']","[9.6214050000126, 10.016295500012347]",1612.08390529998,None,9.6214050000126,10.016295500012347,10,False,False,False,1624.404109199997,None,1624.404109199997,None,1624.404109199997,None,1624.404109199997,None,1624.404109199997,None,1624.404109199997,None,1624.404109199997,None,1624.404109199997,None,1625.4189145999844,None,1625.4189145999844,None,1,c,,,,,,,,,,,,,,,,,,1_2,001,2021_Feb_23_1341,ComputerHuman,2020.1.3,60.00276013401265,
Sychronize.jpg,Number7.jpg,,Computer,Computer.xlsx,1,c,7,,,,,1,0,8,3,0,5,5,2,,,,,,,,,,,,,,,,,,,,,,,,,,,,,,,,,,,,,,,,,,,,,,,,,,,,,,,,,,,,,1626.442534599977,None,1626.442534599977,None,1626.939924699982,None,1626.939924699982,None,"['t', 'v']","[6.644815900013782, 7.013626900006784]",1626.939924699982,None,7.013626900006784,6.644815900013782,7,False,False,False,1637.5605472999741,None,1637.5605472999741,None,1637.5605472999741,None,1637.5605472999741,None,1637.5605472999741,None,1637.5605472999741,None,1637.5605472999741,None,1637.5605472999741,None,1638.5714529999823,None,1638.5714529999823,None,1,c,,,,,,,,,,,,,,,,,,1_2,001,2021_Feb_23_1341,ComputerHuman,2020.1.3,60.00276013401265,
Sychronize.jpg,Number7.jpg,,Computer,Computer.xlsx,1,c,7,,,,,1,0,8,3,0,6,6,3,,,,,,,,,,,,,,,,,,,,,,,,,,,,,,,,,,,,,,,,,,,,,,,,,,,,,,,,,,,,,1639.5905645999883,None,1639.5905645999883,None,1640.0709360999754,None,1640.0709360999754,None,"['v', 't']","[6.9772267999942414, 7.304878199996892]",1640.0709360999754,None,6.9772267999942414,7.304878199996892,7,False,False,False,1648.9712321999832,None,1648.9712321999832,None,1648.9712321999832,None,1648.9712321999832,None,1648.9712321999832,None,1648.9712321999832,None,1648.9712321999832,None,1648.9712321999832,None,1649.974928199983,None,1649.974928199983,None,1,c,,,,,,,,,,,,,,,,,,1_2,001,2021_Feb_23_1341,ComputerHuman,2020.1.3,60.00276013401265,
Sychronize.jpg,Number8.jpg,,Computer,Computer.xlsx,1,c,8,,,,,1,0,8,3,0,7,7,5,,,,,,,,,,,,,,,,,,,,,,,,,,,,,,,,,,,,,,,,,,,,,,,,,,,,,,,,,,,,,1650.998698499985,None,1650.998698499985,None,1651.475299099984,None,1651.475299099984,None,"['t', 'v']","[7.896819199988386, 8.117073799978243]",1651.475299099984,None,8.117073799978243,7.896819199988386,8,False,False,False,1663.3286692999827,None,1663.3286692999827,None,1663.3286692999827,None,1663.3286692999827,None,1663.3286692999827,None,1663.3286692999827,None,1663.3286692999827,None,1663.3286692999827,None,1664.3639282999793,None,1664.3639282999793,None,1,c,,,,,,,,,,,,,,,,,,1_2,001,2021_Feb_23_1341,ComputerHuman,2020.1.3,60.00276013401265,
Sychronize.jpg,Number6.jpg,,Computer,Computer.xlsx,1,c,6,,,,,1,0,8,3,0,8,8,0,,,,,,,,,,,,,,,,,,,,,,,,,,,,,,,,,,,,,,,,,,,,,,,,,,,,,,,,,,,,,1665.3628750999924,None,1665.3628750999924,None,1665.8431818999816,None,1665.8431818999816,None,"['v', 't']","[6.0528129000158515, 8.756725800019922]",1665.8431818999816,None,6.0528129000158515,8.756725800019922,6,False,False,False,1676.6486107999808,None,1676.6486107999808,None,1676.6486107999808,None,1676.6486107999808,None,1676.6486107999808,None,1676.6486107999808,None,1676.6486107999808,None,1676.6486107999808,None,1677.6628523999825,None,1677.6628523999825,None,1,c,,,,,,,,,,,,,,,,,,1_2,001,2021_Feb_23_1341,ComputerHuman,2020.1.3,60.00276013401265,
Sychronize.jpg,Number8.jpg,,Computer,Computer.xlsx,1,c,8,,,,,1,0,8,3,0,9,9,4,,,,,,,,,,,,,,,,,,,,,,,,,,,,,,,,,,,,,,,,,,,,,,,,,,,,,,,,,,,,,1678.682766599988,None,1678.682766599988,None,1679.1611775999772,None,1679.1611775999772,None,"['t', 'v']","[7.978663699992467, 8.186068200011505]",1679.1611775999772,None,8.186068200011505,7.978663699992467,8,False,False,False,1691.1286368999863,None,1691.1286368999863,None,1691.1286368999863,None,1691.1286368999863,None,1691.1286368999863,None,1691.1286368999863,None,1691.1286368999863,None,1691.1286368999863,None,1692.1586575999972,None,1692.1586575999972,None,1,c,,,,,,,,,,,,,,,,,,1_2,001,2021_Feb_23_1341,ComputerHuman,2020.1.3,60.00276013401265,
,,,,Computer.xlsx,1,c,,,,,,1,0,8,3,,,,,,,,,,,,,,,,,,,,,,,,,,,,,,,,,,,,,,,,,,,,,,,,,,,,,,,,,,,,,,,,,,,,,,,,,,,,,,,,,,,,,,,,,,,,,,,,,,,,,,,1,c,1693.1306201999832,None,c,1,0.9037744000088423,1694.1288633999939,None,1695.0715287999774,None,None,None,None,None,None,,,,1_2,001,2021_Feb_23_1341,ComputerHuman,2020.1.3,60.00276013401265,
Sychronize.jpg,Number7.jpg,,Computer,Computer.xlsx,2,c,7,,,,,1,1,9,7,0,0,0,2,,,,,,,,,,,,,,,,,,,,,,,,,,,,,,,,,,,,,,,,,,,,,,,,,,,,,,,,,1700.104919699981,None,1700.104919699981,None,1703.1281954000005,None,1703.1281954000005,None,1703.5992936999828,None,1703.5992936999828,None,"['t', 'v']","[7.153423499985365, 7.197712199995294]",1703.5992936999828,None,7.197712199995294,7.153423499985365,7,False,False,False,1714.7578742999758,None,1714.7578742999758,None,1714.7578742999758,None,1714.7578742999758,None,1714.7578742999758,None,1714.7578742999758,None,1714.7578742999758,None,1714.7578742999758,None,1715.790882899979,None,1715.790882899979,None,2,c,,,,,,,,,,,,,,,,,,1_2,001,2021_Feb_23_1341,ComputerHuman,2020.1.3,60.00276013401265,
Sychronize.jpg,Number9.jpg,,Computer,Computer.xlsx,2,c,9,,,,,1,1,9,7,0,1,1,7,,,,,,,,,,,,,,,,,,,,,,,,,,,,,,,,,,,,,,,,,,,,,,,,,,,,,,,,,,,,,1716.7957739999983,None,1716.7957739999983,None,1717.2888280999905,None,1717.2888280999905,None,"['t', 'v']","[8.564417500019772, 9.324733900022693]",1717.2888280999905,None,9.324733900022693,8.564417500019772,9,False,False,False,1729.7273815999797,None,1729.7273815999797,None,1729.7273815999797,None,1729.7273815999797,None,1729.7273815999797,None,1729.7273815999797,None,1729.7273815999797,None,1729.7273815999797,None,1730.7402477999858,None,1730.7402477999858,None,2,c,,,,,,,,,,,,,,,,,,1_2,001,2021_Feb_23_1341,ComputerHuman,2020.1.3,60.00276013401265,
Sychronize.jpg,Number7.jpg,,Computer,Computer.xlsx,2,c,7,,,,,1,1,9,7,0,2,2,3,,,,,,,,,,,,,,,,,,,,,,,,,,,,,,,,,,,,,,,,,,,,,,,,,,,,,,,,,,,,,1731.7602717999835,None,1731.7602717999835,None,1732.2382488999865,None,1732.2382488999865,None,"['t', 'v']","[7.066428400023142, 8.546850100014126]",1732.2382488999865,None,8.546850100014126,7.066428400023142,7,False,False,False,1743.4837496999826,None,1743.4837496999826,None,1743.4837496999826,None,1743.4837496999826,None,1743.4837496999826,None,1743.4837496999826,None,1743.4837496999826,None,1743.4837496999826,None,1744.513652499998,None,1744.513652499998,None,2,c,,,,,,,,,,,,,,,,,,1_2,001,2021_Feb_23_1341,ComputerHuman,2020.1.3,60.00276013401265,
Sychronize.jpg,Number6.jpg,,Computer,Computer.xlsx,2,c,6,,,,,1,1,9,7,0,3,3,1,,,,,,,,,,,,,,,,,,,,,,,,,,,,,,,,,,,,,,,,,,,,,,,,,,,,,,,,,,,,,1745.5130368999962,None,1745.5130368999962,None,1745.9914377999958,None,1745.9914377999958,None,"['t', 'v']","[6.445412400003988, 7.317819200019585]",1745.9914377999958,None,7.317819200019585,6.445412400003988,6,False,False,False,1757.1200853999762,None,1757.1200853999762,None,1757.1200853999762,None,1757.1200853999762,None,1757.1200853999762,None,1757.1200853999762,None,1757.1200853999762,None,1757.1200853999762,None,1758.1294901999936,None,1758.1294901999936,None,2,c,,,,,,,,,,,,,,,,,,1_2,001,2021_Feb_23_1341,ComputerHuman,2020.1.3,60.00276013401265,
Sychronize.jpg,Number9.jpg,,Computer,Computer.xlsx,2,c,9,,,,,1,1,9,7,0,4,4,6,,,,,,,,,,,,,,,,,,,,,,,,,,,,,,,,,,,,,,,,,,,,,,,,,,,,,,,,,,,,,1759.154345499992,None,1759.154345499992,None,1759.628629999992,None,1759.628629999992,None,"['t', 'v']","[9.856885699991835, 10.124401699984446]",1759.628629999992,None,10.124401699984446,9.856885699991835,9,False,False,False,1773.5357224999752,None,1773.5357224999752,None,1773.5357224999752,None,1773.5357224999752,None,1773.5357224999752,None,1773.5357224999752,None,1773.5357224999752,None,1773.5357224999752,None,1774.5494827999792,None,1774.5494827999792,None,2,c,,,,,,,,,,,,,,,,,,1_2,001,2021_Feb_23_1341,ComputerHuman,2020.1.3,60.00276013401265,
Sychronize.jpg,Number8.jpg,,Computer,Computer.xlsx,2,c,8,,,,,1,1,9,7,0,5,5,5,,,,,,,,,,,,,,,,,,,,,,,,,,,,,,,,,,,,,,,,,,,,,,,,,,,,,,,,,,,,,1775.5744183999777,None,1775.5744183999777,None,1776.0485611999757,None,1776.0485611999757,None,"['t', 'v']","[8.908671799988952, 8.932390900008613]",1776.0485611999757,None,8.932390900008613,8.908671799988952,8,False,False,False,1788.396582299989,None,1788.396582299989,None,1788.396582299989,None,1788.396582299989,None,1788.396582299989,None,1788.396582299989,None,1788.396582299989,None,1788.396582299989,None,1789.402572699997,None,1789.402572699997,None,2,c,,,,,,,,,,,,,,,,,,1_2,001,2021_Feb_23_1341,ComputerHuman,2020.1.3,60.00276013401265,
Sychronize.jpg,Number6.jpg,,Computer,Computer.xlsx,2,c,6,,,,,1,1,9,7,0,6,6,0,,,,,,,,,,,,,,,,,,,,,,,,,,,,,,,,,,,,,,,,,,,,,,,,,,,,,,,,,,,,,1790.4269559999811,None,1790.4269559999811,None,1790.9245299999893,None,1790.9245299999893,None,"['t', 'v']","[5.536568599985912, 7.220435499999439]",1790.9245299999893,None,7.220435499999439,5.536568599985912,6,False,False,False,1802.2787314999732,None,1802.2787314999732,None,1802.2787314999732,None,1802.2787314999732,None,1802.2787314999732,None,1802.2787314999732,None,1802.2787314999732,None,1802.2787314999732,None,1803.289350499981,None,1803.289350499981,None,2,c,,,,,,,,,,,,,,,,,,1_2,001,2021_Feb_23_1341,ComputerHuman,2020.1.3,60.00276013401265,
Sychronize.jpg,Number8.jpg,,Computer,Computer.xlsx,2,c,8,,,,,1,1,9,7,0,7,7,4,,,,,,,,,,,,,,,,,,,,,,,,,,,,,,,,,,,,,,,,,,,,,,,,,,,,,,,,,,,,,1804.308261899976,None,1804.308261899976,None,1804.7864902000001,None,1804.7864902000001,None,"['t', 'v']","[7.4303882000094745, 8.1073722000001]",1804.7864902000001,None,8.1073722000001,7.4303882000094745,8,False,False,False,1816.5179280999873,None,1816.5179280999873,None,1816.5179280999873,None,1816.5179280999873,None,1816.5179280999873,None,1816.5179280999873,None,1816.5179280999873,None,1816.5179280999873,None,1817.5245255999907,None,1817.5245255999907,None,2,c,,,,,,,,,,,,,,,,,,1_2,001,2021_Feb_23_1341,ComputerHuman,2020.1.3,60.00276013401265,
Sychronize.jpg,Number10.jpg,,Computer,Computer.xlsx,2,c,10,,,,,1,1,9,7,0,8,8,8,,,,,,,,,,,,,,,,,,,,,,,,,,,,,,,,,,,,,,,,,,,,,,,,,,,,,,,,,,,,,1818.5445129,None,1818.5445129,None,1819.0226049999765,None,1819.0226049999765,None,"['v', 't']","[9.930329299997538, 10.645210199989378]",1819.0226049999765,None,9.930329299997538,10.645210199989378,10,False,False,False,1831.4923280999938,None,1831.4923280999938,None,1831.4923280999938,None,1831.4923280999938,None,1831.4923280999938,None,1831.4923280999938,None,1831.4923280999938,None,1831.4923280999938,None,1832.494574499986,None,1832.494574499986,None,2,c,,,,,,,,,,,,,,,,,,1_2,001,2021_Feb_23_1341,ComputerHuman,2020.1.3,60.00276013401265,
Sychronize.jpg,Number10.jpg,,Computer,Computer.xlsx,2,c,10,,,,,1,1,9,7,0,9,9,9,,,,,,,,,,,,,,,,,,,,,,,,,,,,,,,,,,,,,,,,,,,,,,,,,,,,,,,,,,,,,1833.5140206999786,None,1833.5140206999786,None,1834.0152225999918,None,1834.0152225999918,None,"['v', 't']","[9.06124730000738, 9.440620900015347]",1834.0152225999918,None,9.06124730000738,9.440620900015347,10,False,False,False,1845.8811890999787,None,1845.8811890999787,None,1845.8811890999787,None,1845.8811890999787,None,1845.8811890999787,None,1845.8811890999787,None,1845.8811890999787,None,1845.8811890999787,None,1846.8982237999735,None,1846.8982237999735,None,2,c,,,,,,,,,,,,,,,,,,1_2,001,2021_Feb_23_1341,ComputerHuman,2020.1.3,60.00276013401265,
,,,,Computer.xlsx,2,c,,,,,,1,1,9,7,,,,,,,,,,,,,,,,,,,,,,,,,,,,,,,,,,,,,,,,,,,,,,,,,,,,,,,,,,,,,,,,,,,,,,,,,,,,,,,,,,,,,,,,,,,,,,,,,,,,,,,2,c,1847.8954694999848,None,h,0,0.9464398999989498,1848.8933876999945,None,1849.8816691999964,None,None,None,None,None,None,,,,1_2,001,2021_Feb_23_1341,ComputerHuman,2020.1.3,60.00276013401265,
Sychronize.jpg,Number9.jpg,,Human,Human.xlsx,2,h,9,,,,,1,2,10,4,0,0,0,7,,,,,,,,,,,,,,,,,,,,,,,,,,,,,,,,,,,,,,,,,,,,,,,,,,,,,,,,,1854.902257699985,None,1854.902257699985,None,1857.9020109999983,None,1857.9020109999983,None,1858.3806635999936,None,1858.3806635999936,None,"['t', 'v']","[8.132293400005437, 9.296482300007483]",1858.3806635999936,None,9.296482300007483,8.132293400005437,9,False,False,False,1870.0653336999821,None,1870.0653336999821,None,1870.0653336999821,None,1870.0653336999821,None,1870.0653336999821,None,1870.0653336999821,None,1870.0653336999821,None,1870.0653336999821,None,1871.0689714999753,None,1871.0689714999753,None,2,h,,,,,,,,,,,,,,,,,,1_2,001,2021_Feb_23_1341,ComputerHuman,2020.1.3,60.00276013401265,
Sychronize.jpg,Number7.jpg,,Human,Human.xlsx,2,h,7,,,,,1,2,10,4,0,1,1,2,,,,,,,,,,,,,,,,,,,,,,,,,,,,,,,,,,,,,,,,,,,,,,,,,,,,,,,,,,,,,1872.087996999995,None,1872.087996999995,None,1872.5683140999754,None,1872.5683140999754,None,"['v', 't']","[6.704205000016373, 7.617962999996962]",1872.5683140999754,None,6.704205000016373,7.617962999996962,7,False,False,False,1881.9686911999888,None,1881.9686911999888,None,1881.9686911999888,None,1881.9686911999888,None,1881.9686911999888,None,1881.9686911999888,None,1881.9686911999888,None,1881.9686911999888,None,1882.9891739999875,None,1882.9891739999875,None,2,h,,,,,,,,,,,,,,,,,,1_2,001,2021_Feb_23_1341,ComputerHuman,2020.1.3,60.00276013401265,
Sychronize.jpg,Number7.jpg,,Human,Human.xlsx,2,h,7,,,,,1,2,10,4,0,2,2,3,,,,,,,,,,,,,,,,,,,,,,,,,,,,,,,,,,,,,,,,,,,,,,,,,,,,,,,,,,,,,1884.0107930999948,None,1884.0107930999948,None,1884.50697029999,None,1884.50697029999,None,"['t', 'v']","[6.4252765999990515, 6.617717199987965]",1884.50697029999,None,6.617717199987965,6.4252765999990515,7,False,False,False,1894.4741847999976,None,1894.4741847999976,None,1894.4741847999976,None,1894.4741847999976,None,1894.4741847999976,None,1894.4741847999976,None,1894.4741847999976,None,1894.4741847999976,None,1895.496911299997,None,1895.496911299997,None,2,h,,,,,,,,,,,,,,,,,,1_2,001,2021_Feb_23_1341,ComputerHuman,2020.1.3,60.00276013401265,
Sychronize.jpg,Number9.jpg,,Human,Human.xlsx,2,h,9,,,,,1,2,10,4,0,3,3,6,,,,,,,,,,,,,,,,,,,,,,,,,,,,,,,,,,,,,,,,,,,,,,,,,,,,,,,,,,,,,1896.5048954999947,None,1896.5048954999947,None,1896.972455399984,None,1896.972455399984,None,"['t', 'v']","[8.388717199995881, 8.742717500019353]",1896.972455399984,None,8.742717500019353,8.388717199995881,9,False,False,False,1909.7309128999768,None,1909.7309128999768,None,1909.7309128999768,None,1909.7309128999768,None,1909.7309128999768,None,1909.7309128999768,None,1909.7309128999768,None,1909.7309128999768,None,1910.7439606999978,None,1910.7439606999978,None,2,h,,,,,,,,,,,,,,,,,,1_2,001,2021_Feb_23_1341,ComputerHuman,2020.1.3,60.00276013401265,
Sychronize.jpg,Number6.jpg,,Human,Human.xlsx,2,h,6,,,,,1,2,10,4,0,4,4,1,,,,,,,,,,,,,,,,,,,,,,,,,,,,,,,,,,,,,,,,,,,,,,,,,,,,,,,,,,,,,1911.7660794999974,None,1911.7660794999974,None,1912.243340599991,None,1912.243340599991,None,"['v', 't']","[5.629504700016696, 5.912613599997712]",1912.243340599991,None,5.629504700016696,5.912613599997712,6,False,False,False,1920.4817717999977,None,1920.4817717999977,None,1920.4817717999977,None,1920.4817717999977,None,1920.4817717999977,None,1920.4817717999977,None,1920.4817717999977,None,1920.4817717999977,None,1921.5194909999846,None,1921.5194909999846,None,2,h,,,,,,,,,,,,,,,,,,1_2,001,2021_Feb_23_1341,ComputerHuman,2020.1.3,60.00276013401265,
Sychronize.jpg,Number8.jpg,,Human,Human.xlsx,2,h,8,,,,,1,2,10,4,0,5,5,5,,,,,,,,,,,,,,,,,,,,,,,,,,,,,,,,,,,,,,,,,,,,,,,,,,,,,,,,,,,,,1922.5196243999817,None,1922.5196243999817,None,1922.9937122999982,None,1922.9937122999982,None,"['t', 'v']","[7.691048299981048, 7.706769499985967]",1922.9937122999982,None,7.706769499985967,7.691048299981048,8,False,False,False,1935.0066164999735,None,1935.0066164999735,None,1935.0066164999735,None,1935.0066164999735,None,1935.0066164999735,None,1935.0066164999735,None,1935.0066164999735,None,1935.0066164999735,None,1936.038852699974,None,1936.038852699974,None,2,h,,,,,,,,,,,,,,,,,,1_2,001,2021_Feb_23_1341,ComputerHuman,2020.1.3,60.00276013401265,
Sychronize.jpg,Number10.jpg,,Human,Human.xlsx,2,h,10,,,,,1,2,10,4,0,6,6,9,,,,,,,,,,,,,,,,,,,,,,,,,,,,,,,,,,,,,,,,,,,,,,,,,,,,,,,,,,,,,1937.0352049999929,None,1937.0352049999929,None,1937.5149278999888,None,1937.5149278999888,None,"['v', 't']","[7.713129299983848, 10.524601199984318]",1937.5149278999888,None,7.713129299983848,10.524601199984318,10,False,False,False,1950.0740285999782,None,1950.0740285999782,None,1950.0740285999782,None,1950.0740285999782,None,1950.0740285999782,None,1950.0740285999782,None,1950.0740285999782,None,1950.0740285999782,None,1951.0850184999872,None,1951.0850184999872,None,2,h,,,,,,,,,,,,,,,,,,1_2,001,2021_Feb_23_1341,ComputerHuman,2020.1.3,60.00276013401265,
Sychronize.jpg,Number6.jpg,,Human,Human.xlsx,2,h,6,,,,,1,2,10,4,0,7,7,0,,,,,,,,,,,,,,,,,,,,,,,,,,,,,,,,,,,,,,,,,,,,,,,,,,,,,,,,,,,,,1952.1047631999827,None,1952.1047631999827,None,1952.5829583999875,None,1952.5829583999875,None,"['v', 't']","[6.124682299996493, 6.236855600000126]",1952.5829583999875,None,6.124682299996493,6.236855600000126,6,False,False,False,1960.8058304999722,None,1960.8058304999722,None,1960.8058304999722,None,1960.8058304999722,None,1960.8058304999722,None,1960.8058304999722,None,1960.8058304999722,None,1960.8058304999722,None,1961.8200758999737,None,1961.8200758999737,None,2,h,,,,,,,,,,,,,,,,,,1_2,001,2021_Feb_23_1341,ComputerHuman,2020.1.3,60.00276013401265,
Sychronize.jpg,Number10.jpg,,Human,Human.xlsx,2,h,10,,,,,1,2,10,4,0,8,8,8,,,,,,,,,,,,,,,,,,,,,,,,,,,,,,,,,,,,,,,,,,,,,,,,,,,,,,,,,,,,,1962.8399605999875,None,1962.8399605999875,None,1963.3437049999775,None,1963.3437049999775,None,"['v', 't']","[9.231745899975067, 10.27211379999062]",1963.3437049999775,None,9.231745899975067,10.27211379999062,10,False,False,False,1975.8605944999726,None,1975.8605944999726,None,1975.8605944999726,None,1975.8605944999726,None,1975.8605944999726,None,1975.8605944999726,None,1975.8605944999726,None,1975.8605944999726,None,1976.8588132000004,None,1976.8588132000004,None,2,h,,,,,,,,,,,,,,,,,,1_2,001,2021_Feb_23_1341,ComputerHuman,2020.1.3,60.00276013401265,
Sychronize.jpg,Number8.jpg,,Human,Human.xlsx,2,h,8,,,,,1,2,10,4,0,9,9,4,,,,,,,,,,,,,,,,,,,,,,,,,,,,,,,,,,,,,,,,,,,,,,,,,,,,,,,,,,,,,1977.876263299986,None,1977.876263299986,None,1978.3598684999743,None,1978.3598684999743,None,"['v', 't']","[7.221135200001299, 7.395770600007381]",1978.3598684999743,None,7.221135200001299,7.395770600007381,8,False,False,False,1987.6234419999819,None,1987.6234419999819,None,1987.6234419999819,None,1987.6234419999819,None,1987.6234419999819,None,1987.6234419999819,None,1987.6234419999819,None,1987.6234419999819,None,1988.6657159999886,None,1988.6657159999886,None,2,h,,,,,,,,,,,,,,,,,,1_2,001,2021_Feb_23_1341,ComputerHuman,2020.1.3,60.00276013401265,
,,,,Human.xlsx,2,h,,,,,,1,2,10,4,,,,,,,,,,,,,,,,,,,,,,,,,,,,,,,,,,,,,,,,,,,,,,,,,,,,,,,,,,,,,,,,,,,,,,,,,,,,,,,,,,,,,,,,,,,,,,,,,,,,,,,2,h,1989.6271142999758,None,h,1,0.6070750000071712,1990.6221833999734,None,1991.2786866999813,None,None,None,None,None,None,,,,1_2,001,2021_Feb_23_1341,ComputerHuman,2020.1.3,60.00276013401265,
Sychronize.jpg,Number9.jpg,,Computer,Computer.xlsx,1,c,9,,,,,1,3,11,1,0,0,0,6,,,,,,,,,,,,,,,,,,,,,,,,,,,,,,,,,,,,,,,,,,,,,,,,,,,,,,,,,1996.2783520999947,None,1996.2783520999947,None,1999.314814799989,None,1999.314814799989,None,1999.795745099982,None,1999.795745099982,None,"['v', 't']","[7.984568699990632, 9.28421729998081]",1999.795745099982,None,7.984568699990632,9.28421729998081,9,False,False,False,2011.308090299979,None,2011.308090299979,None,2011.308090299979,None,2011.308090299979,None,2011.308090299979,None,2011.308090299979,None,2011.308090299979,None,2011.308090299979,None,2012.3148730999965,None,2012.3148730999965,None,1,c,,,,,,,,,,,,,,,,,,1_2,001,2021_Feb_23_1341,ComputerHuman,2020.1.3,60.00276013401265,
Sychronize.jpg,Number10.jpg,,Computer,Computer.xlsx,1,c,10,,,,,1,3,11,1,0,1,1,8,,,,,,,,,,,,,,,,,,,,,,,,,,,,,,,,,,,,,,,,,,,,,,,,,,,,,,,,,,,,,2013.334035399981,None,2013.334035399981,None,2013.8121464999858,None,2013.8121464999858,None,"['t', 'v']","[9.649140299996361, 9.884771499986527]",2013.8121464999858,None,9.884771499986527,9.649140299996361,10,False,False,False,2027.0591561999754,None,2027.0591561999754,None,2027.0591561999754,None,2027.0591561999754,None,2027.0591561999754,None,2027.0591561999754,None,2027.0591561999754,None,2027.0591561999754,None,2028.0674715999921,None,2028.0674715999921,None,1,c,,,,,,,,,,,,,,,,,,1_2,001,2021_Feb_23_1341,ComputerHuman,2020.1.3,60.00276013401265,
Sychronize.jpg,Number10.jpg,,Computer,Computer.xlsx,1,c,10,,,,,1,3,11,1,0,2,2,9,,,,,,,,,,,,,,,,,,,,,,,,,,,,,,,,,,,,,,,,,,,,,,,,,,,,,,,,,,,,,2029.0893103999842,None,2029.0893103999842,None,2029.5668512999837,None,2029.5668512999837,None,"['t', 'v']","[9.826264200004516, 10.076916699996218]",2029.5668512999837,None,10.076916699996218,9.826264200004516,10,False,False,False,2043.4559842999734,None,2043.4559842999734,None,2043.4559842999734,None,2043.4559842999734,None,2043.4559842999734,None,2043.4559842999734,None,2043.4559842999734,None,2043.4559842999734,None,2044.4715999999898,None,2044.4715999999898,None,1,c,,,,,,,,,,,,,,,,,,1_2,001,2021_Feb_23_1341,ComputerHuman,2020.1.3,60.00276013401265,
Sychronize.jpg,Number8.jpg,,Computer,Computer.xlsx,1,c,8,,,,,1,3,11,1,0,3,3,5,,,,,,,,,,,,,,,,,,,,,,,,,,,,,,,,,,,,,,,,,,,,,,,,,,,,,,,,,,,,,2045.5012448999914,None,2045.5012448999914,None,2045.9702609999804,None,2045.9702609999804,None,"['t', 'v']","[6.5547688999795355, 8.5173669999931]",2045.9702609999804,None,8.5173669999931,6.5547688999795355,8,False,False,False,2056.842461299995,None,2056.842461299995,None,2056.842461299995,None,2056.842461299995,None,2056.842461299995,None,2056.842461299995,None,2056.842461299995,None,2056.842461299995,None,2057.8571953999926,None,2057.8571953999926,None,1,c,,,,,,,,,,,,,,,,,,1_2,001,2021_Feb_23_1341,ComputerHuman,2020.1.3,60.00276013401265,
Sychronize.jpg,Number8.jpg,,Computer,Computer.xlsx,1,c,8,,,,,1,3,11,1,0,4,4,4,,,,,,,,,,,,,,,,,,,,,,,,,,,,,,,,,,,,,,,,,,,,,,,,,,,,,,,,,,,,,2058.8760156999924,None,2058.8760156999924,None,2059.376354399981,None,2059.376354399981,None,"['t', 'v']","[7.100820499996189, 7.78083040000638]",2059.376354399981,None,7.78083040000638,7.100820499996189,8,False,False,False,2070.3558934999746,None,2070.3558934999746,None,2070.3558934999746,None,2070.3558934999746,None,2070.3558934999746,None,2070.3558934999746,None,2070.3558934999746,None,2070.3558934999746,None,2071.3597436999844,None,2071.3597436999844,None,1,c,,,,,,,,,,,,,,,,,,1_2,001,2021_Feb_23_1341,ComputerHuman,2020.1.3,60.00276013401265,
Sychronize.jpg,Number9.jpg,,Computer,Computer.xlsx,1,c,9,,,,,1,3,11,1,0,5,5,7,,,,,,,,,,,,,,,,,,,,,,,,,,,,,,,,,,,,,,,,,,,,,,,,,,,,,,,,,,,,,2072.379510399973,None,2072.379510399973,None,2072.8590689999983,None,2072.8590689999983,None,"['v', 't']","[8.70817589998478, 8.972579099994618]",2072.8590689999983,None,8.70817589998478,8.972579099994618,9,False,False,False,2083.985107399989,None,2083.985107399989,None,2083.985107399989,None,2083.985107399989,None,2083.985107399989,None,2083.985107399989,None,2083.985107399989,None,2083.985107399989,None,2085.0154998999787,None,2085.0154998999787,None,1,c,,,,,,,,,,,,,,,,,,1_2,001,2021_Feb_23_1341,ComputerHuman,2020.1.3,60.00276013401265,
Sychronize.jpg,Number6.jpg,,Computer,Computer.xlsx,1,c,6,,,,,1,3,11,1,0,6,6,1,,,,,,,,,,,,,,,,,,,,,,,,,,,,,,,,,,,,,,,,,,,,,,,,,,,,,,,,,,,,,2086.0148284999887,None,2086.0148284999887,None,2086.4952729999786,None,2086.4952729999786,None,"['v', 't']","[5.4960250000003725, 6.020289899985073]",2086.4952729999786,None,5.4960250000003725,6.020289899985073,6,False,False,False,2095.015500199981,None,2095.015500199981,None,2095.015500199981,None,2095.015500199981,None,2095.015500199981,None,2095.015500199981,None,2095.015500199981,None,2095.015500199981,None,2096.0506781000004,None,2096.0506781000004,None,1,c,,,,,,,,,,,,,,,,,,1_2,001,2021_Feb_23_1341,ComputerHuman,2020.1.3,60.00276013401265,
Sychronize.jpg,Number7.jpg,,Computer,Computer.xlsx,1,c,7,,,,,1,3,11,1,0,7,7,2,,,,,,,,,,,,,,,,,,,,,,,,,,,,,,,,,,,,,,,,,,,,,,,,,,,,,,,,,,,,,2097.0560911999783,None,2097.0560911999783,None,2097.5291620999924,None,2097.5291620999924,None,"['v', 't']","[6.179866299993591, 6.582572999992408]",2097.5291620999924,None,6.179866299993591,6.582572999992408,7,False,False,False,2106.053236399981,None,2106.053236399981,None,2106.053236399981,None,2106.053236399981,None,2106.053236399981,None,2106.053236399981,None,2106.053236399981,None,2106.053236399981,None,2107.066687899991,None,2107.066687899991,None,1,c,,,,,,,,,,,,,,,,,,1_2,001,2021_Feb_23_1341,ComputerHuman,2020.1.3,60.00276013401265,
Sychronize.jpg,Number7.jpg,,Computer,Computer.xlsx,1,c,7,,,,,1,3,11,1,0,8,8,3,,,,,,,,,,,,,,,,,,,,,,,,,,,,,,,,,,,,,,,,,,,,,,,,,,,,,,,,,,,,,2108.0890214999963,None,2108.0890214999963,None,2108.566074799979,None,2108.566074799979,None,"['v', 't']","[7.522830699977931, 7.593752499989932]",2108.566074799979,None,7.522830699977931,7.593752499989932,7,False,False,False,2117.825734199985,None,2117.825734199985,None,2117.825734199985,None,2117.825734199985,None,2117.825734199985,None,2117.825734199985,None,2117.825734199985,None,2117.825734199985,None,2118.835786699987,None,2118.835786699987,None,1,c,,,,,,,,,,,,,,,,,,1_2,001,2021_Feb_23_1341,ComputerHuman,2020.1.3,60.00276013401265,
Sychronize.jpg,Number6.jpg,,Computer,Computer.xlsx,1,c,6,,,,,1,3,11,1,0,9,9,0,,,,,,,,,,,,,,,,,,,,,,,,,,,,,,,,,,,,,,,,,,,,,,,,,,,,,,,,,,,,,2119.86172049999,None,2119.86172049999,None,2120.3358351999777,None,2120.3358351999777,None,"['t', 'v']","[5.677321299997857, 6.133007700002054]",2120.3358351999777,None,6.133007700002054,5.677321299997857,6,False,False,False,2129.3029305999808,None,2129.3029305999808,None,2129.3029305999808,None,2129.3029305999808,None,2129.3029305999808,None,2129.3029305999808,None,2129.3029305999808,None,2129.3029305999808,None,2130.3214440999727,None,2130.3214440999727,None,1,c,,,,,,,,,,,,,,,,,,1_2,001,2021_Feb_23_1341,ComputerHuman,2020.1.3,60.00276013401265,
,,,,Computer.xlsx,1,c,,,,,,1,3,11,1,,,,,,,,,,,,,,,,,,,,,,,,,,,,,,,,,,,,,,,,,,,,,,,,,,,,,,,,,,,,,,,,,,,,,,,,,,,,,,,,,,,,,,,,,,,,,,,,,,,,,,,1,c,2131.3210778999783,None,c,1,4.258893899997929,2132.3179397999775,None,None,None,2136.603851199994,None,"['space', 'space']",2137.601771299989,None,"[1.2694687999901362, 2.9028489000047557]",,,1_2,001,2021_Feb_23_1341,ComputerHuman,2020.1.3,60.00276013401265,
Sychronize.jpg,Number9.jpg,,Human,Human.xlsx,1,h,9,,,,,1,4,12,2,0,0,0,7,,,,,,,,,,,,,,,,,,,,,,,,,,,,,,,,,,,,,,,,,,,,,,,,,,,,,,,,,2140.5394795999746,None,2140.5394795999746,None,2143.5795736,None,2143.5795736,None,2144.05662269998,None,2144.05662269998,None,"['v', 't']","[6.644502899987856, 8.447040500002913]",2144.05662269998,None,6.644502899987856,8.447040500002913,9,False,False,False,2154.9949771999964,None,2154.9949771999964,None,2154.9949771999964,None,2154.9949771999964,None,2154.9949771999964,None,2154.9949771999964,None,2154.9949771999964,None,2154.9949771999964,None,2156.0101713999757,None,2156.0101713999757,None,1,h,,,,,,,,,,,,,,,,,,1_2,001,2021_Feb_23_1341,ComputerHuman,2020.1.3,60.00276013401265,
Sychronize.jpg,Number8.jpg,,Human,Human.xlsx,1,h,8,,,,,1,4,12,2,0,1,1,4,,,,,,,,,,,,,,,,,,,,,,,,,,,,,,,,,,,,,,,,,,,,,,,,,,,,,,,,,,,,,2157.029195899988,None,2157.029195899988,None,2157.509272999974,None,2157.509272999974,None,"['t', 'v']","[7.371755900006974, 7.619045200000983]",2157.509272999974,None,7.619045200000983,7.371755900006974,8,False,False,False,2168.4780991000007,None,2168.4780991000007,None,2168.4780991000007,None,2168.4780991000007,None,2168.4780991000007,None,2168.4780991000007,None,2168.4780991000007,None,2168.4780991000007,None,2169.4789943999785,None,2169.4789943999785,None,1,h,,,,,,,,,,,,,,,,,,1_2,001,2021_Feb_23_1341,ComputerHuman,2020.1.3,60.00276013401265,
Sychronize.jpg,Number10.jpg,,Human,Human.xlsx,1,h,10,,,,,1,4,12,2,0,2,2,9,,,,,,,,,,,,,,,,,,,,,,,,,,,,,,,,,,,,,,,,,,,,,,,,,,,,,,,,,,,,,2170.4987584999762,None,2170.4987584999762,None,2170.977368699998,None,2170.977368699998,None,"['v', 't']","[8.692898299981607, 10.19046710000839]",2170.977368699998,None,8.692898299981607,10.19046710000839,10,False,False,False,2183.368792299996,None,2183.368792299996,None,2183.368792299996,None,2183.368792299996,None,2183.368792299996,None,2183.368792299996,None,2183.368792299996,None,2183.368792299996,None,2184.3825325999933,None,2184.3825325999933,None,1,h,,,,,,,,,,,,,,,,,,1_2,001,2021_Feb_23_1341,ComputerHuman,2020.1.3,60.00276013401265,
Sychronize.jpg,Number6.jpg,,Human,Human.xlsx,1,h,6,,,,,1,4,12,2,0,3,3,1,,,,,,,,,,,,,,,,,,,,,,,,,,,,,,,,,,,,,,,,,,,,,,,,,,,,,,,,,,,,,2185.4022205999936,None,2185.4022205999936,None,2185.882079199975,None,2185.882079199975,None,"['t', 'v']","[5.667741899989778, 6.694538899988402]",2185.882079199975,None,6.694538899988402,5.667741899989778,6,False,False,False,2194.883458299999,None,2194.883458299999,None,2194.883458299999,None,2194.883458299999,None,2194.883458299999,None,2194.883458299999,None,2194.883458299999,None,2194.883458299999,None,2195.8851047999924,None,2195.8851047999924,None,1,h,,,,,,,,,,,,,,,,,,1_2,001,2021_Feb_23_1341,ComputerHuman,2020.1.3,60.00276013401265,
Sychronize.jpg,Number7.jpg,,Human,Human.xlsx,1,h,7,,,,,1,4,12,2,0,4,4,2,,,,,,,,,,,,,,,,,,,,,,,,,,,,,,,,,,,,,,,,,,,,,,,,,,,,,,,,,,,,,2196.9046124999877,None,2196.9046124999877,None,2197.3845862999733,None,2197.3845862999733,None,"['t', 'v']","[6.368011999991722, 6.888516299979528]",2197.3845862999733,None,6.888516299979528,6.368011999991722,7,False,False,False,2208.371530299977,None,2208.371530299977,None,2208.371530299977,None,2208.371530299977,None,2208.371530299977,None,2208.371530299977,None,2208.371530299977,None,2208.371530299977,None,2209.387613799976,None,2209.387613799976,None,1,h,,,,,,,,,,,,,,,,,,1_2,001,2021_Feb_23_1341,ComputerHuman,2020.1.3,60.00276013401265,
Sychronize.jpg,Number7.jpg,,Human,Human.xlsx,1,h,7,,,,,1,4,12,2,0,5,5,3,,,,,,,,,,,,,,,,,,,,,,,,,,,,,,,,,,,,,,,,,,,,,,,,,,,,,,,,,,,,,2210.41026959999,None,2210.41026959999,None,2210.88562809999,None,2210.88562809999,None,"['t', 'v']","[6.2735510999918915, 6.8713797999953385]",2210.88562809999,None,6.8713797999953385,6.2735510999918915,7,False,False,False,2221.199193699984,None,2221.199193699984,None,2221.199193699984,None,2221.199193699984,None,2221.199193699984,None,2221.199193699984,None,2221.199193699984,None,2221.199193699984,None,2222.2069740000006,None,2222.2069740000006,None,1,h,,,,,,,,,,,,,,,,,,1_2,001,2021_Feb_23_1341,ComputerHuman,2020.1.3,60.00276013401265,
Sychronize.jpg,Number8.jpg,,Human,Human.xlsx,1,h,8,,,,,1,4,12,2,0,6,6,5,,,,,,,,,,,,,,,,,,,,,,,,,,,,,,,,,,,,,,,,,,,,,,,,,,,,,,,,,,,,,2223.2320507999975,None,2223.2320507999975,None,2223.706059899996,None,2223.706059899996,None,"['v', 't']","[7.421312999998918, 9.193722500000149]",2223.706059899996,None,7.421312999998918,9.193722500000149,8,False,False,False,2235.261744699994,None,2235.261744699994,None,2235.261744699994,None,2235.261744699994,None,2235.261744699994,None,2235.261744699994,None,2235.261744699994,None,2235.261744699994,None,2236.277247799997,None,2236.277247799997,None,1,h,,,,,,,,,,,,,,,,,,1_2,001,2021_Feb_23_1341,ComputerHuman,2020.1.3,60.00276013401265,
Sychronize.jpg,Number6.jpg,,Human,Human.xlsx,1,h,6,,,,,1,4,12,2,0,7,7,0,,,,,,,,,,,,,,,,,,,,,,,,,,,,,,,,,,,,,,,,,,,,,,,,,,,,,,,,,,,,,2237.296229199972,None,2237.296229199972,None,2237.775394199998,None,2237.775394199998,None,"['t', 'v']","[5.985183100012364, 6.355958500003908]",2237.775394199998,None,6.355958500003908,5.985183100012364,6,False,False,False,2248.0702782999724,None,2248.0702782999724,None,2248.0702782999724,None,2248.0702782999724,None,2248.0702782999724,None,2248.0702782999724,None,2248.0702782999724,None,2248.0702782999724,None,2249.079162399983,None,2249.079162399983,None,1,h,,,,,,,,,,,,,,,,,,1_2,001,2021_Feb_23_1341,ComputerHuman,2020.1.3,60.00276013401265,
