Sychronize,NumberImage,NumberPr,Partner,Condition,TuringResponsePlayer,CorrectTuringReply,Number,trials.thisRepN,trials.thisTrialN,trials.thisN,trials.thisIndex,Block.thisRepN,Block.thisTrialN,Block.thisN,Block.thisIndex,trials_loop.thisRepN,trials_loop.thisTrialN,trials_loop.thisN,trials_loop.thisIndex,textLeft.started,textLeft.stopped,textRight.started,textRight.stopped,key_resp_Istr.keys,key_resp_Istr.rt,key_resp_Istr.started,key_resp_Istr.stopped,SychroLeftPr.started,SychroLeftPr.stopped,SychroRightPr.started,SychroRightPr.stopped,NumberLeftPr.started,NumberLeftPr.stopped,NumberRightPr.started,NumberRightPr.stopped,CrossLeftPr.started,CrossLeftPr.stopped,CrossRightPr.started,CrossRightPr.stopped,key_respPr.keys,key_respPr.rt,key_respPr.started,key_respPr.stopped,RTLeftPr,RTRightPr,CompPr,SychronizedRTsPr,SychronizedRTsLeftCPr,SychronizedRTsRightCPr,FeedbackLeftLeftPr.started,FeedbackLeftLeftPr.stopped,FeedbackLeftRightPr.started,FeedbackLeftRightPr.stopped,FeedbackRightLeftPr.started,FeedbackRightLeftPr.stopped,FeedbackRightRightPr.started,FeedbackRightRightPr.stopped,textLeftLeftPr.started,textLeftLeftPr.stopped,textLeftRightPr.started,textLeftRightPr.stopped,textRightLeftPr.started,textRightLeftPr.stopped,textRightRightPr.started,textRightRightPr.stopped,CreditLeftPr.started,CreditLeftPr.stopped,CreditRightPr.started,CreditRightPr.stopped,text_StartExp.started,text_StartExp.stopped,key_startExp.keys,key_startExp.rt,key_startExp.started,key_startExp.stopped,SychroLeft.started,SychroLeft.stopped,SychroRight.started,SychroRight.stopped,NumberLeft.started,NumberLeft.stopped,NumberRight.started,NumberRight.stopped,CrossLeft.started,CrossLeft.stopped,CrossRight.started,CrossRight.stopped,key_resp.keys,key_resp.rt,key_resp.started,key_resp.stopped,RTLeft,RTRight,Comp,SychronizedRTs,SychronizedRTsLeftC,SychronizedRTsRightC,FeedbackLeftLeft.started,FeedbackLeftLeft.stopped,FeedbackLeftRight.started,FeedbackLeftRight.stopped,FeedbackRightLeft.started,FeedbackRightLeft.stopped,FeedbackRightRight.started,FeedbackRightRight.stopped,textLeftLeft.started,textLeftLeft.stopped,textLeftRight.started,textLeftRight.stopped,textRightLeft.started,textRightLeft.stopped,textRightRight.started,textRightRight.stopped,CreditLeft.started,CreditLeft.stopped,CreditRight.started,CreditRight.stopped,TuringResponsePlayer,CorrectTuringReply,Turingtext.started,Turingtext.stopped,key_resp_2.keys,key_resp_2.corr,key_resp_2.rt,key_resp_2.started,key_resp_2.stopped,BlockText.started,BlockText.stopped,text_Pause.started,text_Pause.stopped,key_respPause.keys,key_respPause.started,key_respPause.stopped,key_respPause.rt,EndText.started,EndText.stopped,participant,session,date,expName,psychopyVersion,frameRate,
,,,,,,,,,,,,,,,,,,,,14.326763400022173,None,14.326763400022173,None,"['t', 'v']","[534.511799800006, 566.8233362000028]",15.27251619999879,None,,,,,,,,,,,,,,,,,,,,,,,,,,,,,,,,,,,,,,,,,,,,,,,,,,,,,,,,,,,,,,,,,,,,,,,,,,,,,,,,,,,,,,,,,,,,,,,,,,,,,,,,,,,,,,3_4,001,2021_Feb_23_1625,ComputerHuman,2020.1.3,59.87256722642098,
Sychronize.jpg,Number8.jpg,8,Computer,,,,,0,0,0,2,,,,,,,,,,,,,,,,,582.1526846000052,None,582.1526846000052,None,585.1927920000162,None,585.1927920000162,None,585.6675963000162,None,585.6675963000162,None,"['v', 't']","[4.396172300010221, 7.016298400005326]",585.6675963000162,None,4.396172300010221,7.016298400005326,8,False,False,False,594.9907087000029,None,594.9907087000029,None,594.9907087000029,None,594.9907087000029,None,594.9907087000029,None,594.9907087000029,None,594.9907087000029,None,594.9907087000029,None,596.0104900000151,None,596.0104900000151,None,,,,,,,,,,,,,,,,,,,,,,,,,,,,,,,,,,,,,,,,,,,,,,,,,,,,,,,,,,,,,,,,,,,,3_4,001,2021_Feb_23_1625,ComputerHuman,2020.1.3,59.87256722642098,
Sychronize.jpg,Number6.jpg,6,Human,,,,,0,1,1,0,,,,,,,,,,,,,,,,,,,,,597.0134591000096,None,597.0134591000096,None,597.5280588000023,None,597.5280588000023,None,"['v', 't']","[2.9471981000097003, 5.651701599999797]",597.5280588000023,None,2.9471981000097003,5.651701599999797,6,False,False,False,604.7349942000001,None,604.7349942000001,None,604.7349942000001,None,604.7349942000001,None,604.7349942000001,None,604.7349942000001,None,604.7349942000001,None,604.7349942000001,None,605.7450724999944,None,605.7450724999944,None,,,,,,,,,,,,,,,,,,,,,,,,,,,,,,,,,,,,,,,,,,,,,,,,,,,,,,,,,,,,,,,,,,,,3_4,001,2021_Feb_23_1625,ComputerHuman,2020.1.3,59.87256722642098,
Sychronize.jpg,Number9.jpg,9,Human,,,,,0,2,2,3,,,,,,,,,,,,,,,,,,,,,606.7655116000096,None,606.7655116000096,None,607.2430892999982,None,607.2430892999982,None,"['v', 't']","[5.61279270000523, 5.804669200006174]",607.2430892999982,None,5.61279270000523,5.804669200006174,9,False,False,False,614.671032400016,None,614.671032400016,None,614.671032400016,None,614.671032400016,None,614.671032400016,None,614.671032400016,None,614.671032400016,None,614.671032400016,None,615.6999194000091,None,615.6999194000091,None,,,,,,,,,,,,,,,,,,,,,,,,,,,,,,,,,,,,,,,,,,,,,,,,,,,,,,,,,,,,,,,,,,,,3_4,001,2021_Feb_23_1625,ComputerHuman,2020.1.3,59.87256722642098,
Sychronize.jpg,Number7.jpg,7,Computer,,,,,0,3,3,1,,,,,,,,,,,,,,,,,,,,,616.699810399994,None,616.699810399994,None,617.1990984000149,None,617.1990984000149,None,"['t', 'v']","[4.632880299992394, 4.964632499992149]",617.1990984000149,None,4.964632499992149,4.632880299992394,7,False,False,False,625.2889880000148,None,625.2889880000148,None,625.2889880000148,None,625.2889880000148,None,625.2889880000148,None,625.2889880000148,None,625.2889880000148,None,625.2889880000148,None,626.2991768000065,None,626.2991768000065,None,,,,,,,,,,,,,,,,,,,,,,,,,,,,,,,,,,,,,,,,,,,,,,,,,,,,,,,,,,,,,,,,,,,,3_4,001,2021_Feb_23_1625,ComputerHuman,2020.1.3,59.87256722642098,
Sychronize.jpg,Number6.jpg,6,Human,,,,,0,4,4,5,,,,,,,,,,,,,,,,,,,,,627.3190469999972,None,627.3190469999972,None,627.8180382999999,None,627.8180382999999,None,"['t', 'v']","[4.281883299991023, 4.681893400003901]",627.8180382999999,None,4.681893400003901,4.281883299991023,6,False,False,False,636.7560293000133,None,636.7560293000133,None,636.7560293000133,None,636.7560293000133,None,636.7560293000133,None,636.7560293000133,None,636.7560293000133,None,636.7560293000133,None,637.7682921999949,None,637.7682921999949,None,,,,,,,,,,,,,,,,,,,,,,,,,,,,,,,,,,,,,,,,,,,,,,,,,,,,,,,,,,,,,,,,,,,,3_4,001,2021_Feb_23_1625,ComputerHuman,2020.1.3,59.87256722642098,
Sychronize.jpg,Number10.jpg,10,Computer,,,,,0,5,5,4,,,,,,,,,,,,,,,,,,,,,638.7884950000152,None,638.7884950000152,None,639.2871342000144,None,639.2871342000144,None,"['t', 'v']","[7.1767519999993965, 7.416809199989075]",639.2871342000144,None,7.416809199989075,7.1767519999993965,10,False,False,False,650.2683575999981,None,650.2683575999981,None,650.2683575999981,None,650.2683575999981,None,650.2683575999981,None,650.2683575999981,None,650.2683575999981,None,650.2683575999981,None,651.2876538000128,None,651.2876538000128,None,,,,,,,,,,,,,,,,,,,,,,,,,,,,,,,,,,,,,,,,,,,,,,,,,,,,,,,,,,,,,,,,,,,,3_4,001,2021_Feb_23_1625,ComputerHuman,2020.1.3,59.87256722642098,
,,,,,,,,,,,,,,,,,,,,,,,,,,,,,,,,,,,,,,,,,,,,,,,,,,,,,,,,,,,,,,,,,,,,,,652.2689600000158,None,"['space', 'space']","[1.3097406999731902, 4.84167689998867]",653.2501245000167,None,,,,,,,,,,,,,,,,,,,,,,,,,,,,,,,,,,,,,,,,,,,,,,,,,,,,,,,,,,,,,,3_4,001,2021_Feb_23_1625,ComputerHuman,2020.1.3,59.87256722642098,
Sychronize.jpg,Number6.jpg,,Human,Human.xlsx,1,h,6,,,,,0,0,0,0,0,0,0,1,,,,,,,,,,,,,,,,,,,,,,,,,,,,,,,,,,,,,,,,,,,,,,,,,,,,,,,,,658.1424389000167,None,658.1424389000167,None,661.1590959000168,None,661.1590959000168,None,661.6374438000203,None,661.6374438000203,None,"['t', 'v']","[4.118604000017513, 4.386312300019199]",661.6374438000203,None,4.386312300019199,4.118604000017513,6,False,False,False,670.4611623999954,None,670.4611623999954,None,670.4611623999954,None,670.4611623999954,None,670.4611623999954,None,670.4611623999954,None,670.4611623999954,None,670.4611623999954,None,671.4944801999955,None,671.4944801999955,None,1,h,,,,,,,,,,,,,,,,,,3_4,001,2021_Feb_23_1625,ComputerHuman,2020.1.3,59.87256722642098,
Sychronize.jpg,Number8.jpg,,Human,Human.xlsx,1,h,8,,,,,0,0,0,0,0,1,1,4,,,,,,,,,,,,,,,,,,,,,,,,,,,,,,,,,,,,,,,,,,,,,,,,,,,,,,,,,,,,,672.4955801000178,None,672.4955801000178,None,672.9934798000031,None,672.9934798000031,None,"['t', 'v']","[5.781798500014702, 5.81439230000251]",672.9934798000031,None,5.81439230000251,5.781798500014702,8,False,False,False,682.9584472000133,None,682.9584472000133,None,682.9584472000133,None,682.9584472000133,None,682.9584472000133,None,682.9584472000133,None,682.9584472000133,None,682.9584472000133,None,683.9841670000169,None,683.9841670000169,None,1,h,,,,,,,,,,,,,,,,,,3_4,001,2021_Feb_23_1625,ComputerHuman,2020.1.3,59.87256722642098,
Sychronize.jpg,Number9.jpg,,Human,Human.xlsx,1,h,9,,,,,0,0,0,0,0,2,2,6,,,,,,,,,,,,,,,,,,,,,,,,,,,,,,,,,,,,,,,,,,,,,,,,,,,,,,,,,,,,,684.9863457000174,None,684.9863457000174,None,685.4609278000135,None,685.4609278000135,None,"['t', 'v']","[6.510522800002946, 7.59610550000798]",685.4609278000135,None,7.59610550000798,6.510522800002946,9,False,False,False,696.4739548000216,None,696.4739548000216,None,696.4739548000216,None,696.4739548000216,None,696.4739548000216,None,696.4739548000216,None,696.4739548000216,None,696.4739548000216,None,697.4805662000144,None,697.4805662000144,None,1,h,,,,,,,,,,,,,,,,,,3_4,001,2021_Feb_23_1625,ComputerHuman,2020.1.3,59.87256722642098,
Sychronize.jpg,Number10.jpg,,Human,Human.xlsx,1,h,10,,,,,0,0,0,0,0,3,3,8,,,,,,,,,,,,,,,,,,,,,,,,,,,,,,,,,,,,,,,,,,,,,,,,,,,,,,,,,,,,,698.5003553999995,None,698.5003553999995,None,698.9782492000086,None,698.9782492000086,None,"['t', 'v']","[8.050601100025233, 8.217374800005928]",698.9782492000086,None,8.217374800005928,8.050601100025233,10,False,False,False,710.9358859000204,None,710.9358859000204,None,710.9358859000204,None,710.9358859000204,None,710.9358859000204,None,710.9358859000204,None,710.9358859000204,None,710.9358859000204,None,711.9753914000175,None,711.9753914000175,None,1,h,,,,,,,,,,,,,,,,,,3_4,001,2021_Feb_23_1625,ComputerHuman,2020.1.3,59.87256722642098,
Sychronize.jpg,Number8.jpg,,Human,Human.xlsx,1,h,8,,,,,0,0,0,0,0,4,4,5,,,,,,,,,,,,,,,,,,,,,,,,,,,,,,,,,,,,,,,,,,,,,,,,,,,,,,,,,,,,,712.969946600002,None,712.969946600002,None,713.448530099995,None,713.448530099995,None,"['v', 't']","[6.420265199994901, 6.535386899980949]",713.448530099995,None,6.420265199994901,6.535386899980949,8,False,False,False,722.2249246000138,None,722.2249246000138,None,722.2249246000138,None,722.2249246000138,None,722.2249246000138,None,722.2249246000138,None,722.2249246000138,None,722.2249246000138,None,723.2594527000037,None,723.2594527000037,None,1,h,,,,,,,,,,,,,,,,,,3_4,001,2021_Feb_23_1625,ComputerHuman,2020.1.3,59.87256722642098,
Sychronize.jpg,Number7.jpg,,Human,Human.xlsx,1,h,7,,,,,0,0,0,0,0,5,5,3,,,,,,,,,,,,,,,,,,,,,,,,,,,,,,,,,,,,,,,,,,,,,,,,,,,,,,,,,,,,,724.2556324000179,None,724.2556324000179,None,724.7350463000184,None,724.7350463000184,None,"['t', 'v']","[5.117916299990611, 7.177752299990971]",724.7350463000184,None,7.177752299990971,5.117916299990611,7,False,False,False,733.9607461999985,None,733.9607461999985,None,733.9607461999985,None,733.9607461999985,None,733.9607461999985,None,733.9607461999985,None,733.9607461999985,None,733.9607461999985,None,734.9726087000163,None,734.9726087000163,None,1,h,,,,,,,,,,,,,,,,,,3_4,001,2021_Feb_23_1625,ComputerHuman,2020.1.3,59.87256722642098,
Sychronize.jpg,Number10.jpg,,Human,Human.xlsx,1,h,10,,,,,0,0,0,0,0,6,6,9,,,,,,,,,,,,,,,,,,,,,,,,,,,,,,,,,,,,,,,,,,,,,,,,,,,,,,,,,,,,,735.9947357000201,None,735.9947357000201,None,736.4707124000124,None,736.4707124000124,None,"['t', 'v']","[7.538313299999572, 8.526870400004555]",736.4707124000124,None,8.526870400004555,7.538313299999572,10,False,False,False,747.9260647000046,None,747.9260647000046,None,747.9260647000046,None,747.9260647000046,None,747.9260647000046,None,747.9260647000046,None,747.9260647000046,None,747.9260647000046,None,748.9417966000037,None,748.9417966000037,None,1,h,,,,,,,,,,,,,,,,,,3_4,001,2021_Feb_23_1625,ComputerHuman,2020.1.3,59.87256722642098,
Sychronize.jpg,Number6.jpg,,Human,Human.xlsx,1,h,6,,,,,0,0,0,0,0,7,7,0,,,,,,,,,,,,,,,,,,,,,,,,,,,,,,,,,,,,,,,,,,,,,,,,,,,,,,,,,,,,,749.9668054000067,None,749.9668054000067,None,750.4622010000166,None,750.4622010000166,None,"['v', 't']","[4.162352500017732, 5.113704899995355]",750.4622010000166,None,4.162352500017732,5.113704899995355,6,False,False,False,757.9637497999938,None,757.9637497999938,None,757.9637497999938,None,757.9637497999938,None,757.9637497999938,None,757.9637497999938,None,757.9637497999938,None,757.9637497999938,None,758.9601455999946,None,758.9601455999946,None,1,h,,,,,,,,,,,,,,,,,,3_4,001,2021_Feb_23_1625,ComputerHuman,2020.1.3,59.87256722642098,
Sychronize.jpg,Number7.jpg,,Human,Human.xlsx,1,h,7,,,,,0,0,0,0,0,8,8,2,,,,,,,,,,,,,,,,,,,,,,,,,,,,,,,,,,,,,,,,,,,,,,,,,,,,,,,,,,,,,759.9819011999934,None,759.9819011999934,None,760.4788014000223,None,760.4788014000223,None,"['t', 'v']","[5.78212910000002, 5.996719899994787]",760.4788014000223,None,5.996719899994787,5.78212910000002,7,False,False,False,770.5796654000005,None,770.5796654000005,None,770.5796654000005,None,770.5796654000005,None,770.5796654000005,None,770.5796654000005,None,770.5796654000005,None,770.5796654000005,None,771.6200616999995,None,771.6200616999995,None,1,h,,,,,,,,,,,,,,,,,,3_4,001,2021_Feb_23_1625,ComputerHuman,2020.1.3,59.87256722642098,
Sychronize.jpg,Number9.jpg,,Human,Human.xlsx,1,h,9,,,,,0,0,0,0,0,9,9,7,,,,,,,,,,,,,,,,,,,,,,,,,,,,,,,,,,,,,,,,,,,,,,,,,,,,,,,,,,,,,772.6208908999979,None,772.6208908999979,None,773.0948440000066,None,773.0948440000066,None,"['t', 'v']","[6.986180800013244, 7.050411000003805]",773.0948440000066,None,7.050411000003805,6.986180800013244,9,False,False,False,784.3048648000113,None,784.3048648000113,None,784.3048648000113,None,784.3048648000113,None,784.3048648000113,None,784.3048648000113,None,784.3048648000113,None,784.3048648000113,None,785.340148200019,None,785.340148200019,None,1,h,,,,,,,,,,,,,,,,,,3_4,001,2021_Feb_23_1625,ComputerHuman,2020.1.3,59.87256722642098,
,,,,Human.xlsx,1,h,,,,,,0,0,0,0,,,,,,,,,,,,,,,,,,,,,,,,,,,,,,,,,,,,,,,,,,,,,,,,,,,,,,,,,,,,,,,,,,,,,,,,,,,,,,,,,,,,,,,,,,,,,,,,,,,,,,,1,h,786.3129825000069,None,c,0,5.446688600000925,787.2945107000123,None,792.766838200012,None,None,None,None,None,None,,,,3_4,001,2021_Feb_23_1625,ComputerHuman,2020.1.3,59.87256722642098,
Sychronize.jpg,Number6.jpg,,Computer,Computer.xlsx,2,c,6,,,,,0,1,1,7,0,0,0,0,,,,,,,,,,,,,,,,,,,,,,,,,,,,,,,,,,,,,,,,,,,,,,,,,,,,,,,,,797.7854675000126,None,797.7854675000126,None,800.8215002000215,None,800.8215002000215,None,801.2991867999954,None,801.2991867999954,None,"['v', 't']","[4.241863200004445, 5.096895800001221]",801.2991867999954,None,4.241863200004445,5.096895800001221,6,False,False,False,807.9840005000005,None,807.9840005000005,None,807.9840005000005,None,807.9840005000005,None,807.9840005000005,None,807.9840005000005,None,807.9840005000005,None,807.9840005000005,None,809.002996700001,None,809.002996700001,None,2,c,,,,,,,,,,,,,,,,,,3_4,001,2021_Feb_23_1625,ComputerHuman,2020.1.3,59.87256722642098,
Sychronize.jpg,Number7.jpg,,Computer,Computer.xlsx,2,c,7,,,,,0,1,1,7,0,1,1,3,,,,,,,,,,,,,,,,,,,,,,,,,,,,,,,,,,,,,,,,,,,,,,,,,,,,,,,,,,,,,810.0229880000115,None,810.0229880000115,None,810.5031298999966,None,810.5031298999966,None,"['t', 'v']","[5.878176199999871, 6.777801699994598]",810.5031298999966,None,6.777801699994598,5.878176199999871,7,False,False,False,820.0140552000084,None,820.0140552000084,None,820.0140552000084,None,820.0140552000084,None,820.0140552000084,None,820.0140552000084,None,820.0140552000084,None,820.0140552000084,None,821.023925800022,None,821.023925800022,None,2,c,,,,,,,,,,,,,,,,,,3_4,001,2021_Feb_23_1625,ComputerHuman,2020.1.3,59.87256722642098,
Sychronize.jpg,Number9.jpg,,Computer,Computer.xlsx,2,c,9,,,,,0,1,1,7,0,2,2,6,,,,,,,,,,,,,,,,,,,,,,,,,,,,,,,,,,,,,,,,,,,,,,,,,,,,,,,,,,,,,822.0484999000037,None,822.0484999000037,None,822.5215393000108,None,822.5215393000108,None,"['v', 't']","[7.041966099990532, 7.822231999976793]",822.5215393000108,None,7.041966099990532,7.822231999976793,9,False,False,False,832.6226648000011,None,832.6226648000011,None,832.6226648000011,None,832.6226648000011,None,832.6226648000011,None,832.6226648000011,None,832.6226648000011,None,832.6226648000011,None,833.6259188000113,None,833.6259188000113,None,2,c,,,,,,,,,,,,,,,,,,3_4,001,2021_Feb_23_1625,ComputerHuman,2020.1.3,59.87256722642098,
Sychronize.jpg,Number8.jpg,,Computer,Computer.xlsx,2,c,8,,,,,0,1,1,7,0,3,3,4,,,,,,,,,,,,,,,,,,,,,,,,,,,,,,,,,,,,,,,,,,,,,,,,,,,,,,,,,,,,,834.6485821999959,None,834.6485821999959,None,835.1241277999943,None,835.1241277999943,None,"['v', 't']","[6.37332160002552, 7.295583600003738]",835.1241277999943,None,6.37332160002552,7.295583600003738,8,False,False,False,843.9673220000113,None,843.9673220000113,None,843.9673220000113,None,843.9673220000113,None,843.9673220000113,None,843.9673220000113,None,843.9673220000113,None,843.9673220000113,None,844.9788877000101,None,844.9788877000101,None,2,c,,,,,,,,,,,,,,,,,,3_4,001,2021_Feb_23_1625,ComputerHuman,2020.1.3,59.87256722642098,
Sychronize.jpg,Number8.jpg,,Computer,Computer.xlsx,2,c,8,,,,,0,1,1,7,0,4,4,5,,,,,,,,,,,,,,,,,,,,,,,,,,,,,,,,,,,,,,,,,,,,,,,,,,,,,,,,,,,,,846.0002687000087,None,846.0002687000087,None,846.474955600017,None,846.474955600017,None,"['t', 'v']","[6.6780066000064835, 7.289738999999827]",846.474955600017,None,7.289738999999827,6.6780066000064835,8,False,False,False,857.3653501000081,None,857.3653501000081,None,857.3653501000081,None,857.3653501000081,None,857.3653501000081,None,857.3653501000081,None,857.3653501000081,None,857.3653501000081,None,858.3799631000147,None,858.3799631000147,None,2,c,,,,,,,,,,,,,,,,,,3_4,001,2021_Feb_23_1625,ComputerHuman,2020.1.3,59.87256722642098,
Sychronize.jpg,Number7.jpg,,Computer,Computer.xlsx,2,c,7,,,,,0,1,1,7,0,5,5,2,,,,,,,,,,,,,,,,,,,,,,,,,,,,,,,,,,,,,,,,,,,,,,,,,,,,,,,,,,,,,859.399653600005,None,859.399653600005,None,859.8792663000058,None,859.8792663000058,None,"['v', 't']","[6.338025300006848, 7.060628600011114]",859.8792663000058,None,6.338025300006848,7.060628600011114,7,False,False,False,869.0641314999957,None,869.0641314999957,None,869.0641314999957,None,869.0641314999957,None,869.0641314999957,None,869.0641314999957,None,869.0641314999957,None,869.0641314999957,None,870.1051994000154,None,870.1051994000154,None,2,c,,,,,,,,,,,,,,,,,,3_4,001,2021_Feb_23_1625,ComputerHuman,2020.1.3,59.87256722642098,
Sychronize.jpg,Number10.jpg,,Computer,Computer.xlsx,2,c,10,,,,,0,1,1,7,0,6,6,9,,,,,,,,,,,,,,,,,,,,,,,,,,,,,,,,,,,,,,,,,,,,,,,,,,,,,,,,,,,,,871.1124673000013,None,871.1124673000013,None,871.5802975000115,None,871.5802975000115,None,"['v', 't']","[8.24052020002273, 8.859576100017875]",871.5802975000115,None,8.24052020002273,8.859576100017875,10,False,False,False,882.1234879000112,None,882.1234879000112,None,882.1234879000112,None,882.1234879000112,None,882.1234879000112,None,882.1234879000112,None,882.1234879000112,None,882.1234879000112,None,883.1349354000122,None,883.1349354000122,None,2,c,,,,,,,,,,,,,,,,,,3_4,001,2021_Feb_23_1625,ComputerHuman,2020.1.3,59.87256722642098,
Sychronize.jpg,Number6.jpg,,Computer,Computer.xlsx,2,c,6,,,,,0,1,1,7,0,7,7,1,,,,,,,,,,,,,,,,,,,,,,,,,,,,,,,,,,,,,,,,,,,,,,,,,,,,,,,,,,,,,884.1547805000155,None,884.1547805000155,None,884.6542839000176,None,884.6542839000176,None,"['v', 't']","[5.326898399973288, 6.409558399987873]",884.6542839000176,None,5.326898399973288,6.409558399987873,6,False,False,False,892.6444151000178,None,892.6444151000178,None,892.6444151000178,None,892.6444151000178,None,892.6444151000178,None,892.6444151000178,None,892.6444151000178,None,892.6444151000178,None,893.6535226000124,None,893.6535226000124,None,2,c,,,,,,,,,,,,,,,,,,3_4,001,2021_Feb_23_1625,ComputerHuman,2020.1.3,59.87256722642098,
Sychronize.jpg,Number9.jpg,,Computer,Computer.xlsx,2,c,9,,,,,0,1,1,7,0,8,8,7,,,,,,,,,,,,,,,,,,,,,,,,,,,,,,,,,,,,,,,,,,,,,,,,,,,,,,,,,,,,,894.6733064000146,None,894.6733064000146,None,895.1516634,None,895.1516634,None,"['v', 't']","[7.849094199977117, 8.40462459999253]",895.1516634,None,7.849094199977117,8.40462459999253,9,False,False,False,905.475428900012,None,905.475428900012,None,905.475428900012,None,905.475428900012,None,905.475428900012,None,905.475428900012,None,905.475428900012,None,905.475428900012,None,906.4893095000007,None,906.4893095000007,None,2,c,,,,,,,,,,,,,,,,,,3_4,001,2021_Feb_23_1625,ComputerHuman,2020.1.3,59.87256722642098,
Sychronize.jpg,Number10.jpg,,Computer,Computer.xlsx,2,c,10,,,,,0,1,1,7,0,9,9,8,,,,,,,,,,,,,,,,,,,,,,,,,,,,,,,,,,,,,,,,,,,,,,,,,,,,,,,,,,,,,907.5090901000076,None,907.5090901000076,None,907.9889234000002,None,907.9889234000002,None,"['t', 'v']","[8.547877600009087, 9.840348099998664]",907.9889234000002,None,9.840348099998664,8.547877600009087,10,False,False,False,919.8068285000045,None,919.8068285000045,None,919.8068285000045,None,919.8068285000045,None,919.8068285000045,None,919.8068285000045,None,919.8068285000045,None,919.8068285000045,None,920.8094139000168,None,920.8094139000168,None,2,c,,,,,,,,,,,,,,,,,,3_4,001,2021_Feb_23_1625,ComputerHuman,2020.1.3,59.87256722642098,
,,,,Computer.xlsx,2,c,,,,,,0,1,1,7,,,,,,,,,,,,,,,,,,,,,,,,,,,,,,,,,,,,,,,,,,,,,,,,,,,,,,,,,,,,,,,,,,,,,,,,,,,,,,,,,,,,,,,,,,,,,,,,,,,,,,,2,c,921.8072023999994,None,c,1,5.228061700006947,922.8050268999941,None,928.0584213999973,None,None,None,None,None,None,,,,3_4,001,2021_Feb_23_1625,ComputerHuman,2020.1.3,59.87256722642098,
Sychronize.jpg,Number10.jpg,,Human,Human.xlsx,1,h,10,,,,,0,2,2,2,0,0,0,9,,,,,,,,,,,,,,,,,,,,,,,,,,,,,,,,,,,,,,,,,,,,,,,,,,,,,,,,,933.0657119000098,None,933.0657119000098,None,936.1105186000059,None,936.1105186000059,None,936.5766520000179,None,936.5766520000179,None,"['t', 'v']","[9.431554400012828, 9.691311800008407]",936.5766520000179,None,9.691311800008407,9.431554400012828,10,False,False,False,949.684745400009,None,949.684745400009,None,949.684745400009,None,949.684745400009,None,949.684745400009,None,949.684745400009,None,949.684745400009,None,949.684745400009,None,950.7173233000212,None,950.7173233000212,None,1,h,,,,,,,,,,,,,,,,,,3_4,001,2021_Feb_23_1625,ComputerHuman,2020.1.3,59.87256722642098,
Sychronize.jpg,Number10.jpg,,Human,Human.xlsx,1,h,10,,,,,0,2,2,2,0,1,1,8,,,,,,,,,,,,,,,,,,,,,,,,,,,,,,,,,,,,,,,,,,,,,,,,,,,,,,,,,,,,,951.7236554000119,None,951.7236554000119,None,952.2187598000164,None,952.2187598000164,None,"['t', 'v']","[8.349340699991444, 10.252856800012523]",952.2187598000164,None,10.252856800012523,8.349340699991444,10,False,False,False,964.5828604999988,None,964.5828604999988,None,964.5828604999988,None,964.5828604999988,None,964.5828604999988,None,964.5828604999988,None,964.5828604999988,None,964.5828604999988,None,965.5849713000061,None,965.5849713000061,None,1,h,,,,,,,,,,,,,,,,,,3_4,001,2021_Feb_23_1625,ComputerHuman,2020.1.3,59.87256722642098,
Sychronize.jpg,Number9.jpg,,Human,Human.xlsx,1,h,9,,,,,0,2,2,2,0,2,2,6,,,,,,,,,,,,,,,,,,,,,,,,,,,,,,,,,,,,,,,,,,,,,,,,,,,,,,,,,,,,,966.6043734000123,None,966.6043734000123,None,967.0846196000057,None,967.0846196000057,None,"['v', 't']","[7.224289200006751, 7.367222600005334]",967.0846196000057,None,7.224289200006751,7.367222600005334,9,False,False,False,976.1125561000081,None,976.1125561000081,None,976.1125561000081,None,976.1125561000081,None,976.1125561000081,None,976.1125561000081,None,976.1125561000081,None,976.1125561000081,None,977.144972900016,None,977.144972900016,None,1,h,,,,,,,,,,,,,,,,,,3_4,001,2021_Feb_23_1625,ComputerHuman,2020.1.3,59.87256722642098,
Sychronize.jpg,Number6.jpg,,Human,Human.xlsx,1,h,6,,,,,0,2,2,2,0,3,3,1,,,,,,,,,,,,,,,,,,,,,,,,,,,,,,,,,,,,,,,,,,,,,,,,,,,,,,,,,,,,,978.1467003000143,None,978.1467003000143,None,978.6185665999947,None,978.6185665999947,None,"['v', 't']","[4.708955700014485, 6.30934520001756]",978.6185665999947,None,4.708955700014485,6.30934520001756,6,False,False,False,987.1102789000142,None,987.1102789000142,None,987.1102789000142,None,987.1102789000142,None,987.1102789000142,None,987.1102789000142,None,987.1102789000142,None,987.1102789000142,None,988.1226746000175,None,988.1226746000175,None,1,h,,,,,,,,,,,,,,,,,,3_4,001,2021_Feb_23_1625,ComputerHuman,2020.1.3,59.87256722642098,
Sychronize.jpg,Number9.jpg,,Human,Human.xlsx,1,h,9,,,,,0,2,2,2,0,4,4,7,,,,,,,,,,,,,,,,,,,,,,,,,,,,,,,,,,,,,,,,,,,,,,,,,,,,,,,,,,,,,989.1422678999952,None,989.1422678999952,None,989.6206754000159,None,989.6206754000159,None,"['t', 'v']","[7.42285780000384, 7.832710900023812]",989.6206754000159,None,7.832710900023812,7.42285780000384,9,False,False,False,1001.4515715000161,None,1001.4515715000161,None,1001.4515715000161,None,1001.4515715000161,None,1001.4515715000161,None,1001.4515715000161,None,1001.4515715000161,None,1001.4515715000161,None,1002.4595064000168,None,1002.4595064000168,None,1,h,,,,,,,,,,,,,,,,,,3_4,001,2021_Feb_23_1625,ComputerHuman,2020.1.3,59.87256722642098,
Sychronize.jpg,Number8.jpg,,Human,Human.xlsx,1,h,8,,,,,0,2,2,2,0,5,5,5,,,,,,,,,,,,,,,,,,,,,,,,,,,,,,,,,,,,,,,,,,,,,,,,,,,,,,,,,,,,,1003.4788819999958,None,1003.4788819999958,None,1003.9586794000061,None,1003.9586794000061,None,"['v', 't']","[7.073514499992598, 9.093177499977173]",1003.9586794000061,None,7.073514499992598,9.093177499977173,8,False,False,False,1014.7308244000014,None,1014.7308244000014,None,1014.7308244000014,None,1014.7308244000014,None,1014.7308244000014,None,1014.7308244000014,None,1014.7308244000014,None,1014.7308244000014,None,1015.7447948000045,None,1015.7447948000045,None,1,h,,,,,,,,,,,,,,,,,,3_4,001,2021_Feb_23_1625,ComputerHuman,2020.1.3,59.87256722642098,
Sychronize.jpg,Number7.jpg,,Human,Human.xlsx,1,h,7,,,,,0,2,2,2,0,6,6,3,,,,,,,,,,,,,,,,,,,,,,,,,,,,,,,,,,,,,,,,,,,,,,,,,,,,,,,,,,,,,1016.764035500004,None,1016.764035500004,None,1017.2642542000103,None,1017.2642542000103,None,"['t', 'v']","[5.728147799993167, 7.076516800007084]",1017.2642542000103,None,7.076516800007084,5.728147799993167,7,False,False,False,1026.188659700012,None,1026.188659700012,None,1026.188659700012,None,1026.188659700012,None,1026.188659700012,None,1026.188659700012,None,1026.188659700012,None,1026.188659700012,None,1027.1975874000054,None,1027.1975874000054,None,1,h,,,,,,,,,,,,,,,,,,3_4,001,2021_Feb_23_1625,ComputerHuman,2020.1.3,59.87256722642098,
Sychronize.jpg,Number6.jpg,,Human,Human.xlsx,1,h,6,,,,,0,2,2,2,0,7,7,0,,,,,,,,,,,,,,,,,,,,,,,,,,,,,,,,,,,,,,,,,,,,,,,,,,,,,,,,,,,,,1028.217257500015,None,1028.217257500015,None,1028.6970686000132,None,1028.6970686000132,None,"['t', 'v']","[4.970296599989524, 5.619370899978094]",1028.6970686000132,None,5.619370899978094,4.970296599989524,6,False,False,False,1037.2310583000071,None,1037.2310583000071,None,1037.2310583000071,None,1037.2310583000071,None,1037.2310583000071,None,1037.2310583000071,None,1037.2310583000071,None,1037.2310583000071,None,1038.2496081000136,None,1038.2496081000136,None,1,h,,,,,,,,,,,,,,,,,,3_4,001,2021_Feb_23_1625,ComputerHuman,2020.1.3,59.87256722642098,
Sychronize.jpg,Number8.jpg,,Human,Human.xlsx,1,h,8,,,,,0,2,2,2,0,8,8,4,,,,,,,,,,,,,,,,,,,,,,,,,,,,,,,,,,,,,,,,,,,,,,,,,,,,,,,,,,,,,1039.2688532000175,None,1039.2688532000175,None,1039.7680577000137,None,1039.7680577000137,None,"['v', 't']","[6.7125169999781065, 7.8795676000008825]",1039.7680577000137,None,6.7125169999781065,7.8795676000008825,8,False,False,False,1049.5173967000155,None,1049.5173967000155,None,1049.5173967000155,None,1049.5173967000155,None,1049.5173967000155,None,1049.5173967000155,None,1049.5173967000155,None,1049.5173967000155,None,1050.535284600017,None,1050.535284600017,None,1,h,,,,,,,,,,,,,,,,,,3_4,001,2021_Feb_23_1625,ComputerHuman,2020.1.3,59.87256722642098,
Sychronize.jpg,Number7.jpg,,Human,Human.xlsx,1,h,7,,,,,0,2,2,2,0,9,9,2,,,,,,,,,,,,,,,,,,,,,,,,,,,,,,,,,,,,,,,,,,,,,,,,,,,,,,,,,,,,,1051.5549204999988,None,1051.5549204999988,None,1052.033646900003,None,1052.033646900003,None,"['t', 'v']","[5.328504999983124, 6.2833440999966115]",1052.033646900003,None,6.2833440999966115,5.328504999983124,7,False,False,False,1062.0764641000133,None,1062.0764641000133,None,1062.0764641000133,None,1062.0764641000133,None,1062.0764641000133,None,1062.0764641000133,None,1062.0764641000133,None,1062.0764641000133,None,1063.0881302000198,None,1063.0881302000198,None,1,h,,,,,,,,,,,,,,,,,,3_4,001,2021_Feb_23_1625,ComputerHuman,2020.1.3,59.87256722642098,
,,,,Human.xlsx,1,h,,,,,,0,2,2,2,,,,,,,,,,,,,,,,,,,,,,,,,,,,,,,,,,,,,,,,,,,,,,,,,,,,,,,,,,,,,,,,,,,,,,,,,,,,,,,,,,,,,,,,,,,,,,,,,,,,,,,1,h,1064.088771300012,None,h,1,2.6677902000083122,1065.0841849000135,None,1067.7910166000074,None,None,None,None,None,None,,,,3_4,001,2021_Feb_23_1625,ComputerHuman,2020.1.3,59.87256722642098,
Sychronize.jpg,Number7.jpg,,Computer,Computer.xlsx,2,c,7,,,,,0,3,3,5,0,0,0,2,,,,,,,,,,,,,,,,,,,,,,,,,,,,,,,,,,,,,,,,,,,,,,,,,,,,,,,,,1072.7910853000067,None,1072.7910853000067,None,1075.8428027000045,None,1075.8428027000045,None,1076.3056224000175,None,1076.3056224000175,None,"['v', 't']","[5.219177999999374, 6.310246200009715]",1076.3056224000175,None,5.219177999999374,6.310246200009715,7,False,False,False,1084.7238172000216,None,1084.7238172000216,None,1084.7238172000216,None,1084.7238172000216,None,1084.7238172000216,None,1084.7238172000216,None,1084.7238172000216,None,1084.7238172000216,None,1085.7424777999986,None,1085.7424777999986,None,2,c,,,,,,,,,,,,,,,,,,3_4,001,2021_Feb_23_1625,ComputerHuman,2020.1.3,59.87256722642098,
Sychronize.jpg,Number6.jpg,,Computer,Computer.xlsx,2,c,6,,,,,0,3,3,5,0,1,1,0,,,,,,,,,,,,,,,,,,,,,,,,,,,,,,,,,,,,,,,,,,,,,,,,,,,,,,,,,,,,,1086.7458040000056,None,1086.7458040000056,None,1087.241236300004,None,1087.241236300004,None,"['v', 't']","[5.2103471999871545, 5.630228099995293]",1087.241236300004,None,5.2103471999871545,5.630228099995293,6,False,False,False,1094.7533383000118,None,1094.7533383000118,None,1094.7533383000118,None,1094.7533383000118,None,1094.7533383000118,None,1094.7533383000118,None,1094.7533383000118,None,1094.7533383000118,None,1095.7614630000025,None,1095.7614630000025,None,2,c,,,,,,,,,,,,,,,,,,3_4,001,2021_Feb_23_1625,ComputerHuman,2020.1.3,59.87256722642098,
Sychronize.jpg,Number8.jpg,,Computer,Computer.xlsx,2,c,8,,,,,0,3,3,5,0,2,2,5,,,,,,,,,,,,,,,,,,,,,,,,,,,,,,,,,,,,,,,,,,,,,,,,,,,,,,,,,,,,,1096.7811378000188,None,1096.7811378000188,None,1097.259457600012,None,1097.259457600012,None,"['v', 't']","[6.9970364999899175, 8.600704799988307]",1097.259457600012,None,6.9970364999899175,8.600704799988307,8,False,False,False,1107.802777200006,None,1107.802777200006,None,1107.802777200006,None,1107.802777200006,None,1107.802777200006,None,1107.802777200006,None,1107.802777200006,None,1107.802777200006,None,1108.8138205000141,None,1108.8138205000141,None,2,c,,,,,,,,,,,,,,,,,,3_4,001,2021_Feb_23_1625,ComputerHuman,2020.1.3,59.87256722642098,
Sychronize.jpg,Number6.jpg,,Computer,Computer.xlsx,2,c,6,,,,,0,3,3,5,0,3,3,1,,,,,,,,,,,,,,,,,,,,,,,,,,,,,,,,,,,,,,,,,,,,,,,,,,,,,,,,,,,,,1109.8340776000114,None,1109.8340776000114,None,1110.332135500008,None,1110.332135500008,None,"['t', 'v']","[5.5239099000173155, 5.551484399999026]",1110.332135500008,None,5.551484399999026,5.5239099000173155,6,False,False,False,1119.3721282000188,None,1119.3721282000188,None,1119.3721282000188,None,1119.3721282000188,None,1119.3721282000188,None,1119.3721282000188,None,1119.3721282000188,None,1119.3721282000188,None,1120.3833016999997,None,1120.3833016999997,None,2,c,,,,,,,,,,,,,,,,,,3_4,001,2021_Feb_23_1625,ComputerHuman,2020.1.3,59.87256722642098,
Sychronize.jpg,Number9.jpg,,Computer,Computer.xlsx,2,c,9,,,,,0,3,3,5,0,4,4,7,,,,,,,,,,,,,,,,,,,,,,,,,,,,,,,,,,,,,,,,,,,,,,,,,,,,,,,,,,,,,1121.4021748999949,None,1121.4021748999949,None,1121.8826649000112,None,1121.8826649000112,None,"['v', 't']","[7.519447800004855, 8.325035100016976]",1121.8826649000112,None,7.519447800004855,8.325035100016976,9,False,False,False,1132.434093000018,None,1132.434093000018,None,1132.434093000018,None,1132.434093000018,None,1132.434093000018,None,1132.434093000018,None,1132.434093000018,None,1132.434093000018,None,1133.4525552999985,None,1133.4525552999985,None,2,c,,,,,,,,,,,,,,,,,,3_4,001,2021_Feb_23_1625,ComputerHuman,2020.1.3,59.87256722642098,
Sychronize.jpg,Number10.jpg,,Computer,Computer.xlsx,2,c,10,,,,,0,3,3,5,0,5,5,8,,,,,,,,,,,,,,,,,,,,,,,,,,,,,,,,,,,,,,,,,,,,,,,,,,,,,,,,,,,,,1134.477437499998,None,1134.477437499998,None,1134.951898600004,None,1134.951898600004,None,"['t', 'v']","[9.732961200003047, 10.57122869999148]",1134.951898600004,None,10.57122869999148,9.732961200003047,10,False,False,False,1149.1217485000088,None,1149.1217485000088,None,1149.1217485000088,None,1149.1217485000088,None,1149.1217485000088,None,1149.1217485000088,None,1149.1217485000088,None,1149.1217485000088,None,1150.1402013000043,None,1150.1402013000043,None,2,c,,,,,,,,,,,,,,,,,,3_4,001,2021_Feb_23_1625,ComputerHuman,2020.1.3,59.87256722642098,
Sychronize.jpg,Number7.jpg,,Computer,Computer.xlsx,2,c,7,,,,,0,3,3,5,0,6,6,3,,,,,,,,,,,,,,,,,,,,,,,,,,,,,,,,,,,,,,,,,,,,,,,,,,,,,,,,,,,,,1151.1647523000138,None,1151.1647523000138,None,1151.638331299997,None,1151.638331299997,None,"['v', 't']","[5.9150738999887835, 6.593481999996584]",1151.638331299997,None,5.9150738999887835,6.593481999996584,7,False,False,False,1160.314844700013,None,1160.314844700013,None,1160.314844700013,None,1160.314844700013,None,1160.314844700013,None,1160.314844700013,None,1160.314844700013,None,1160.314844700013,None,1161.3259069000196,None,1161.3259069000196,None,2,c,,,,,,,,,,,,,,,,,,3_4,001,2021_Feb_23_1625,ComputerHuman,2020.1.3,59.87256722642098,
Sychronize.jpg,Number8.jpg,,Computer,Computer.xlsx,2,c,8,,,,,0,3,3,5,0,7,7,4,,,,,,,,,,,,,,,,,,,,,,,,,,,,,,,,,,,,,,,,,,,,,,,,,,,,,,,,,,,,,1162.3497158999962,None,1162.3497158999962,None,1162.822722700017,None,1162.822722700017,None,"['v', 't']","[6.612905199988745, 6.669034099992132]",1162.822722700017,None,6.612905199988745,6.669034099992132,8,False,False,False,1171.6136786999996,None,1171.6136786999996,None,1171.6136786999996,None,1171.6136786999996,None,1171.6136786999996,None,1171.6136786999996,None,1171.6136786999996,None,1171.6136786999996,None,1172.6270968000172,None,1172.6270968000172,None,2,c,,,,,,,,,,,,,,,,,,3_4,001,2021_Feb_23_1625,ComputerHuman,2020.1.3,59.87256722642098,
Sychronize.jpg,Number9.jpg,,Computer,Computer.xlsx,2,c,9,,,,,0,3,3,5,0,8,8,6,,,,,,,,,,,,,,,,,,,,,,,,,,,,,,,,,,,,,,,,,,,,,,,,,,,,,,,,,,,,,1173.6571587000217,None,1173.6571587000217,None,1174.1280396000075,None,1174.1280396000075,None,"['v', 't']","[7.768792299990309, 8.239735499984818]",1174.1280396000075,None,7.768792299990309,8.239735499984818,9,False,False,False,1184.369273599994,None,1184.369273599994,None,1184.369273599994,None,1184.369273599994,None,1184.369273599994,None,1184.369273599994,None,1184.369273599994,None,1184.369273599994,None,1185.3794385000074,None,1185.3794385000074,None,2,c,,,,,,,,,,,,,,,,,,3_4,001,2021_Feb_23_1625,ComputerHuman,2020.1.3,59.87256722642098,
Sychronize.jpg,Number10.jpg,,Computer,Computer.xlsx,2,c,10,,,,,0,3,3,5,0,9,9,9,,,,,,,,,,,,,,,,,,,,,,,,,,,,,,,,,,,,,,,,,,,,,,,,,,,,,,,,,,,,,1186.3863003000151,None,1186.3863003000151,None,1186.8622344000032,None,1186.8622344000032,None,"['t', 'v']","[8.402334200014593, 9.238638700015144]",1186.8622344000032,None,9.238638700015144,8.402334200014593,10,False,False,False,1199.75300170001,None,1199.75300170001,None,1199.75300170001,None,1199.75300170001,None,1199.75300170001,None,1199.75300170001,None,1199.75300170001,None,1199.75300170001,None,1200.7511186000193,None,1200.7511186000193,None,2,c,,,,,,,,,,,,,,,,,,3_4,001,2021_Feb_23_1625,ComputerHuman,2020.1.3,59.87256722642098,
,,,,Computer.xlsx,2,c,,,,,,0,3,3,5,,,,,,,,,,,,,,,,,,,,,,,,,,,,,,,,,,,,,,,,,,,,,,,,,,,,,,,,,,,,,,,,,,,,,,,,,,,,,,,,,,,,,,,,,,,,,,,,,,,,,,,2,c,1201.7471118000103,None,h,0,3.199100499972701,1202.7454795000085,None,None,None,1205.9719422000053,None,"['space', 'space']",1206.9630271000206,None,"[3.528308599983575, 7.213981799985049]",,,3_4,001,2021_Feb_23_1625,ComputerHuman,2020.1.3,59.87256722642098,
Sychronize.jpg,Number9.jpg,,Human,Human.xlsx,2,h,9,,,,,0,4,4,6,0,0,0,7,,,,,,,,,,,,,,,,,,,,,,,,,,,,,,,,,,,,,,,,,,,,,,,,,,,,,,,,,1214.2206880000012,None,1214.2206880000012,None,1217.2389947000192,None,1217.2389947000192,None,1217.7201226000034,None,1217.7201226000034,None,"['v', 't']","[7.892984899983276, 7.91249649997917]",1217.7201226000034,None,7.892984899983276,7.91249649997917,9,False,False,False,1227.3364640999935,None,1227.3364640999935,None,1227.3364640999935,None,1227.3364640999935,None,1227.3364640999935,None,1227.3364640999935,None,1227.3364640999935,None,1227.3364640999935,None,1228.3606003000168,None,1228.3606003000168,None,2,h,,,,,,,,,,,,,,,,,,3_4,001,2021_Feb_23_1625,ComputerHuman,2020.1.3,59.87256722642098,
Sychronize.jpg,Number6.jpg,,Human,Human.xlsx,2,h,6,,,,,0,4,4,6,0,1,1,0,,,,,,,,,,,,,,,,,,,,,,,,,,,,,,,,,,,,,,,,,,,,,,,,,,,,,,,,,,,,,1229.3742910000146,None,1229.3742910000146,None,1229.854526500014,None,1229.854526500014,None,"['v', 't']","[5.246782700007316, 5.276843300001929]",1229.854526500014,None,5.246782700007316,5.276843300001929,6,False,False,False,1236.8439612000075,None,1236.8439612000075,None,1236.8439612000075,None,1236.8439612000075,None,1236.8439612000075,None,1236.8439612000075,None,1236.8439612000075,None,1236.8439612000075,None,1237.8771203000215,None,1237.8771203000215,None,2,h,,,,,,,,,,,,,,,,,,3_4,001,2021_Feb_23_1625,ComputerHuman,2020.1.3,59.87256722642098,
Sychronize.jpg,Number6.jpg,,Human,Human.xlsx,2,h,6,,,,,0,4,4,6,0,2,2,1,,,,,,,,,,,,,,,,,,,,,,,,,,,,,,,,,,,,,,,,,,,,,,,,,,,,,,,,,,,,,1238.876686100004,None,1238.876686100004,None,1239.3546705000044,None,1239.3546705000044,None,"['v', 't']","[5.086269299994456, 6.641131999989739]",1239.3546705000044,None,5.086269299994456,6.641131999989739,6,False,False,False,1247.8116684000124,None,1247.8116684000124,None,1247.8116684000124,None,1247.8116684000124,None,1247.8116684000124,None,1247.8116684000124,None,1247.8116684000124,None,1247.8116684000124,None,1248.8255779000174,None,1248.8255779000174,None,2,h,,,,,,,,,,,,,,,,,,3_4,001,2021_Feb_23_1625,ComputerHuman,2020.1.3,59.87256722642098,
Sychronize.jpg,Number7.jpg,,Human,Human.xlsx,2,h,7,,,,,0,4,4,6,0,3,3,2,,,,,,,,,,,,,,,,,,,,,,,,,,,,,,,,,,,,,,,,,,,,,,,,,,,,,,,,,,,,,1249.8453009000223,None,1249.8453009000223,None,1250.3236046000093,None,1250.3236046000093,None,"['v', 't']","[5.537259800010361, 5.964519200002542]",1250.3236046000093,None,5.537259800010361,5.964519200002542,7,False,False,False,1258.1633367000031,None,1258.1633367000031,None,1258.1633367000031,None,1258.1633367000031,None,1258.1633367000031,None,1258.1633367000031,None,1258.1633367000031,None,1258.1633367000031,None,1259.1795835999947,None,1259.1795835999947,None,2,h,,,,,,,,,,,,,,,,,,3_4,001,2021_Feb_23_1625,ComputerHuman,2020.1.3,59.87256722642098,
Sychronize.jpg,Number8.jpg,,Human,Human.xlsx,2,h,8,,,,,0,4,4,6,0,4,4,4,,,,,,,,,,,,,,,,,,,,,,,,,,,,,,,,,,,,,,,,,,,,,,,,,,,,,,,,,,,,,1260.1970331000048,None,1260.1970331000048,None,1260.6778396000154,None,1260.6778396000154,None,"['t', 'v']","[5.774532299983548, 6.363572800008114]",1260.6778396000154,None,6.363572800008114,5.774532299983548,8,False,False,False,1270.2350205999974,None,1270.2350205999974,None,1270.2350205999974,None,1270.2350205999974,None,1270.2350205999974,None,1270.2350205999974,None,1270.2350205999974,None,1270.2350205999974,None,1271.247156700003,None,1271.247156700003,None,2,h,,,,,,,,,,,,,,,,,,3_4,001,2021_Feb_23_1625,ComputerHuman,2020.1.3,59.87256722642098,
Sychronize.jpg,Number7.jpg,,Human,Human.xlsx,2,h,7,,,,,0,4,4,6,0,5,5,3,,,,,,,,,,,,,,,,,,,,,,,,,,,,,,,,,,,,,,,,,,,,,,,,,,,,,,,,,,,,,1272.270888500003,None,1272.270888500003,None,1272.7462551000062,None,1272.7462551000062,None,"['t', 'v']","[4.40110889999778, 5.494384999998147]",1272.7462551000062,None,5.494384999998147,4.40110889999778,7,False,False,False,1281.3336871000065,None,1281.3336871000065,None,1281.3336871000065,None,1281.3336871000065,None,1281.3336871000065,None,1281.3336871000065,None,1281.3336871000065,None,1281.3336871000065,None,1282.3494288999937,None,1282.3494288999937,None,2,h,,,,,,,,,,,,,,,,,,3_4,001,2021_Feb_23_1625,ComputerHuman,2020.1.3,59.87256722642098,
Sychronize.jpg,Number8.jpg,,Human,Human.xlsx,2,h,8,,,,,0,4,4,6,0,6,6,5,,,,,,,,,,,,,,,,,,,,,,,,,,,,,,,,,,,,,,,,,,,,,,,,,,,,,,,,,,,,,1283.3708968000137,None,1283.3708968000137,None,1283.847171500005,None,1283.847171500005,None,"['v', 't']","[6.292219000024488, 6.688415400014492]",1283.847171500005,None,6.292219000024488,6.688415400014492,8,False,False,False,1292.4818070000038,None,1292.4818070000038,None,1292.4818070000038,None,1292.4818070000038,None,1292.4818070000038,None,1292.4818070000038,None,1292.4818070000038,None,1292.4818070000038,None,1293.4858690999972,None,1293.4858690999972,None,2,h,,,,,,,,,,,,,,,,,,3_4,001,2021_Feb_23_1625,ComputerHuman,2020.1.3,59.87256722642098,
Sychronize.jpg,Number10.jpg,,Human,Human.xlsx,2,h,10,,,,,0,4,4,6,0,7,7,9,,,,,,,,,,,,,,,,,,,,,,,,,,,,,,,,,,,,,,,,,,,,,,,,,,,,,,,,,,,,,1294.5099934000173,None,1294.5099934000173,None,1294.9832297000103,None,1294.9832297000103,None,"['v', 't']","[7.520979399996577, 9.772382099996321]",1294.9832297000103,None,7.520979399996577,9.772382099996321,10,False,False,False,1306.8898957000056,None,1306.8898957000056,None,1306.8898957000056,None,1306.8898957000056,None,1306.8898957000056,None,1306.8898957000056,None,1306.8898957000056,None,1306.8898957000056,None,1307.9042169000022,None,1307.9042169000022,None,2,h,,,,,,,,,,,,,,,,,,3_4,001,2021_Feb_23_1625,ComputerHuman,2020.1.3,59.87256722642098,
Sychronize.jpg,Number10.jpg,,Human,Human.xlsx,2,h,10,,,,,0,4,4,6,0,8,8,8,,,,,,,,,,,,,,,,,,,,,,,,,,,,,,,,,,,,,,,,,,,,,,,,,,,,,,,,,,,,,1308.9237579000182,None,1308.9237579000182,None,1309.4022570000088,None,1309.4022570000088,None,"['v', 't']","[8.39473289999296, 8.50154399999883]",1309.4022570000088,None,8.39473289999296,8.50154399999883,10,False,False,False,1320.2041660000104,None,1320.2041660000104,None,1320.2041660000104,None,1320.2041660000104,None,1320.2041660000104,None,1320.2041660000104,None,1320.2041660000104,None,1320.2041660000104,None,1321.227463999996,None,1321.227463999996,None,2,h,,,,,,,,,,,,,,,,,,3_4,001,2021_Feb_23_1625,ComputerHuman,2020.1.3,59.87256722642098,
Sychronize.jpg,Number9.jpg,,Human,Human.xlsx,2,h,9,,,,,0,4,4,6,0,9,9,6,,,,,,,,,,,,,,,,,,,,,,,,,,,,,,,,,,,,,,,,,,,,,,,,,,,,,,,,,,,,,1322.237379600003,None,1322.237379600003,None,1322.7063830000116,None,1322.7063830000116,None,"['t', 'v']","[7.039039099996444, 7.357985699985875]",1322.7063830000116,None,7.357985699985875,7.039039099996444,9,False,False,False,1334.5475616000185,None,1334.5475616000185,None,1334.5475616000185,None,1334.5475616000185,None,1334.5475616000185,None,1334.5475616000185,None,1334.5475616000185,None,1334.5475616000185,None,1335.561737000011,None,1335.561737000011,None,2,h,,,,,,,,,,,,,,,,,,3_4,001,2021_Feb_23_1625,ComputerHuman,2020.1.3,59.87256722642098,
,,,,Human.xlsx,2,h,,,,,,0,4,4,6,,,,,,,,,,,,,,,,,,,,,,,,,,,,,,,,,,,,,,,,,,,,,,,,,,,,,,,,,,,,,,,,,,,,,,,,,,,,,,,,,,,,,,,,,,,,,,,,,,,,,,,2,h,1336.5583377000003,None,h,1,3.673214700014796,1337.555903600005,None,1341.2649859999947,None,None,None,None,None,None,,,,3_4,001,2021_Feb_23_1625,ComputerHuman,2020.1.3,59.87256722642098,
Sychronize.jpg,Number7.jpg,,Computer,Computer.xlsx,1,c,7,,,,,0,5,5,1,0,0,0,2,,,,,,,,,,,,,,,,,,,,,,,,,,,,,,,,,,,,,,,,,,,,,,,,,,,,,,,,,1346.3027903000184,None,1346.3027903000184,None,1349.3140055999975,None,1349.3140055999975,None,1349.7940262000193,None,1349.7940262000193,None,"['v', 't']","[5.718061099993065, 5.813671100011561]",1349.7940262000193,None,5.718061099993065,5.813671100011561,7,False,False,False,1357.2641495999997,None,1357.2641495999997,None,1357.2641495999997,None,1357.2641495999997,None,1357.2641495999997,None,1357.2641495999997,None,1357.2641495999997,None,1357.2641495999997,None,1358.265027800022,None,1358.265027800022,None,1,c,,,,,,,,,,,,,,,,,,3_4,001,2021_Feb_23_1625,ComputerHuman,2020.1.3,59.87256722642098,
Sychronize.jpg,Number8.jpg,,Computer,Computer.xlsx,1,c,8,,,,,0,5,5,1,0,1,1,5,,,,,,,,,,,,,,,,,,,,,,,,,,,,,,,,,,,,,,,,,,,,,,,,,,,,,,,,,,,,,1359.2837213000166,None,1359.2837213000166,None,1359.7851970000193,None,1359.7851970000193,None,"['v', 't']","[6.047624300001189, 7.022284700011369]",1359.7851970000193,None,6.047624300001189,7.022284700011369,8,False,False,False,1368.9988197000057,None,1368.9988197000057,None,1368.9988197000057,None,1368.9988197000057,None,1368.9988197000057,None,1368.9988197000057,None,1368.9988197000057,None,1368.9988197000057,None,1370.0167655000114,None,1370.0167655000114,None,1,c,,,,,,,,,,,,,,,,,,3_4,001,2021_Feb_23_1625,ComputerHuman,2020.1.3,59.87256722642098,
Sychronize.jpg,Number9.jpg,,Computer,Computer.xlsx,1,c,9,,,,,0,5,5,1,0,2,2,7,,,,,,,,,,,,,,,,,,,,,,,,,,,,,,,,,,,,,,,,,,,,,,,,,,,,,,,,,,,,,1371.0368079000036,None,1371.0368079000036,None,1371.5151420000184,None,1371.5151420000184,None,"['t', 'v']","[7.929749899980379, 9.12974919998669]",1371.5151420000184,None,9.12974919998669,7.929749899980379,9,False,False,False,1384.2174597000121,None,1384.2174597000121,None,1384.2174597000121,None,1384.2174597000121,None,1384.2174597000121,None,1384.2174597000121,None,1384.2174597000121,None,1384.2174597000121,None,1385.2370991000207,None,1385.2370991000207,None,1,c,,,,,,,,,,,,,,,,,,3_4,001,2021_Feb_23_1625,ComputerHuman,2020.1.3,59.87256722642098,
Sychronize.jpg,Number9.jpg,,Computer,Computer.xlsx,1,c,9,,,,,0,5,5,1,0,3,3,6,,,,,,,,,,,,,,,,,,,,,,,,,,,,,,,,,,,,,,,,,,,,,,,,,,,,,,,,,,,,,1386.243045900017,None,1386.243045900017,None,1386.7347149999987,None,1386.7347149999987,None,"['t', 'v']","[8.002064100001007, 9.518105499999365]",1386.7347149999987,None,9.518105499999365,8.002064100001007,9,False,False,False,1399.7213410999975,None,1399.7213410999975,None,1399.7213410999975,None,1399.7213410999975,None,1399.7213410999975,None,1399.7213410999975,None,1399.7213410999975,None,1399.7213410999975,None,1400.7404412000033,None,1400.7404412000033,None,1,c,,,,,,,,,,,,,,,,,,3_4,001,2021_Feb_23_1625,ComputerHuman,2020.1.3,59.87256722642098,
Sychronize.jpg,Number6.jpg,,Computer,Computer.xlsx,1,c,6,,,,,0,5,5,1,0,4,4,1,,,,,,,,,,,,,,,,,,,,,,,,,,,,,,,,,,,,,,,,,,,,,,,,,,,,,,,,,,,,,1401.7670914000191,None,1401.7670914000191,None,1402.2594393000181,None,1402.2594393000181,None,"['v', 't']","[4.426226799987489, 5.960330599977169]",1402.2594393000181,None,4.426226799987489,5.960330599977169,6,False,False,False,1410.2299716999987,None,1410.2299716999987,None,1410.2299716999987,None,1410.2299716999987,None,1410.2299716999987,None,1410.2299716999987,None,1410.2299716999987,None,1410.2299716999987,None,1411.2615700000024,None,1411.2615700000024,None,1,c,,,,,,,,,,,,,,,,,,3_4,001,2021_Feb_23_1625,ComputerHuman,2020.1.3,59.87256722642098,
Sychronize.jpg,Number8.jpg,,Computer,Computer.xlsx,1,c,8,,,,,0,5,5,1,0,5,5,4,,,,,,,,,,,,,,,,,,,,,,,,,,,,,,,,,,,,,,,,,,,,,,,,,,,,,,,,,,,,,1412.2621707000071,None,1412.2621707000071,None,1412.7398659000173,None,1412.7398659000173,None,"['t', 'v']","[7.325145599985262, 8.50931149997632]",1412.7398659000173,None,8.50931149997632,7.325145599985262,8,False,False,False,1424.2147162000183,None,1424.2147162000183,None,1424.2147162000183,None,1424.2147162000183,None,1424.2147162000183,None,1424.2147162000183,None,1424.2147162000183,None,1424.2147162000183,None,1425.2283362000016,None,1425.2283362000016,None,1,c,,,,,,,,,,,,,,,,,,3_4,001,2021_Feb_23_1625,ComputerHuman,2020.1.3,59.87256722642098,
Sychronize.jpg,Number6.jpg,,Computer,Computer.xlsx,1,c,6,,,,,0,5,5,1,0,6,6,0,,,,,,,,,,,,,,,,,,,,,,,,,,,,,,,,,,,,,,,,,,,,,,,,,,,,,,,,,,,,,1426.2480595000088,None,1426.2480595000088,None,1426.7472506000195,None,1426.7472506000195,None,"['t', 'v']","[4.908192200004123, 6.281408699986059]",1426.7472506000195,None,6.281408699986059,4.908192200004123,6,False,False,False,1435.2789185000001,None,1435.2789185000001,None,1435.2789185000001,None,1435.2789185000001,None,1435.2789185000001,None,1435.2789185000001,None,1435.2789185000001,None,1435.2789185000001,None,1436.2971115999972,None,1436.2971115999972,None,1,c,,,,,,,,,,,,,,,,,,3_4,001,2021_Feb_23_1625,ComputerHuman,2020.1.3,59.87256722642098,
Sychronize.jpg,Number10.jpg,,Computer,Computer.xlsx,1,c,10,,,,,0,5,5,1,0,7,7,9,,,,,,,,,,,,,,,,,,,,,,,,,,,,,,,,,,,,,,,,,,,,,,,,,,,,,,,,,,,,,1437.2996329000161,None,1437.2996329000161,None,1437.796499899996,None,1437.796499899996,None,"['t', 'v']","[9.406852200016147, 9.611360400012927]",1437.796499899996,None,9.611360400012927,9.406852200016147,10,False,False,False,1451.6980844000063,None,1451.6980844000063,None,1451.6980844000063,None,1451.6980844000063,None,1451.6980844000063,None,1451.6980844000063,None,1451.6980844000063,None,1451.6980844000063,None,1452.7173139000079,None,1452.7173139000079,None,1,c,,,,,,,,,,,,,,,,,,3_4,001,2021_Feb_23_1625,ComputerHuman,2020.1.3,59.87256722642098,
Sychronize.jpg,Number7.jpg,,Computer,Computer.xlsx,1,c,7,,,,,0,5,5,1,0,8,8,3,,,,,,,,,,,,,,,,,,,,,,,,,,,,,,,,,,,,,,,,,,,,,,,,,,,,,,,,,,,,,1453.743198000011,None,1453.743198000011,None,1454.2164785000205,None,1454.2164785000205,None,"['v', 't']","[6.42056379999849, 6.74312810000265]",1454.2164785000205,None,6.42056379999849,6.74312810000265,7,False,False,False,1463.1086539000098,None,1463.1086539000098,None,1463.1086539000098,None,1463.1086539000098,None,1463.1086539000098,None,1463.1086539000098,None,1463.1086539000098,None,1463.1086539000098,None,1464.141079699999,None,1464.141079699999,None,1,c,,,,,,,,,,,,,,,,,,3_4,001,2021_Feb_23_1625,ComputerHuman,2020.1.3,59.87256722642098,
Sychronize.jpg,Number10.jpg,,Computer,Computer.xlsx,1,c,10,,,,,0,5,5,1,0,9,9,8,,,,,,,,,,,,,,,,,,,,,,,,,,,,,,,,,,,,,,,,,,,,,,,,,,,,,,,,,,,,,1465.1452776000078,None,1465.1452776000078,None,1465.6174436000001,None,1465.6174436000001,None,"['t', 'v']","[8.777922999986913, 9.67171139997663]",1465.6174436000001,None,9.67171139997663,8.777922999986913,10,False,False,False,1478.752696600015,None,1478.752696600015,None,1478.752696600015,None,1478.752696600015,None,1478.752696600015,None,1478.752696600015,None,1478.752696600015,None,1478.752696600015,None,1479.755899700016,None,1479.755899700016,None,1,c,,,,,,,,,,,,,,,,,,3_4,001,2021_Feb_23_1625,ComputerHuman,2020.1.3,59.87256722642098,
,,,,Computer.xlsx,1,c,,,,,,0,5,5,1,,,,,,,,,,,,,,,,,,,,,,,,,,,,,,,,,,,,,,,,,,,,,,,,,,,,,,,,,,,,,,,,,,,,,,,,,,,,,,,,,,,,,,,,,,,,,,,,,,,,,,,1,c,1480.7556736000115,None,c,1,1.4687935000110883,1481.752057100006,None,1483.245075600018,None,None,None,None,None,None,,,,3_4,001,2021_Feb_23_1625,ComputerHuman,2020.1.3,59.87256722642098,
Sychronize.jpg,Number7.jpg,,Computer,Computer.xlsx,1,c,7,,,,,0,6,6,3,0,0,0,3,,,,,,,,,,,,,,,,,,,,,,,,,,,,,,,,,,,,,,,,,,,,,,,,,,,,,,,,,1488.2592385000025,None,1488.2592385000025,None,1491.3114455000032,None,1491.3114455000032,None,1491.7728594000218,None,1491.7728594000218,None,"['v', 't']","[6.035909199999878, 6.458901000005426]",1491.7728594000218,None,6.035909199999878,6.458901000005426,7,False,False,False,1500.6459550000145,None,1500.6459550000145,None,1500.6459550000145,None,1500.6459550000145,None,1500.6459550000145,None,1500.6459550000145,None,1500.6459550000145,None,1500.6459550000145,None,1501.6613093000196,None,1501.6613093000196,None,1,c,,,,,,,,,,,,,,,,,,3_4,001,2021_Feb_23_1625,ComputerHuman,2020.1.3,59.87256722642098,
Sychronize.jpg,Number10.jpg,,Computer,Computer.xlsx,1,c,10,,,,,0,6,6,3,0,1,1,8,,,,,,,,,,,,,,,,,,,,,,,,,,,,,,,,,,,,,,,,,,,,,,,,,,,,,,,,,,,,,1502.68584250001,None,1502.68584250001,None,1503.1584202999948,None,1503.1584202999948,None,"['t', 'v']","[9.054585499980021, 9.173531599983107]",1503.1584202999948,None,9.173531599983107,9.054585499980021,10,False,False,False,1515.9873498000088,None,1515.9873498000088,None,1515.9873498000088,None,1515.9873498000088,None,1515.9873498000088,None,1515.9873498000088,None,1515.9873498000088,None,1515.9873498000088,None,1516.9970965000102,None,1516.9970965000102,None,1,c,,,,,,,,,,,,,,,,,,3_4,001,2021_Feb_23_1625,ComputerHuman,2020.1.3,59.87256722642098,
Sychronize.jpg,Number10.jpg,,Computer,Computer.xlsx,1,c,10,,,,,0,6,6,3,0,2,2,9,,,,,,,,,,,,,,,,,,,,,,,,,,,,,,,,,,,,,,,,,,,,,,,,,,,,,,,,,,,,,1518.0168579000165,None,1518.0168579000165,None,1518.4961014,None,1518.4961014,None,"['t', 'v']","[8.320430699997814, 8.48751729997457]",1518.4961014,None,8.48751729997457,8.320430699997814,10,False,False,False,1530.941633200011,None,1530.941633200011,None,1530.941633200011,None,1530.941633200011,None,1530.941633200011,None,1530.941633200011,None,1530.941633200011,None,1530.941633200011,None,1531.9502839000197,None,1531.9502839000197,None,1,c,,,,,,,,,,,,,,,,,,3_4,001,2021_Feb_23_1625,ComputerHuman,2020.1.3,59.87256722642098,
Sychronize.jpg,Number8.jpg,,Computer,Computer.xlsx,1,c,8,,,,,0,6,6,3,0,3,3,5,,,,,,,,,,,,,,,,,,,,,,,,,,,,,,,,,,,,,,,,,,,,,,,,,,,,,,,,,,,,,1532.9761860000144,None,1532.9761860000144,None,1533.4479744000128,None,1533.4479744000128,None,"['t', 'v']","[7.2210959999938495, 7.93157610000344]",1533.4479744000128,None,7.93157610000344,7.2210959999938495,8,False,False,False,1544.9334931000194,None,1544.9334931000194,None,1544.9334931000194,None,1544.9334931000194,None,1544.9334931000194,None,1544.9334931000194,None,1544.9334931000194,None,1544.9334931000194,None,1545.9527308999968,None,1545.9527308999968,None,1,c,,,,,,,,,,,,,,,,,,3_4,001,2021_Feb_23_1625,ComputerHuman,2020.1.3,59.87256722642098,
Sychronize.jpg,Number8.jpg,,Computer,Computer.xlsx,1,c,8,,,,,0,6,6,3,0,4,4,4,,,,,,,,,,,,,,,,,,,,,,,,,,,,,,,,,,,,,,,,,,,,,,,,,,,,,,,,,,,,,1546.9581668000028,None,1546.9581668000028,None,1547.4733272000158,None,1547.4733272000158,None,"['v', 't']","[7.199664499989012, 7.974375099991448]",1547.4733272000158,None,7.199664499989012,7.974375099991448,8,False,False,False,1557.9549727000121,None,1557.9549727000121,None,1557.9549727000121,None,1557.9549727000121,None,1557.9549727000121,None,1557.9549727000121,None,1557.9549727000121,None,1557.9549727000121,None,1558.977724299999,None,1558.977724299999,None,1,c,,,,,,,,,,,,,,,,,,3_4,001,2021_Feb_23_1625,ComputerHuman,2020.1.3,59.87256722642098,
Sychronize.jpg,Number6.jpg,,Computer,Computer.xlsx,1,c,6,,,,,0,6,6,3,0,5,5,1,,,,,,,,,,,,,,,,,,,,,,,,,,,,,,,,,,,,,,,,,,,,,,,,,,,,,,,,,,,,,1559.98513310001,None,1559.98513310001,None,1560.4546671000135,None,1560.4546671000135,None,"['t', 'v']","[5.281341999972938, 6.410058399982518]",1560.4546671000135,None,6.410058399982518,5.281341999972938,6,False,False,False,1570.2944633000006,None,1570.2944633000006,None,1570.2944633000006,None,1570.2944633000006,None,1570.2944633000006,None,1570.2944633000006,None,1570.2944633000006,None,1570.2944633000006,None,1571.3084624000185,None,1571.3084624000185,None,1,c,,,,,,,,,,,,,,,,,,3_4,001,2021_Feb_23_1625,ComputerHuman,2020.1.3,59.87256722642098,
Sychronize.jpg,Number9.jpg,,Computer,Computer.xlsx,1,c,9,,,,,0,6,6,3,0,6,6,6,,,,,,,,,,,,,,,,,,,,,,,,,,,,,,,,,,,,,,,,,,,,,,,,,,,,,,,,,,,,,1572.3340480000188,None,1572.3340480000188,None,1572.8058737000101,None,1572.8058737000101,None,"['v', 't']","[7.8306980000052135, 9.517880200000945]",1572.8058737000101,None,7.8306980000052135,9.517880200000945,9,False,False,False,1584.6644444999984,None,1584.6644444999984,None,1584.6644444999984,None,1584.6644444999984,None,1584.6644444999984,None,1584.6644444999984,None,1584.6644444999984,None,1584.6644444999984,None,1585.6772671999934,None,1585.6772671999934,None,1,c,,,,,,,,,,,,,,,,,,3_4,001,2021_Feb_23_1625,ComputerHuman,2020.1.3,59.87256722642098,
Sychronize.jpg,Number7.jpg,,Computer,Computer.xlsx,1,c,7,,,,,0,6,6,3,0,7,7,2,,,,,,,,,,,,,,,,,,,,,,,,,,,,,,,,,,,,,,,,,,,,,,,,,,,,,,,,,,,,,1586.6971985000127,None,1586.6971985000127,None,1587.1752627000096,None,1587.1752627000096,None,"['t', 'v']","[6.456524900015211, 6.464277999999467]",1587.1752627000096,None,6.464277999999467,6.456524900015211,7,False,False,False,1596.0329703000025,None,1596.0329703000025,None,1596.0329703000025,None,1596.0329703000025,None,1596.0329703000025,None,1596.0329703000025,None,1596.0329703000025,None,1596.0329703000025,None,1597.0466194000037,None,1597.0466194000037,None,1,c,,,,,,,,,,,,,,,,,,3_4,001,2021_Feb_23_1625,ComputerHuman,2020.1.3,59.87256722642098,
Sychronize.jpg,Number6.jpg,,Computer,Computer.xlsx,1,c,6,,,,,0,6,6,3,0,8,8,0,,,,,,,,,,,,,,,,,,,,,,,,,,,,,,,,,,,,,,,,,,,,,,,,,,,,,,,,,,,,,1598.072295399994,None,1598.072295399994,None,1598.5461307000078,None,1598.5461307000078,None,"['t', 'v']","[5.497667099989485, 5.553966300009051]",1598.5461307000078,None,5.553966300009051,5.497667099989485,6,False,False,False,1608.0846722999995,None,1608.0846722999995,None,1608.0846722999995,None,1608.0846722999995,None,1608.0846722999995,None,1608.0846722999995,None,1608.0846722999995,None,1608.0846722999995,None,1609.0994572000054,None,1609.0994572000054,None,1,c,,,,,,,,,,,,,,,,,,3_4,001,2021_Feb_23_1625,ComputerHuman,2020.1.3,59.87256722642098,
Sychronize.jpg,Number9.jpg,,Computer,Computer.xlsx,1,c,9,,,,,0,6,6,3,0,9,9,7,,,,,,,,,,,,,,,,,,,,,,,,,,,,,,,,,,,,,,,,,,,,,,,,,,,,,,,,,,,,,1610.125000400003,None,1610.125000400003,None,1610.6164550000103,None,1610.6164550000103,None,"['t', 'v']","[7.330917699990096, 8.104283799999394]",1610.6164550000103,None,8.104283799999394,7.330917699990096,9,False,False,False,1621.4247085000097,None,1621.4247085000097,None,1621.4247085000097,None,1621.4247085000097,None,1621.4247085000097,None,1621.4247085000097,None,1621.4247085000097,None,1621.4247085000097,None,1622.4349523000128,None,1622.4349523000128,None,1,c,,,,,,,,,,,,,,,,,,3_4,001,2021_Feb_23_1625,ComputerHuman,2020.1.3,59.87256722642098,
,,,,Computer.xlsx,1,c,,,,,,0,6,6,3,,,,,,,,,,,,,,,,,,,,,,,,,,,,,,,,,,,,,,,,,,,,,,,,,,,,,,,,,,,,,,,,,,,,,,,,,,,,,,,,,,,,,,,,,,,,,,,,,,,,,,,1,c,1623.4332013000094,None,h,0,1.550247400009539,1624.4143627000158,None,1625.9908743000124,None,None,None,None,None,None,,,,3_4,001,2021_Feb_23_1625,ComputerHuman,2020.1.3,59.87256722642098,
Sychronize.jpg,Number9.jpg,,Human,Human.xlsx,2,h,9,,,,,0,7,7,4,0,0,0,7,,,,,,,,,,,,,,,,,,,,,,,,,,,,,,,,,,,,,,,,,,,,,,,,,,,,,,,,,1631.0252781000163,None,1631.0252781000163,None,1634.0400022999966,None,1634.0400022999966,None,1634.5183114999963,None,1634.5183114999963,None,"['t', 'v']","[7.678824900009204, 8.59449059999315]",1634.5183114999963,None,8.59449059999315,7.678824900009204,9,False,False,False,1646.4766553000081,None,1646.4766553000081,None,1646.4766553000081,None,1646.4766553000081,None,1646.4766553000081,None,1646.4766553000081,None,1646.4766553000081,None,1646.4766553000081,None,1647.4901759000204,None,1647.4901759000204,None,2,h,,,,,,,,,,,,,,,,,,3_4,001,2021_Feb_23_1625,ComputerHuman,2020.1.3,59.87256722642098,
Sychronize.jpg,Number10.jpg,,Human,Human.xlsx,2,h,10,,,,,0,7,7,4,0,1,1,9,,,,,,,,,,,,,,,,,,,,,,,,,,,,,,,,,,,,,,,,,,,,,,,,,,,,,,,,,,,,,1648.5097794000176,None,1648.5097794000176,None,1648.9878055000154,None,1648.9878055000154,None,"['t', 'v']","[8.244830100011313, 8.935705000010785]",1648.9878055000154,None,8.935705000010785,8.244830100011313,10,False,False,False,1662.0230482000043,None,1662.0230482000043,None,1662.0230482000043,None,1662.0230482000043,None,1662.0230482000043,None,1662.0230482000043,None,1662.0230482000043,None,1662.0230482000043,None,1663.0267485000077,None,1663.0267485000077,None,2,h,,,,,,,,,,,,,,,,,,3_4,001,2021_Feb_23_1625,ComputerHuman,2020.1.3,59.87256722642098,
Sychronize.jpg,Number7.jpg,,Human,Human.xlsx,2,h,7,,,,,0,7,7,4,0,2,2,3,,,,,,,,,,,,,,,,,,,,,,,,,,,,,,,,,,,,,,,,,,,,,,,,,,,,,,,,,,,,,1664.0458885999979,None,1664.0458885999979,None,1664.5442915000021,None,1664.5442915000021,None,"['t', 'v']","[5.200539100012975, 5.936790600011591]",1664.5442915000021,None,5.936790600011591,5.200539100012975,7,False,False,False,1674.047523700021,None,1674.047523700021,None,1674.047523700021,None,1674.047523700021,None,1674.047523700021,None,1674.047523700021,None,1674.047523700021,None,1674.047523700021,None,1675.0623210000049,None,1675.0623210000049,None,2,h,,,,,,,,,,,,,,,,,,3_4,001,2021_Feb_23_1625,ComputerHuman,2020.1.3,59.87256722642098,
Sychronize.jpg,Number9.jpg,,Human,Human.xlsx,2,h,9,,,,,0,7,7,4,0,3,3,6,,,,,,,,,,,,,,,,,,,,,,,,,,,,,,,,,,,,,,,,,,,,,,,,,,,,,,,,,,,,,1676.082073700003,None,1676.082073700003,None,1676.5616237000213,None,1676.5616237000213,None,"['v', 't']","[5.375153800006956, 10.386480299988762]",1676.5616237000213,None,5.375153800006956,10.386480299988762,9,False,False,False,1689.2638524000067,None,1689.2638524000067,None,1689.2638524000067,None,1689.2638524000067,None,1689.2638524000067,None,1689.2638524000067,None,1689.2638524000067,None,1689.2638524000067,None,1690.281828200008,None,1690.281828200008,None,2,h,,,,,,,,,,,,,,,,,,3_4,001,2021_Feb_23_1625,ComputerHuman,2020.1.3,59.87256722642098,
Sychronize.jpg,Number8.jpg,,Human,Human.xlsx,2,h,8,,,,,0,7,7,4,0,4,4,4,,,,,,,,,,,,,,,,,,,,,,,,,,,,,,,,,,,,,,,,,,,,,,,,,,,,,,,,,,,,,1691.3010293999978,None,1691.3010293999978,None,1691.779791500012,None,1691.779791500012,None,"['v', 't']","[8.195689500018489, 8.843942000006791]",1691.779791500012,None,8.195689500018489,8.843942000006791,8,False,False,False,1702.1924337999953,None,1702.1924337999953,None,1702.1924337999953,None,1702.1924337999953,None,1702.1924337999953,None,1702.1924337999953,None,1702.1924337999953,None,1702.1924337999953,None,1703.2011659000127,None,1703.2011659000127,None,2,h,,,,,,,,,,,,,,,,,,3_4,001,2021_Feb_23_1625,ComputerHuman,2020.1.3,59.87256722642098,
Sychronize.jpg,Number6.jpg,,Human,Human.xlsx,2,h,6,,,,,0,7,7,4,0,5,5,0,,,,,,,,,,,,,,,,,,,,,,,,,,,,,,,,,,,,,,,,,,,,,,,,,,,,,,,,,,,,,1704.2210826000082,None,1704.2210826000082,None,1704.719291300018,None,1704.719291300018,None,"['t', 'v']","[5.785415299993474, 6.28574779999326]",1704.719291300018,None,6.28574779999326,5.785415299993474,6,False,False,False,1714.901914999995,None,1714.901914999995,None,1714.901914999995,None,1714.901914999995,None,1714.901914999995,None,1714.901914999995,None,1714.901914999995,None,1714.901914999995,None,1715.9208040999947,None,1715.9208040999947,None,2,h,,,,,,,,,,,,,,,,,,3_4,001,2021_Feb_23_1625,ComputerHuman,2020.1.3,59.87256722642098,
Sychronize.jpg,Number6.jpg,,Human,Human.xlsx,2,h,6,,,,,0,7,7,4,0,6,6,1,,,,,,,,,,,,,,,,,,,,,,,,,,,,,,,,,,,,,,,,,,,,,,,,,,,,,,,,,,,,,1716.9229503000097,None,1716.9229503000097,None,1717.4228846000042,None,1717.4228846000042,None,"['v', 't']","[5.81391659998917, 6.688569999998435]",1717.4228846000042,None,5.81391659998917,6.688569999998435,6,False,False,False,1725.6631161000114,None,1725.6631161000114,None,1725.6631161000114,None,1725.6631161000114,None,1725.6631161000114,None,1725.6631161000114,None,1725.6631161000114,None,1725.6631161000114,None,1726.6724923000147,None,1726.6724923000147,None,2,h,,,,,,,,,,,,,,,,,,3_4,001,2021_Feb_23_1625,ComputerHuman,2020.1.3,59.87256722642098,
Sychronize.jpg,Number7.jpg,,Human,Human.xlsx,2,h,7,,,,,0,7,7,4,0,7,7,2,,,,,,,,,,,,,,,,,,,,,,,,,,,,,,,,,,,,,,,,,,,,,,,,,,,,,,,,,,,,,1727.6915335000085,None,1727.6915335000085,None,1728.1722690000024,None,1728.1722690000024,None,"['t', 'v']","[6.163579700019909, 7.652539600007003]",1728.1722690000024,None,7.652539600007003,6.163579700019909,7,False,False,False,1737.6392499000067,None,1737.6392499000067,None,1737.6392499000067,None,1737.6392499000067,None,1737.6392499000067,None,1737.6392499000067,None,1737.6392499000067,None,1737.6392499000067,None,1738.6585836000158,None,1738.6585836000158,None,2,h,,,,,,,,,,,,,,,,,,3_4,001,2021_Feb_23_1625,ComputerHuman,2020.1.3,59.87256722642098,
Sychronize.jpg,Number8.jpg,,Human,Human.xlsx,2,h,8,,,,,0,7,7,4,0,8,8,5,,,,,,,,,,,,,,,,,,,,,,,,,,,,,,,,,,,,,,,,,,,,,,,,,,,,,,,,,,,,,1739.666048700019,None,1739.666048700019,None,1740.1415100000158,None,1740.1415100000158,None,"['v', 't']","[6.598253099975409, 7.525576899992302]",1740.1415100000158,None,6.598253099975409,7.525576899992302,8,False,False,False,1749.4803779000067,None,1749.4803779000067,None,1749.4803779000067,None,1749.4803779000067,None,1749.4803779000067,None,1749.4803779000067,None,1749.4803779000067,None,1749.4803779000067,None,1750.49401580001,None,1750.49401580001,None,2,h,,,,,,,,,,,,,,,,,,3_4,001,2021_Feb_23_1625,ComputerHuman,2020.1.3,59.87256722642098,
Sychronize.jpg,Number10.jpg,,Human,Human.xlsx,2,h,10,,,,,0,7,7,4,0,9,9,8,,,,,,,,,,,,,,,,,,,,,,,,,,,,,,,,,,,,,,,,,,,,,,,,,,,,,,,,,,,,,1751.5144112000125,None,1751.5144112000125,None,1751.9941736000183,None,1751.9941736000183,None,"['v', 't']","[9.11865439999383, 9.869457299995702]",1751.9941736000183,None,9.11865439999383,9.869457299995702,10,False,False,False,1763.9437646000006,None,1763.9437646000006,None,1763.9437646000006,None,1763.9437646000006,None,1763.9437646000006,None,1763.9437646000006,None,1763.9437646000006,None,1763.9437646000006,None,1764.9469347000122,None,1764.9469347000122,None,2,h,,,,,,,,,,,,,,,,,,3_4,001,2021_Feb_23_1625,ComputerHuman,2020.1.3,59.87256722642098,
,,,,Human.xlsx,2,h,,,,,,0,7,7,4,,,,,,,,,,,,,,,,,,,,,,,,,,,,,,,,,,,,,,,,,,,,,,,,,,,,,,,,,,,,,,,,,,,,,,,,,,,,,,,,,,,,,,,,,,,,,,,,,,,,,,,2,h,1765.9468359000166,None,h,1,1.463772399991285,1766.9435396000044,None,None,None,1768.42975760001,None,"['space', 'space']",1769.42703240001,None,"[2.3257123999937903, 4.721066500002053]",,,3_4,001,2021_Feb_23_1625,ComputerHuman,2020.1.3,59.87256722642098,
Sychronize.jpg,Number7.jpg,,Computer,Computer.xlsx,2,c,7,,,,,1,0,8,7,0,0,0,2,,,,,,,,,,,,,,,,,,,,,,,,,,,,,,,,,,,,,,,,,,,,,,,,,,,,,,,,,1774.2042176999967,None,1774.2042176999967,None,1777.2192542999983,None,1777.2192542999983,None,1777.6974882000068,None,1777.6974882000068,None,"['t', 'v']","[5.542001599998912, 6.431113700004062]",1777.6974882000068,None,6.431113700004062,5.542001599998912,7,False,False,False,1787.8493805000035,None,1787.8493805000035,None,1787.8493805000035,None,1787.8493805000035,None,1787.8493805000035,None,1787.8493805000035,None,1787.8493805000035,None,1787.8493805000035,None,1788.8695043000043,None,1788.8695043000043,None,2,c,,,,,,,,,,,,,,,,,,3_4,001,2021_Feb_23_1625,ComputerHuman,2020.1.3,59.87256722642098,
Sychronize.jpg,Number8.jpg,,Computer,Computer.xlsx,2,c,8,,,,,1,0,8,7,0,1,1,5,,,,,,,,,,,,,,,,,,,,,,,,,,,,,,,,,,,,,,,,,,,,,,,,,,,,,,,,,,,,,1789.878201500018,None,1789.878201500018,None,1790.3680050999974,None,1790.3680050999974,None,"['t', 'v']","[6.896574699989287, 7.755347099999199]",1790.3680050999974,None,7.755347099999199,6.896574699989287,8,False,False,False,1800.9451747999992,None,1800.9451747999992,None,1800.9451747999992,None,1800.9451747999992,None,1800.9451747999992,None,1800.9451747999992,None,1800.9451747999992,None,1800.9451747999992,None,1801.955707999994,None,1801.955707999994,None,2,c,,,,,,,,,,,,,,,,,,3_4,001,2021_Feb_23_1625,ComputerHuman,2020.1.3,59.87256722642098,
Sychronize.jpg,Number8.jpg,,Computer,Computer.xlsx,2,c,8,,,,,1,0,8,7,0,2,2,4,,,,,,,,,,,,,,,,,,,,,,,,,,,,,,,,,,,,,,,,,,,,,,,,,,,,,,,,,,,,,1802.9742660000047,None,1802.9742660000047,None,1803.452647099999,None,1803.452647099999,None,"['t', 'v']","[6.992167399992468, 7.582628400006797]",1803.452647099999,None,7.582628400006797,6.992167399992468,8,False,False,False,1814.4790072000178,None,1814.4790072000178,None,1814.4790072000178,None,1814.4790072000178,None,1814.4790072000178,None,1814.4790072000178,None,1814.4790072000178,None,1814.4790072000178,None,1815.4910918000096,None,1815.4910918000096,None,2,c,,,,,,,,,,,,,,,,,,3_4,001,2021_Feb_23_1625,ComputerHuman,2020.1.3,59.87256722642098,
Sychronize.jpg,Number10.jpg,,Computer,Computer.xlsx,2,c,10,,,,,1,0,8,7,0,3,3,8,,,,,,,,,,,,,,,,,,,,,,,,,,,,,,,,,,,,,,,,,,,,,,,,,,,,,,,,,,,,,1816.5106719000032,None,1816.5106719000032,None,1816.9889932000078,None,1816.9889932000078,None,"['t', 'v']","[9.131046800001059, 9.435699900001055]",1816.9889932000078,None,9.435699900001055,9.131046800001059,10,False,False,False,1830.1291580999969,None,1830.1291580999969,None,1830.1291580999969,None,1830.1291580999969,None,1830.1291580999969,None,1830.1291580999969,None,1830.1291580999969,None,1830.1291580999969,None,1831.143922200019,None,1831.143922200019,None,2,c,,,,,,,,,,,,,,,,,,3_4,001,2021_Feb_23_1625,ComputerHuman,2020.1.3,59.87256722642098,
Sychronize.jpg,Number10.jpg,,Computer,Computer.xlsx,2,c,10,,,,,1,0,8,7,0,4,4,9,,,,,,,,,,,,,,,,,,,,,,,,,,,,,,,,,,,,,,,,,,,,,,,,,,,,,,,,,,,,,1832.164091100014,None,1832.164091100014,None,1832.6416102999938,None,1832.6416102999938,None,"['v', 't']","[9.347120599995833, 9.650205699988874]",1832.6416102999938,None,9.347120599995833,9.650205699988874,10,False,False,False,1844.8110197000206,None,1844.8110197000206,None,1844.8110197000206,None,1844.8110197000206,None,1844.8110197000206,None,1844.8110197000206,None,1844.8110197000206,None,1844.8110197000206,None,1845.8304159000108,None,1845.8304159000108,None,2,c,,,,,,,,,,,,,,,,,,3_4,001,2021_Feb_23_1625,ComputerHuman,2020.1.3,59.87256722642098,
Sychronize.jpg,Number7.jpg,,Computer,Computer.xlsx,2,c,7,,,,,1,0,8,7,0,5,5,3,,,,,,,,,,,,,,,,,,,,,,,,,,,,,,,,,,,,,,,,,,,,,,,,,,,,,,,,,,,,,1846.837332199997,None,1846.837332199997,None,1847.3281144000066,None,1847.3281144000066,None,"['v', 't']","[6.604674400005024, 7.331645900005242]",1847.3281144000066,None,6.604674400005024,7.331645900005242,7,False,False,False,1857.040198200004,None,1857.040198200004,None,1857.040198200004,None,1857.040198200004,None,1857.040198200004,None,1857.040198200004,None,1857.040198200004,None,1857.040198200004,None,1858.0502607999952,None,1858.0502607999952,None,2,c,,,,,,,,,,,,,,,,,,3_4,001,2021_Feb_23_1625,ComputerHuman,2020.1.3,59.87256722642098,
Sychronize.jpg,Number6.jpg,,Computer,Computer.xlsx,2,c,6,,,,,1,0,8,7,0,6,6,1,,,,,,,,,,,,,,,,,,,,,,,,,,,,,,,,,,,,,,,,,,,,,,,,,,,,,,,,,,,,,1859.0745216000068,None,1859.0745216000068,None,1859.5486715000006,None,1859.5486715000006,None,"['v', 't']","[5.219990500016138, 5.554727900016587]",1859.5486715000006,None,5.219990500016138,5.554727900016587,6,False,False,False,1866.9157857999962,None,1866.9157857999962,None,1866.9157857999962,None,1866.9157857999962,None,1866.9157857999962,None,1866.9157857999962,None,1866.9157857999962,None,1866.9157857999962,None,1867.93487550001,None,1867.93487550001,None,2,c,,,,,,,,,,,,,,,,,,3_4,001,2021_Feb_23_1625,ComputerHuman,2020.1.3,59.87256722642098,
Sychronize.jpg,Number9.jpg,,Computer,Computer.xlsx,2,c,9,,,,,1,0,8,7,0,7,7,6,,,,,,,,,,,,,,,,,,,,,,,,,,,,,,,,,,,,,,,,,,,,,,,,,,,,,,,,,,,,,1868.9584271000058,None,1868.9584271000058,None,1869.4328402999963,None,1869.4328402999963,None,"['v', 't']","[9.408436400000937, 9.634766799979843]",1869.4328402999963,None,9.408436400000937,9.634766799979843,9,False,False,False,1880.8281840000127,None,1880.8281840000127,None,1880.8281840000127,None,1880.8281840000127,None,1880.8281840000127,None,1880.8281840000127,None,1880.8281840000127,None,1880.8281840000127,None,1881.837466900004,None,1881.837466900004,None,2,c,,,,,,,,,,,,,,,,,,3_4,001,2021_Feb_23_1625,ComputerHuman,2020.1.3,59.87256722642098,
Sychronize.jpg,Number6.jpg,,Computer,Computer.xlsx,2,c,6,,,,,1,0,8,7,0,8,8,0,,,,,,,,,,,,,,,,,,,,,,,,,,,,,,,,,,,,,,,,,,,,,,,,,,,,,,,,,,,,,1882.8573734000092,None,1882.8573734000092,None,1883.339619300008,None,1883.339619300008,None,"['v', 't']","[5.3694534999958705, 5.44142550000106]",1883.339619300008,None,5.3694534999958705,5.44142550000106,6,False,False,False,1890.758856600005,None,1890.758856600005,None,1890.758856600005,None,1890.758856600005,None,1890.758856600005,None,1890.758856600005,None,1890.758856600005,None,1890.758856600005,None,1891.773069100018,None,1891.773069100018,None,2,c,,,,,,,,,,,,,,,,,,3_4,001,2021_Feb_23_1625,ComputerHuman,2020.1.3,59.87256722642098,
Sychronize.jpg,Number9.jpg,,Computer,Computer.xlsx,2,c,9,,,,,1,0,8,7,0,9,9,7,,,,,,,,,,,,,,,,,,,,,,,,,,,,,,,,,,,,,,,,,,,,,,,,,,,,,,,,,,,,,1892.799621800019,None,1892.799621800019,None,1893.270955600019,None,1893.270955600019,None,"['t', 'v']","[7.921727599983569, 8.26489930000389]",1893.270955600019,None,8.26489930000389,7.921727599983569,9,False,False,False,1905.0443670999957,None,1905.0443670999957,None,1905.0443670999957,None,1905.0443670999957,None,1905.0443670999957,None,1905.0443670999957,None,1905.0443670999957,None,1905.0443670999957,None,1906.0590651000093,None,1906.0590651000093,None,2,c,,,,,,,,,,,,,,,,,,3_4,001,2021_Feb_23_1625,ComputerHuman,2020.1.3,59.87256722642098,
,,,,Computer.xlsx,2,c,,,,,,1,0,8,7,,,,,,,,,,,,,,,,,,,,,,,,,,,,,,,,,,,,,,,,,,,,,,,,,,,,,,,,,,,,,,,,,,,,,,,,,,,,,,,,,,,,,,,,,,,,,,,,,,,,,,,2,c,1907.0586974000034,None,c,1,1.9162705000198912,1908.0549634000054,None,1910.0123653000046,None,None,None,None,None,None,,,,3_4,001,2021_Feb_23_1625,ComputerHuman,2020.1.3,59.87256722642098,
Sychronize.jpg,Number9.jpg,,Computer,Computer.xlsx,1,c,9,,,,,1,1,9,3,0,0,0,7,,,,,,,,,,,,,,,,,,,,,,,,,,,,,,,,,,,,,,,,,,,,,,,,,,,,,,,,,1915.0319929000107,None,1915.0319929000107,None,1918.0469035000133,None,1918.0469035000133,None,1918.5110182000208,None,1918.5110182000208,None,"['t', 'v']","[6.661893699987559, 8.109664699994028]",1918.5110182000208,None,8.109664699994028,6.661893699987559,9,False,False,False,1929.1180292000063,None,1929.1180292000063,None,1929.1180292000063,None,1929.1180292000063,None,1929.1180292000063,None,1929.1180292000063,None,1929.1180292000063,None,1929.1180292000063,None,1930.1325407999975,None,1930.1325407999975,None,1,c,,,,,,,,,,,,,,,,,,3_4,001,2021_Feb_23_1625,ComputerHuman,2020.1.3,59.87256722642098,
Sychronize.jpg,Number10.jpg,,Computer,Computer.xlsx,1,c,10,,,,,1,1,9,3,0,1,1,8,,,,,,,,,,,,,,,,,,,,,,,,,,,,,,,,,,,,,,,,,,,,,,,,,,,,,,,,,,,,,1931.1574488000188,None,1931.1574488000188,None,1931.6300129000156,None,1931.6300129000156,None,"['t', 'v']","[8.817804099991918, 9.930652000010014]",1931.6300129000156,None,9.930652000010014,8.817804099991918,10,False,False,False,1944.071392700018,None,1944.071392700018,None,1944.071392700018,None,1944.071392700018,None,1944.071392700018,None,1944.071392700018,None,1944.071392700018,None,1944.071392700018,None,1945.0852152000007,None,1945.0852152000007,None,1,c,,,,,,,,,,,,,,,,,,3_4,001,2021_Feb_23_1625,ComputerHuman,2020.1.3,59.87256722642098,
Sychronize.jpg,Number8.jpg,,Computer,Computer.xlsx,1,c,8,,,,,1,1,9,3,0,2,2,5,,,,,,,,,,,,,,,,,,,,,,,,,,,,,,,,,,,,,,,,,,,,,,,,,,,,,,,,,,,,,1946.1090945000178,None,1946.1090945000178,None,1946.5832419999933,None,1946.5832419999933,None,"['t', 'v']","[7.332625399983954, 7.7898944999906234]",1946.5832419999933,None,7.7898944999906234,7.332625399983954,8,False,False,False,1958.2669830000086,None,1958.2669830000086,None,1958.2669830000086,None,1958.2669830000086,None,1958.2669830000086,None,1958.2669830000086,None,1958.2669830000086,None,1958.2669830000086,None,1959.288411400019,None,1959.288411400019,None,1,c,,,,,,,,,,,,,,,,,,3_4,001,2021_Feb_23_1625,ComputerHuman,2020.1.3,59.87256722642098,
Sychronize.jpg,Number6.jpg,,Computer,Computer.xlsx,1,c,6,,,,,1,1,9,3,0,3,3,0,,,,,,,,,,,,,,,,,,,,,,,,,,,,,,,,,,,,,,,,,,,,,,,,,,,,,,,,,,,,,1960.2909114000213,None,1960.2909114000213,None,1960.7694791000104,None,1960.7694791000104,None,"['v', 't']","[5.997730500006583, 6.454115600005025]",1960.7694791000104,None,5.997730500006583,6.454115600005025,6,False,False,False,1968.9921568999998,None,1968.9921568999998,None,1968.9921568999998,None,1968.9921568999998,None,1968.9921568999998,None,1968.9921568999998,None,1968.9921568999998,None,1968.9921568999998,None,1969.9888513000042,None,1969.9888513000042,None,1,c,,,,,,,,,,,,,,,,,,3_4,001,2021_Feb_23_1625,ComputerHuman,2020.1.3,59.87256722642098,
Sychronize.jpg,Number10.jpg,,Computer,Computer.xlsx,1,c,10,,,,,1,1,9,3,0,4,4,9,,,,,,,,,,,,,,,,,,,,,,,,,,,,,,,,,,,,,,,,,,,,,,,,,,,,,,,,,,,,,1971.0148722000013,None,1971.0148722000013,None,1971.5093456000031,None,1971.5093456000031,None,"['t', 'v']","[8.847061900014523, 9.158148400019854]",1971.5093456000031,None,9.158148400019854,8.847061900014523,10,False,False,False,1984.02257500001,None,1984.02257500001,None,1984.02257500001,None,1984.02257500001,None,1984.02257500001,None,1984.02257500001,None,1984.02257500001,None,1984.02257500001,None,1985.0418384000077,None,1985.0418384000077,None,1,c,,,,,,,,,,,,,,,,,,3_4,001,2021_Feb_23_1625,ComputerHuman,2020.1.3,59.87256722642098,
Sychronize.jpg,Number7.jpg,,Computer,Computer.xlsx,1,c,7,,,,,1,1,9,3,0,5,5,3,,,,,,,,,,,,,,,,,,,,,,,,,,,,,,,,,,,,,,,,,,,,,,,,,,,,,,,,,,,,,1986.0442528999993,None,1986.0442528999993,None,1986.523237300018,None,1986.523237300018,None,"['t', 'v']","[5.993160199985141, 6.653446899988921]",1986.523237300018,None,6.653446899988921,5.993160199985141,7,False,False,False,1996.7126483000175,None,1996.7126483000175,None,1996.7126483000175,None,1996.7126483000175,None,1996.7126483000175,None,1996.7126483000175,None,1996.7126483000175,None,1996.7126483000175,None,1997.7293289999943,None,1997.7293289999943,None,1,c,,,,,,,,,,,,,,,,,,3_4,001,2021_Feb_23_1625,ComputerHuman,2020.1.3,59.87256722642098,
Sychronize.jpg,Number9.jpg,,Computer,Computer.xlsx,1,c,9,,,,,1,1,9,3,0,6,6,6,,,,,,,,,,,,,,,,,,,,,,,,,,,,,,,,,,,,,,,,,,,,,,,,,,,,,,,,,,,,,1998.7475175000145,None,1998.7475175000145,None,1999.2273512000102,None,1999.2273512000102,None,"['t', 'v']","[7.541713600017829, 9.321428300027037]",1999.2273512000102,None,9.321428300027037,7.541713600017829,9,False,False,False,2010.4999177000136,None,2010.4999177000136,None,2010.4999177000136,None,2010.4999177000136,None,2010.4999177000136,None,2010.4999177000136,None,2010.4999177000136,None,2010.4999177000136,None,2011.514319800015,None,2011.514319800015,None,1,c,,,,,,,,,,,,,,,,,,3_4,001,2021_Feb_23_1625,ComputerHuman,2020.1.3,59.87256722642098,
Sychronize.jpg,Number8.jpg,,Computer,Computer.xlsx,1,c,8,,,,,1,1,9,3,0,7,7,4,,,,,,,,,,,,,,,,,,,,,,,,,,,,,,,,,,,,,,,,,,,,,,,,,,,,,,,,,,,,,2012.5336667000083,None,2012.5336667000083,None,2013.0123388000065,None,2013.0123388000065,None,"['v', 't']","[6.604338399978587, 7.511302099999739]",2013.0123388000065,None,6.604338399978587,7.511302099999739,8,False,False,False,2022.9348963999946,None,2022.9348963999946,None,2022.9348963999946,None,2022.9348963999946,None,2022.9348963999946,None,2022.9348963999946,None,2022.9348963999946,None,2022.9348963999946,None,2023.9495226000145,None,2023.9495226000145,None,1,c,,,,,,,,,,,,,,,,,,3_4,001,2021_Feb_23_1625,ComputerHuman,2020.1.3,59.87256722642098,
Sychronize.jpg,Number6.jpg,,Computer,Computer.xlsx,1,c,6,,,,,1,1,9,3,0,8,8,1,,,,,,,,,,,,,,,,,,,,,,,,,,,,,,,,,,,,,,,,,,,,,,,,,,,,,,,,,,,,,2024.9695455000037,None,2024.9695455000037,None,2025.4478020000097,None,2025.4478020000097,None,"['t', 'v']","[5.632473099976778, 5.891679299995303]",2025.4478020000097,None,5.891679299995303,5.632473099976778,6,False,False,False,2034.6408764999942,None,2034.6408764999942,None,2034.6408764999942,None,2034.6408764999942,None,2034.6408764999942,None,2034.6408764999942,None,2034.6408764999942,None,2034.6408764999942,None,2035.635597000015,None,2035.635597000015,None,1,c,,,,,,,,,,,,,,,,,,3_4,001,2021_Feb_23_1625,ComputerHuman,2020.1.3,59.87256722642098,
Sychronize.jpg,Number7.jpg,,Computer,Computer.xlsx,1,c,7,,,,,1,1,9,3,0,9,9,2,,,,,,,,,,,,,,,,,,,,,,,,,,,,,,,,,,,,,,,,,,,,,,,,,,,,,,,,,,,,,2036.6546038000088,None,2036.6546038000088,None,2037.1388064000057,None,2037.1388064000057,None,"['v', 't']","[6.996782800008077, 7.200219799997285]",2037.1388064000057,None,6.996782800008077,7.200219799997285,7,False,False,False,2046.3475659000105,None,2046.3475659000105,None,2046.3475659000105,None,2046.3475659000105,None,2046.3475659000105,None,2046.3475659000105,None,2046.3475659000105,None,2046.3475659000105,None,2047.3755058000097,None,2047.3755058000097,None,1,c,,,,,,,,,,,,,,,,,,3_4,001,2021_Feb_23_1625,ComputerHuman,2020.1.3,59.87256722642098,
,,,,Computer.xlsx,1,c,,,,,,1,1,9,3,,,,,,,,,,,,,,,,,,,,,,,,,,,,,,,,,,,,,,,,,,,,,,,,,,,,,,,,,,,,,,,,,,,,,,,,,,,,,,,,,,,,,,,,,,,,,,,,,,,,,,,1,c,2048.3527233000204,None,c,1,7.598869000008563,2049.3340102999937,None,2056.9627353000105,None,None,None,None,None,None,,,,3_4,001,2021_Feb_23_1625,ComputerHuman,2020.1.3,59.87256722642098,
Sychronize.jpg,Number9.jpg,,Computer,Computer.xlsx,2,c,9,,,,,1,2,10,5,0,0,0,6,,,,,,,,,,,,,,,,,,,,,,,,,,,,,,,,,,,,,,,,,,,,,,,,,,,,,,,,,2061.9731902000203,None,2061.9731902000203,None,2065.01146910002,None,2065.01146910002,None,2065.4907938000106,None,2065.4907938000106,None,"['t', 'v']","[7.701935100019909, 8.062161400011973]",2065.4907938000106,None,8.062161400011973,7.701935100019909,9,False,False,False,2077.3159054999996,None,2077.3159054999996,None,2077.3159054999996,None,2077.3159054999996,None,2077.3159054999996,None,2077.3159054999996,None,2077.3159054999996,None,2077.3159054999996,None,2078.3286375000025,None,2078.3286375000025,None,2,c,,,,,,,,,,,,,,,,,,3_4,001,2021_Feb_23_1625,ComputerHuman,2020.1.3,59.87256722642098,
Sychronize.jpg,Number7.jpg,,Computer,Computer.xlsx,2,c,7,,,,,1,2,10,5,0,1,1,3,,,,,,,,,,,,,,,,,,,,,,,,,,,,,,,,,,,,,,,,,,,,,,,,,,,,,,,,,,,,,2079.353637000022,None,2079.353637000022,None,2079.8259653999994,None,2079.8259653999994,None,"['t', 'v']","[5.514762000006158, 6.202830599999288]",2079.8259653999994,None,6.202830599999288,5.514762000006158,7,False,False,False,2089.5820804999967,None,2089.5820804999967,None,2089.5820804999967,None,2089.5820804999967,None,2089.5820804999967,None,2089.5820804999967,None,2089.5820804999967,None,2089.5820804999967,None,2090.5971737999935,None,2090.5971737999935,None,2,c,,,,,,,,,,,,,,,,,,3_4,001,2021_Feb_23_1625,ComputerHuman,2020.1.3,59.87256722642098,
Sychronize.jpg,Number8.jpg,,Computer,Computer.xlsx,2,c,8,,,,,1,2,10,5,0,2,2,5,,,,,,,,,,,,,,,,,,,,,,,,,,,,,,,,,,,,,,,,,,,,,,,,,,,,,,,,,,,,,2091.616380599997,None,2091.616380599997,None,2092.096302300022,None,2092.096302300022,None,"['t', 'v']","[6.711471199989319, 8.152343399997335]",2092.096302300022,None,8.152343399997335,6.711471199989319,8,False,False,False,2102.946899500006,None,2102.946899500006,None,2102.946899500006,None,2102.946899500006,None,2102.946899500006,None,2102.946899500006,None,2102.946899500006,None,2102.946899500006,None,2103.94929780002,None,2103.94929780002,None,2,c,,,,,,,,,,,,,,,,,,3_4,001,2021_Feb_23_1625,ComputerHuman,2020.1.3,59.87256722642098,
Sychronize.jpg,Number8.jpg,,Computer,Computer.xlsx,2,c,8,,,,,1,2,10,5,0,3,3,4,,,,,,,,,,,,,,,,,,,,,,,,,,,,,,,,,,,,,,,,,,,,,,,,,,,,,,,,,,,,,2104.9719383000047,None,2104.9719383000047,None,2105.4474743000173,None,2105.4474743000173,None,"['t', 'v']","[7.885644800000591, 8.59341490000952]",2105.4474743000173,None,8.59341490000952,7.885644800000591,8,False,False,False,2116.8786806999997,None,2116.8786806999997,None,2116.8786806999997,None,2116.8786806999997,None,2116.8786806999997,None,2116.8786806999997,None,2116.8786806999997,None,2116.8786806999997,None,2117.8866288000136,None,2117.8866288000136,None,2,c,,,,,,,,,,,,,,,,,,3_4,001,2021_Feb_23_1625,ComputerHuman,2020.1.3,59.87256722642098,
Sychronize.jpg,Number10.jpg,,Computer,Computer.xlsx,2,c,10,,,,,1,2,10,5,0,4,4,9,,,,,,,,,,,,,,,,,,,,,,,,,,,,,,,,,,,,,,,,,,,,,,,,,,,,,,,,,,,,,2118.911663600011,None,2118.911663600011,None,2119.405239200016,None,2119.405239200016,None,"['t', 'v']","[7.607416899991222, 8.439762800000608]",2119.405239200016,None,8.439762800000608,7.607416899991222,10,False,False,False,2131.0401408000034,None,2131.0401408000034,None,2131.0401408000034,None,2131.0401408000034,None,2131.0401408000034,None,2131.0401408000034,None,2131.0401408000034,None,2131.0401408000034,None,2132.0558848000073,None,2132.0558848000073,None,2,c,,,,,,,,,,,,,,,,,,3_4,001,2021_Feb_23_1625,ComputerHuman,2020.1.3,59.87256722642098,
Sychronize.jpg,Number6.jpg,,Computer,Computer.xlsx,2,c,6,,,,,1,2,10,5,0,5,5,1,,,,,,,,,,,,,,,,,,,,,,,,,,,,,,,,,,,,,,,,,,,,,,,,,,,,,,,,,,,,,2133.0811786999984,None,2133.0811786999984,None,2133.5542728000146,None,2133.5542728000146,None,"['v', 't']","[5.886196000006748, 6.621173399995314]",2133.5542728000146,None,5.886196000006748,6.621173399995314,6,False,False,False,2141.864282800001,None,2141.864282800001,None,2141.864282800001,None,2141.864282800001,None,2141.864282800001,None,2141.864282800001,None,2141.864282800001,None,2141.864282800001,None,2142.873679400014,None,2142.873679400014,None,2,c,,,,,,,,,,,,,,,,,,3_4,001,2021_Feb_23_1625,ComputerHuman,2020.1.3,59.87256722642098,
Sychronize.jpg,Number6.jpg,,Computer,Computer.xlsx,2,c,6,,,,,1,2,10,5,0,6,6,0,,,,,,,,,,,,,,,,,,,,,,,,,,,,,,,,,,,,,,,,,,,,,,,,,,,,,,,,,,,,,2143.8934586000105,None,2143.8934586000105,None,2144.3739300000016,None,2144.3739300000016,None,"['t', 'v']","[4.949237199994968, 6.342673200007994]",2144.3739300000016,None,6.342673200007994,4.949237199994968,6,False,False,False,2153.0254886000184,None,2153.0254886000184,None,2153.0254886000184,None,2153.0254886000184,None,2153.0254886000184,None,2153.0254886000184,None,2153.0254886000184,None,2153.0254886000184,None,2154.0432340000116,None,2154.0432340000116,None,2,c,,,,,,,,,,,,,,,,,,3_4,001,2021_Feb_23_1625,ComputerHuman,2020.1.3,59.87256722642098,
Sychronize.jpg,Number10.jpg,,Computer,Computer.xlsx,2,c,10,,,,,1,2,10,5,0,7,7,8,,,,,,,,,,,,,,,,,,,,,,,,,,,,,,,,,,,,,,,,,,,,,,,,,,,,,,,,,,,,,2155.0696814999974,None,2155.0696814999974,None,2155.5409581999993,None,2155.5409581999993,None,"['t', 'v']","[7.97200900001917, 9.699659600009909]",2155.5409581999993,None,9.699659600009909,7.97200900001917,10,False,False,False,2167.9426754000015,None,2167.9426754000015,None,2167.9426754000015,None,2167.9426754000015,None,2167.9426754000015,None,2167.9426754000015,None,2167.9426754000015,None,2167.9426754000015,None,2168.9454640000185,None,2168.9454640000185,None,2,c,,,,,,,,,,,,,,,,,,3_4,001,2021_Feb_23_1625,ComputerHuman,2020.1.3,59.87256722642098,
Sychronize.jpg,Number9.jpg,,Computer,Computer.xlsx,2,c,9,,,,,1,2,10,5,0,8,8,7,,,,,,,,,,,,,,,,,,,,,,,,,,,,,,,,,,,,,,,,,,,,,,,,,,,,,,,,,,,,,2169.9652691000083,None,2169.9652691000083,None,2170.443771100021,None,2170.443771100021,None,"['t', 'v']","[7.837369499990018, 8.736145300004864]",2170.443771100021,None,8.736145300004864,7.837369499990018,9,False,False,False,2182.685685900011,None,2182.685685900011,None,2182.685685900011,None,2182.685685900011,None,2182.685685900011,None,2182.685685900011,None,2182.685685900011,None,2182.685685900011,None,2183.6989183000114,None,2183.6989183000114,None,2,c,,,,,,,,,,,,,,,,,,3_4,001,2021_Feb_23_1625,ComputerHuman,2020.1.3,59.87256722642098,
Sychronize.jpg,Number7.jpg,,Computer,Computer.xlsx,2,c,7,,,,,1,2,10,5,0,9,9,2,,,,,,,,,,,,,,,,,,,,,,,,,,,,,,,,,,,,,,,,,,,,,,,,,,,,,,,,,,,,,2184.723688099999,None,2184.723688099999,None,2185.198100800015,None,2185.198100800015,None,"['v', 't']","[6.922258799982956, 6.981047899986152]",2185.198100800015,None,6.922258799982956,6.981047899986152,7,False,False,False,2194.1709577,None,2194.1709577,None,2194.1709577,None,2194.1709577,None,2194.1709577,None,2194.1709577,None,2194.1709577,None,2194.1709577,None,2195.192782500002,None,2195.192782500002,None,2,c,,,,,,,,,,,,,,,,,,3_4,001,2021_Feb_23_1625,ComputerHuman,2020.1.3,59.87256722642098,
,,,,Computer.xlsx,2,c,,,,,,1,2,10,5,,,,,,,,,,,,,,,,,,,,,,,,,,,,,,,,,,,,,,,,,,,,,,,,,,,,,,,,,,,,,,,,,,,,,,,,,,,,,,,,,,,,,,,,,,,,,,,,,,,,,,,2,c,2196.1662904999976,None,h,0,2.4553040000027977,2197.164199299994,None,2199.655516300001,None,None,None,None,None,None,,,,3_4,001,2021_Feb_23_1625,ComputerHuman,2020.1.3,59.87256722642098,
Sychronize.jpg,Number9.jpg,,Computer,Computer.xlsx,1,c,9,,,,,1,3,11,1,0,0,0,6,,,,,,,,,,,,,,,,,,,,,,,,,,,,,,,,,,,,,,,,,,,,,,,,,,,,,,,,,2204.670668100007,None,2204.670668100007,None,2207.7225617000076,None,2207.7225617000076,None,2208.1849768999964,None,2208.1849768999964,None,"['v', 't']","[8.542173900001217, 8.770486599998549]",2208.1849768999964,None,8.542173900001217,8.770486599998549,9,False,False,False,2219.3192553000117,None,2219.3192553000117,None,2219.3192553000117,None,2219.3192553000117,None,2219.3192553000117,None,2219.3192553000117,None,2219.3192553000117,None,2219.3192553000117,None,2220.3272144999937,None,2220.3272144999937,None,1,c,,,,,,,,,,,,,,,,,,3_4,001,2021_Feb_23_1625,ComputerHuman,2020.1.3,59.87256722642098,
Sychronize.jpg,Number8.jpg,,Computer,Computer.xlsx,1,c,8,,,,,1,3,11,1,0,1,1,5,,,,,,,,,,,,,,,,,,,,,,,,,,,,,,,,,,,,,,,,,,,,,,,,,,,,,,,,,,,,,2221.3418153999955,None,2221.3418153999955,None,2221.822240300011,None,2221.822240300011,None,"['t', 'v']","[6.361648299993249, 7.242665500001749]",2221.822240300011,None,7.242665500001749,6.361648299993249,8,False,False,False,2232.529434600001,None,2232.529434600001,None,2232.529434600001,None,2232.529434600001,None,2232.529434600001,None,2232.529434600001,None,2232.529434600001,None,2232.529434600001,None,2233.542181800003,None,2233.542181800003,None,1,c,,,,,,,,,,,,,,,,,,3_4,001,2021_Feb_23_1625,ComputerHuman,2020.1.3,59.87256722642098,
Sychronize.jpg,Number10.jpg,,Computer,Computer.xlsx,1,c,10,,,,,1,3,11,1,0,2,2,8,,,,,,,,,,,,,,,,,,,,,,,,,,,,,,,,,,,,,,,,,,,,,,,,,,,,,,,,,,,,,2234.561371400021,None,2234.561371400021,None,2235.0613264999993,None,2235.0613264999993,None,"['t', 'v']","[10.338089800003218, 11.643792099988787]",2235.0613264999993,None,11.643792099988787,10.338089800003218,10,False,False,False,2249.3149490000214,None,2249.3149490000214,None,2249.3149490000214,None,2249.3149490000214,None,2249.3149490000214,None,2249.3149490000214,None,2249.3149490000214,None,2249.3149490000214,None,2250.32943100002,None,2250.32943100002,None,1,c,,,,,,,,,,,,,,,,,,3_4,001,2021_Feb_23_1625,ComputerHuman,2020.1.3,59.87256722642098,
Sychronize.jpg,Number10.jpg,,Computer,Computer.xlsx,1,c,10,,,,,1,3,11,1,0,3,3,9,,,,,,,,,,,,,,,,,,,,,,,,,,,,,,,,,,,,,,,,,,,,,,,,,,,,,,,,,,,,,2251.351429500006,None,2251.351429500006,None,2251.8286230000085,None,2251.8286230000085,None,['t'],[8.398758099996485],2251.8286230000085,None,13,8.398758099996485,10,False,False,False,2268.802402900008,None,2268.802402900008,None,2268.802402900008,None,2268.802402900008,None,2268.802402900008,None,2268.802402900008,None,2268.802402900008,None,2268.802402900008,None,2269.8165702999977,None,2269.8165702999977,None,1,c,,,,,,,,,,,,,,,,,,3_4,001,2021_Feb_23_1625,ComputerHuman,2020.1.3,59.87256722642098,
Sychronize.jpg,Number9.jpg,,Computer,Computer.xlsx,1,c,9,,,,,1,3,11,1,0,4,4,7,,,,,,,,,,,,,,,,,,,,,,,,,,,,,,,,,,,,,,,,,,,,,,,,,,,,,,,,,,,,,2270.8422336000076,None,2270.8422336000076,None,2271.3156246000144,None,2271.3156246000144,None,"['v', 't']","[5.431600400013849, 8.380450399999972]",2271.3156246000144,None,5.431600400013849,8.380450399999972,9,False,False,False,2282.0850226000184,None,2282.0850226000184,None,2282.0850226000184,None,2282.0850226000184,None,2282.0850226000184,None,2282.0850226000184,None,2282.0850226000184,None,2282.0850226000184,None,2283.102136500005,None,2283.102136500005,None,1,c,,,,,,,,,,,,,,,,,,3_4,001,2021_Feb_23_1625,ComputerHuman,2020.1.3,59.87256722642098,
Sychronize.jpg,Number6.jpg,,Computer,Computer.xlsx,1,c,6,,,,,1,3,11,1,0,5,5,1,,,,,,,,,,,,,,,,,,,,,,,,,,,,,,,,,,,,,,,,,,,,,,,,,,,,,,,,,,,,,2284.121640199999,None,2284.121640199999,None,2284.6001367999997,None,2284.6001367999997,None,"['v', 't']","[5.872373699996388, 6.339132299995981]",2284.6001367999997,None,5.872373699996388,6.339132299995981,6,False,False,False,2292.7141570000094,None,2292.7141570000094,None,2292.7141570000094,None,2292.7141570000094,None,2292.7141570000094,None,2292.7141570000094,None,2292.7141570000094,None,2292.7141570000094,None,2293.7212744000135,None,2293.7212744000135,None,1,c,,,,,,,,,,,,,,,,,,3_4,001,2021_Feb_23_1625,ComputerHuman,2020.1.3,59.87256722642098,
Sychronize.jpg,Number8.jpg,,Computer,Computer.xlsx,1,c,8,,,,,1,3,11,1,0,6,6,4,,,,,,,,,,,,,,,,,,,,,,,,,,,,,,,,,,,,,,,,,,,,,,,,,,,,,,,,,,,,,2294.740968500002,None,2294.740968500002,None,2295.2205399000086,None,2295.2205399000086,None,"['v', 't']","[6.300416699989, 7.282986599981086]",2295.2205399000086,None,6.300416699989,7.282986599981086,8,False,False,False,2305.0381886000105,None,2305.0381886000105,None,2305.0381886000105,None,2305.0381886000105,None,2305.0381886000105,None,2305.0381886000105,None,2305.0381886000105,None,2305.0381886000105,None,2306.0568480000074,None,2306.0568480000074,None,1,c,,,,,,,,,,,,,,,,,,3_4,001,2021_Feb_23_1625,ComputerHuman,2020.1.3,59.87256722642098,
Sychronize.jpg,Number6.jpg,,Computer,Computer.xlsx,1,c,6,,,,,1,3,11,1,0,7,7,0,,,,,,,,,,,,,,,,,,,,,,,,,,,,,,,,,,,,,,,,,,,,,,,,,,,,,,,,,,,,,2307.0649184000213,None,2307.0649184000213,None,2307.5569525000174,None,2307.5569525000174,None,"['t', 'v']","[6.211419700004626, 6.219804899999872]",2307.5569525000174,None,6.219804899999872,6.211419700004626,6,False,False,False,2317.6842240999977,None,2317.6842240999977,None,2317.6842240999977,None,2317.6842240999977,None,2317.6842240999977,None,2317.6842240999977,None,2317.6842240999977,None,2317.6842240999977,None,2318.712961800018,None,2318.712961800018,None,1,c,,,,,,,,,,,,,,,,,,3_4,001,2021_Feb_23_1625,ComputerHuman,2020.1.3,59.87256722642098,
Sychronize.jpg,Number7.jpg,,Computer,Computer.xlsx,1,c,7,,,,,1,3,11,1,0,8,8,3,,,,,,,,,,,,,,,,,,,,,,,,,,,,,,,,,,,,,,,,,,,,,,,,,,,,,,,,,,,,,2319.7179636000074,None,2319.7179636000074,None,2320.190703,None,2320.190703,None,"['t', 'v']","[5.9099567999946885, 6.985338400001638]",2320.190703,None,6.985338400001638,5.9099567999946885,7,False,False,False,2329.9100096000184,None,2329.9100096000184,None,2329.9100096000184,None,2329.9100096000184,None,2329.9100096000184,None,2329.9100096000184,None,2329.9100096000184,None,2329.9100096000184,None,2330.9286508000223,None,2330.9286508000223,None,1,c,,,,,,,,,,,,,,,,,,3_4,001,2021_Feb_23_1625,ComputerHuman,2020.1.3,59.87256722642098,
Sychronize.jpg,Number7.jpg,,Computer,Computer.xlsx,1,c,7,,,,,1,3,11,1,0,9,9,2,,,,,,,,,,,,,,,,,,,,,,,,,,,,,,,,,,,,,,,,,,,,,,,,,,,,,,,,,,,,,2331.9352400000207,None,2331.9352400000207,None,2332.4266264000034,None,2332.4266264000034,None,"['t', 'v']","[6.005047300015576, 6.526253500021994]",2332.4266264000034,None,6.526253500021994,6.005047300015576,7,False,False,False,2342.778888300003,None,2342.778888300003,None,2342.778888300003,None,2342.778888300003,None,2342.778888300003,None,2342.778888300003,None,2342.778888300003,None,2342.778888300003,None,2343.7979416000016,None,2343.7979416000016,None,1,c,,,,,,,,,,,,,,,,,,3_4,001,2021_Feb_23_1625,ComputerHuman,2020.1.3,59.87256722642098,
,,,,Computer.xlsx,1,c,,,,,,1,3,11,1,,,,,,,,,,,,,,,,,,,,,,,,,,,,,,,,,,,,,,,,,,,,,,,,,,,,,,,,,,,,,,,,,,,,,,,,,,,,,,,,,,,,,,,,,,,,,,,,,,,,,,,1,c,2344.7809953000105,None,h,0,2.707110500021372,2345.7772970000224,None,None,None,2348.513233100006,None,"['space', 'space']",2349.511548600014,None,"[4.084807800012641, 6.317561500007287]",,,3_4,001,2021_Feb_23_1625,ComputerHuman,2020.1.3,59.87256722642098,
Sychronize.jpg,Number6.jpg,,Human,Human.xlsx,2,h,6,,,,,1,4,12,6,0,0,0,1,,,,,,,,,,,,,,,,,,,,,,,,,,,,,,,,,,,,,,,,,,,,,,,,,,,,,,,,,2355.8560126000084,None,2355.8560126000084,None,2358.891388899996,None,2358.891388899996,None,2359.368085299997,None,2359.368085299997,None,"['t', 'v']","[4.908744199987268, 6.168501999985892]",2359.368085299997,None,6.168501999985892,4.908744199987268,6,False,False,False,2367.7089399000106,None,2367.7089399000106,None,2367.7089399000106,None,2367.7089399000106,None,2367.7089399000106,None,2367.7089399000106,None,2367.7089399000106,None,2367.7089399000106,None,2368.719762599998,None,2368.719762599998,None,2,h,,,,,,,,,,,,,,,,,,3_4,001,2021_Feb_23_1625,ComputerHuman,2020.1.3,59.87256722642098,
Sychronize.jpg,Number10.jpg,,Human,Human.xlsx,2,h,10,,,,,1,4,12,6,0,1,1,9,,,,,,,,,,,,,,,,,,,,,,,,,,,,,,,,,,,,,,,,,,,,,,,,,,,,,,,,,,,,,2369.7446378000022,None,2369.7446378000022,None,2370.2188828000217,None,2370.2188828000217,None,"['v', 't']","[8.402070500014815, 9.061104399996111]",2370.2188828000217,None,8.402070500014815,9.061104399996111,10,False,False,False,2380.938154800009,None,2380.938154800009,None,2380.938154800009,None,2380.938154800009,None,2380.938154800009,None,2380.938154800009,None,2380.938154800009,None,2380.938154800009,None,2381.9554616000096,None,2381.9554616000096,None,2,h,,,,,,,,,,,,,,,,,,3_4,001,2021_Feb_23_1625,ComputerHuman,2020.1.3,59.87256722642098,
Sychronize.jpg,Number10.jpg,,Human,Human.xlsx,2,h,10,,,,,1,4,12,6,0,2,2,8,,,,,,,,,,,,,,,,,,,,,,,,,,,,,,,,,,,,,,,,,,,,,,,,,,,,,,,,,,,,,2382.9800675000006,None,2382.9800675000006,None,2383.453953599994,None,2383.453953599994,None,"['t', 'v']","[8.862414500006707, 8.90677840000717]",2383.453953599994,None,8.90677840000717,8.862414500006707,10,False,False,False,2396.214443500008,None,2396.214443500008,None,2396.214443500008,None,2396.214443500008,None,2396.214443500008,None,2396.214443500008,None,2396.214443500008,None,2396.214443500008,None,2397.2454879000143,None,2397.2454879000143,None,2,h,,,,,,,,,,,,,,,,,,3_4,001,2021_Feb_23_1625,ComputerHuman,2020.1.3,59.87256722642098,
Sychronize.jpg,Number8.jpg,,Human,Human.xlsx,2,h,8,,,,,1,4,12,6,0,3,3,4,,,,,,,,,,,,,,,,,,,,,,,,,,,,,,,,,,,,,,,,,,,,,,,,,,,,,,,,,,,,,2398.2451355000085,None,2398.2451355000085,None,2398.723672799999,None,2398.723672799999,None,"['t', 'v']","[7.572702899982687, 7.744898899982218]",2398.723672799999,None,7.744898899982218,7.572702899982687,8,False,False,False,2410.2494092000125,None,2410.2494092000125,None,2410.2494092000125,None,2410.2494092000125,None,2410.2494092000125,None,2410.2494092000125,None,2410.2494092000125,None,2410.2494092000125,None,2411.244659100019,None,2411.244659100019,None,2,h,,,,,,,,,,,,,,,,,,3_4,001,2021_Feb_23_1625,ComputerHuman,2020.1.3,59.87256722642098,
Sychronize.jpg,Number8.jpg,,Human,Human.xlsx,2,h,8,,,,,1,4,12,6,0,4,4,5,,,,,,,,,,,,,,,,,,,,,,,,,,,,,,,,,,,,,,,,,,,,,,,,,,,,,,,,,,,,,2412.264432199998,None,2412.264432199998,None,2412.744577300007,None,2412.744577300007,None,"['t', 'v']","[7.147574699978577, 8.248189999983879]",2412.744577300007,None,8.248189999983879,7.147574699978577,8,False,False,False,2424.062595800002,None,2424.062595800002,None,2424.062595800002,None,2424.062595800002,None,2424.062595800002,None,2424.062595800002,None,2424.062595800002,None,2424.062595800002,None,2425.0811874000065,None,2425.0811874000065,None,2,h,,,,,,,,,,,,,,,,,,3_4,001,2021_Feb_23_1625,ComputerHuman,2020.1.3,59.87256722642098,
Sychronize.jpg,Number9.jpg,,Human,Human.xlsx,2,h,9,,,,,1,4,12,6,0,5,5,6,,,,,,,,,,,,,,,,,,,,,,,,,,,,,,,,,,,,,,,,,,,,,,,,,,,,,,,,,,,,,2426.1003773999983,None,2426.1003773999983,None,2426.580794300011,None,2426.580794300011,None,"['v', 't']","[8.312026700004935, 8.539205800014315]",2426.580794300011,None,8.312026700004935,8.539205800014315,9,False,False,False,2437.6093594999984,None,2437.6093594999984,None,2437.6093594999984,None,2437.6093594999984,None,2437.6093594999984,None,2437.6093594999984,None,2437.6093594999984,None,2437.6093594999984,None,2438.639025500015,None,2438.639025500015,None,2,h,,,,,,,,,,,,,,,,,,3_4,001,2021_Feb_23_1625,ComputerHuman,2020.1.3,59.87256722642098,
Sychronize.jpg,Number7.jpg,,Human,Human.xlsx,2,h,7,,,,,1,4,12,6,0,6,6,2,,,,,,,,,,,,,,,,,,,,,,,,,,,,,,,,,,,,,,,,,,,,,,,,,,,,,,,,,,,,,2439.6246135999972,None,2439.6246135999972,None,2440.0984868000087,None,2440.0984868000087,None,"['t', 'v']","[6.741922899993369, 6.790558299981058]",2440.0984868000087,None,6.790558299981058,6.741922899993369,7,False,False,False,2451.417436000018,None,2451.417436000018,None,2451.417436000018,None,2451.417436000018,None,2451.417436000018,None,2451.417436000018,None,2451.417436000018,None,2451.417436000018,None,2452.439675200003,None,2452.439675200003,None,2,h,,,,,,,,,,,,,,,,,,3_4,001,2021_Feb_23_1625,ComputerHuman,2020.1.3,59.87256722642098,
Sychronize.jpg,Number6.jpg,,Human,Human.xlsx,2,h,6,,,,,1,4,12,6,0,7,7,0,,,,,,,,,,,,,,,,,,,,,,,,,,,,,,,,,,,,,,,,,,,,,,,,,,,,,,,,,,,,,2453.4398718000157,None,2453.4398718000157,None,2453.9201157000207,None,2453.9201157000207,None,"['t', 'v']","[4.8212620000122115, 5.796996100019896]",2453.9201157000207,None,5.796996100019896,4.8212620000122115,6,False,False,False,2463.3150667000154,None,2463.3150667000154,None,2463.3150667000154,None,2463.3150667000154,None,2463.3150667000154,None,2463.3150667000154,None,2463.3150667000154,None,2463.3150667000154,None,2464.3225011000177,None,2464.3225011000177,None,2,h,,,,,,,,,,,,,,,,,,3_4,001,2021_Feb_23_1625,ComputerHuman,2020.1.3,59.87256722642098,
