Sychronize,NumberImage,NumberPr,Partner,Condition,TuringResponsePlayer,CorrectTuringReply,Number,trials.thisRepN,trials.thisTrialN,trials.thisN,trials.thisIndex,Block.thisRepN,Block.thisTrialN,Block.thisN,Block.thisIndex,trials_loop.thisRepN,trials_loop.thisTrialN,trials_loop.thisN,trials_loop.thisIndex,textLeft.started,textLeft.stopped,textRight.started,textRight.stopped,key_resp_Istr.keys,key_resp_Istr.rt,key_resp_Istr.started,key_resp_Istr.stopped,SychroLeftPr.started,SychroLeftPr.stopped,SychroRightPr.started,SychroRightPr.stopped,NumberLeftPr.started,NumberLeftPr.stopped,NumberRightPr.started,NumberRightPr.stopped,CrossLeftPr.started,CrossLeftPr.stopped,CrossRightPr.started,CrossRightPr.stopped,key_respPr.keys,key_respPr.rt,key_respPr.started,key_respPr.stopped,RTLeftPr,RTRightPr,CompPr,SychronizedRTsPr,SychronizedRTsLeftCPr,SychronizedRTsRightCPr,FeedbackLeftLeftPr.started,FeedbackLeftLeftPr.stopped,FeedbackLeftRightPr.started,FeedbackLeftRightPr.stopped,FeedbackRightLeftPr.started,FeedbackRightLeftPr.stopped,FeedbackRightRightPr.started,FeedbackRightRightPr.stopped,textLeftLeftPr.started,textLeftLeftPr.stopped,textLeftRightPr.started,textLeftRightPr.stopped,textRightLeftPr.started,textRightLeftPr.stopped,textRightRightPr.started,textRightRightPr.stopped,CreditLeftPr.started,CreditLeftPr.stopped,CreditRightPr.started,CreditRightPr.stopped,text_StartExp.started,text_StartExp.stopped,key_startExp.keys,key_startExp.rt,key_startExp.started,key_startExp.stopped,SychroLeft.started,SychroLeft.stopped,SychroRight.started,SychroRight.stopped,NumberLeft.started,NumberLeft.stopped,NumberRight.started,NumberRight.stopped,CrossLeft.started,CrossLeft.stopped,CrossRight.started,CrossRight.stopped,key_resp.keys,key_resp.rt,key_resp.started,key_resp.stopped,RTLeft,RTRight,Comp,SychronizedRTs,SychronizedRTsLeftC,SychronizedRTsRightC,FeedbackLeftLeft.started,FeedbackLeftLeft.stopped,FeedbackLeftRight.started,FeedbackLeftRight.stopped,FeedbackRightLeft.started,FeedbackRightLeft.stopped,FeedbackRightRight.started,FeedbackRightRight.stopped,textLeftLeft.started,textLeftLeft.stopped,textLeftRight.started,textLeftRight.stopped,textRightLeft.started,textRightLeft.stopped,textRightRight.started,textRightRight.stopped,CreditLeft.started,CreditLeft.stopped,CreditRight.started,CreditRight.stopped,TuringResponsePlayer,CorrectTuringReply,Turingtext.started,Turingtext.stopped,key_resp_2.keys,key_resp_2.corr,key_resp_2.rt,key_resp_2.started,key_resp_2.stopped,BlockText.started,BlockText.stopped,text_Pause.started,text_Pause.stopped,key_respPause.keys,key_respPause.started,key_respPause.stopped,key_respPause.rt,EndText.started,EndText.stopped,participant,session,date,expName,psychopyVersion,frameRate,
,,,,,,,,,,,,,,,,,,,,77.47925550001673,None,77.47925550001673,None,"['v', 'v', 'v', 'v', 'v', 'v', 'v', 't']","[14.277742399979616, 25.952250899979845, 28.369752600003267, 36.15738799999235, 43.40595069999108, 57.60910420000437, 73.0124855999893, 81.09649979998358]",78.43839120000484,None,,,,,,,,,,,,,,,,,,,,,,,,,,,,,,,,,,,,,,,,,,,,,,,,,,,,,,,,,,,,,,,,,,,,,,,,,,,,,,,,,,,,,,,,,,,,,,,,,,,,,,,,,,,,,,5-6,001,2021_Feb_23_1733,ComputerHuman,2020.1.3,59.917050837952985,
Sychronize.jpg,Number6.jpg,6,Human,,,,,0,0,0,0,,,,,,,,,,,,,,,,,159.57981460000155,None,159.57981460000155,None,162.61237919999985,None,162.61237919999985,None,163.0990623999969,None,163.0990623999969,None,"['v', 't']","[4.284967299987329, 5.141406999988249]",163.0990623999969,None,4.284967299987329,5.141406999988249,6,False,False,False,170.76258770001004,None,170.76258770001004,None,170.76258770001004,None,170.76258770001004,None,170.76258770001004,None,170.76258770001004,None,170.76258770001004,None,170.76258770001004,None,171.77713180001592,None,171.77713180001592,None,,,,,,,,,,,,,,,,,,,,,,,,,,,,,,,,,,,,,,,,,,,,,,,,,,,,,,,,,,,,,,,,,,,,5-6,001,2021_Feb_23_1733,ComputerHuman,2020.1.3,59.917050837952985,
Sychronize.jpg,Number10.jpg,10,Computer,,,,,0,1,1,4,,,,,,,,,,,,,,,,,,,,,172.79629100000602,None,172.79629100000602,None,173.2745952999976,None,173.2745952999976,None,"['v', 't']","[8.69751759999781, 9.280503900023177]",173.2745952999976,None,8.69751759999781,9.280503900023177,10,False,False,False,184.57793759999913,None,184.57793759999913,None,184.57793759999913,None,184.57793759999913,None,184.57793759999913,None,184.57793759999913,None,184.57793759999913,None,184.57793759999913,None,185.59620420000283,None,185.59620420000283,None,,,,,,,,,,,,,,,,,,,,,,,,,,,,,,,,,,,,,,,,,,,,,,,,,,,,,,,,,,,,,,,,,,,,5-6,001,2021_Feb_23_1733,ComputerHuman,2020.1.3,59.917050837952985,
Sychronize.jpg,Number6.jpg,6,Human,,,,,0,2,2,5,,,,,,,,,,,,,,,,,,,,,186.6054338000249,None,186.6054338000249,None,187.1151741000067,None,187.1151741000067,None,"['v', 't']","[5.332706299988786, 5.613034100009827]",187.1151741000067,None,5.332706299988786,5.613034100009827,6,False,False,False,194.62257090001367,None,194.62257090001367,None,194.62257090001367,None,194.62257090001367,None,194.62257090001367,None,194.62257090001367,None,194.62257090001367,None,194.62257090001367,None,195.6318031999981,None,195.6318031999981,None,,,,,,,,,,,,,,,,,,,,,,,,,,,,,,,,,,,,,,,,,,,,,,,,,,,,,,,,,,,,,,,,,,,,5-6,001,2021_Feb_23_1733,ComputerHuman,2020.1.3,59.917050837952985,
Sychronize.jpg,Number7.jpg,7,Computer,,,,,0,3,3,1,,,,,,,,,,,,,,,,,,,,,196.65645720000612,None,196.65645720000612,None,197.12940710000112,None,197.12940710000112,None,"['v', 't']","[5.830529600003501, 6.174646900006337]",197.12940710000112,None,5.830529600003501,6.174646900006337,7,False,False,False,205.3014891000057,None,205.3014891000057,None,205.3014891000057,None,205.3014891000057,None,205.3014891000057,None,205.3014891000057,None,205.3014891000057,None,205.3014891000057,None,206.3168074999994,None,206.3168074999994,None,,,,,,,,,,,,,,,,,,,,,,,,,,,,,,,,,,,,,,,,,,,,,,,,,,,,,,,,,,,,,,,,,,,,5-6,001,2021_Feb_23_1733,ComputerHuman,2020.1.3,59.917050837952985,
Sychronize.jpg,Number9.jpg,9,Human,,,,,0,4,4,3,,,,,,,,,,,,,,,,,,,,,207.34204640000826,None,207.34204640000826,None,207.81492860001163,None,207.81492860001163,None,"['t', 'v']","[6.5293560000136495, 8.757154799997807]",207.81492860001163,None,8.757154799997807,6.5293560000136495,9,False,False,False,219.22928700002376,None,219.22928700002376,None,219.22928700002376,None,219.22928700002376,None,219.22928700002376,None,219.22928700002376,None,219.22928700002376,None,219.22928700002376,None,220.23659600000246,None,220.23659600000246,None,,,,,,,,,,,,,,,,,,,,,,,,,,,,,,,,,,,,,,,,,,,,,,,,,,,,,,,,,,,,,,,,,,,,5-6,001,2021_Feb_23_1733,ComputerHuman,2020.1.3,59.917050837952985,
Sychronize.jpg,Number8.jpg,8,Computer,,,,,0,5,5,2,,,,,,,,,,,,,,,,,,,,,221.26169900002424,None,221.26169900002424,None,221.73583310001413,None,221.73583310001413,None,"['t', 'v']","[6.310560899990378, 7.119761900015874]",221.73583310001413,None,7.119761900015874,6.310560899990378,8,False,False,False,231.54358290001983,None,231.54358290001983,None,231.54358290001983,None,231.54358290001983,None,231.54358290001983,None,231.54358290001983,None,231.54358290001983,None,231.54358290001983,None,232.55731010000454,None,232.55731010000454,None,,,,,,,,,,,,,,,,,,,,,,,,,,,,,,,,,,,,,,,,,,,,,,,,,,,,,,,,,,,,,,,,,,,,5-6,001,2021_Feb_23_1733,ComputerHuman,2020.1.3,59.917050837952985,
,,,,,,,,,,,,,,,,,,,,,,,,,,,,,,,,,,,,,,,,,,,,,,,,,,,,,,,,,,,,,,,,,,,,,,233.55598910001572,None,"['space', 'space']","[3.67709409998497, 3.910946199990576]",234.55178530002013,None,,,,,,,,,,,,,,,,,,,,,,,,,,,,,,,,,,,,,,,,,,,,,,,,,,,,,,,,,,,,,,5-6,001,2021_Feb_23_1733,ComputerHuman,2020.1.3,59.917050837952985,
Sychronize.jpg,Number10.jpg,,Human,Human.xlsx,1,h,10,,,,,0,0,0,0,0,0,0,8,,,,,,,,,,,,,,,,,,,,,,,,,,,,,,,,,,,,,,,,,,,,,,,,,,,,,,,,,238.51109250000445,None,238.51109250000445,None,241.54291980000562,None,241.54291980000562,None,242.02664680001908,None,242.02664680001908,None,"['t', 'v']","[7.169616600003792, 8.229754300002242]",242.02664680001908,None,8.229754300002242,7.169616600003792,10,False,False,False,253.2345401000057,None,253.2345401000057,None,253.2345401000057,None,253.2345401000057,None,253.2345401000057,None,253.2345401000057,None,253.2345401000057,None,253.2345401000057,None,254.25348630000371,None,254.25348630000371,None,1,h,,,,,,,,,,,,,,,,,,5-6,001,2021_Feb_23_1733,ComputerHuman,2020.1.3,59.917050837952985,
Sychronize.jpg,Number9.jpg,,Human,Human.xlsx,1,h,9,,,,,0,0,0,0,0,1,1,6,,,,,,,,,,,,,,,,,,,,,,,,,,,,,,,,,,,,,,,,,,,,,,,,,,,,,,,,,,,,,255.2631971000228,None,255.2631971000228,None,255.74264530002256,None,255.74264530002256,None,"['t', 'v']","[5.465067300014198, 7.121359200013103]",255.74264530002256,None,7.121359200013103,5.465067300014198,9,False,False,False,266.08081740001217,None,266.08081740001217,None,266.08081740001217,None,266.08081740001217,None,266.08081740001217,None,266.08081740001217,None,266.08081740001217,None,266.08081740001217,None,267.0957282000163,None,267.0957282000163,None,1,h,,,,,,,,,,,,,,,,,,5-6,001,2021_Feb_23_1733,ComputerHuman,2020.1.3,59.917050837952985,
Sychronize.jpg,Number8.jpg,,Human,Human.xlsx,1,h,8,,,,,0,0,0,0,0,2,2,4,,,,,,,,,,,,,,,,,,,,,,,,,,,,,,,,,,,,,,,,,,,,,,,,,,,,,,,,,,,,,268.12172290001763,None,268.12172290001763,None,268.59471490001306,None,268.59471490001306,None,"['t', 'v']","[3.9253483999927994, 5.417344299989054]",268.59471490001306,None,5.417344299989054,3.9253483999927994,8,False,False,False,277.28084700001637,None,277.28084700001637,None,277.28084700001637,None,277.28084700001637,None,277.28084700001637,None,277.28084700001637,None,277.28084700001637,None,277.28084700001637,None,278.2991295000247,None,278.2991295000247,None,1,h,,,,,,,,,,,,,,,,,,5-6,001,2021_Feb_23_1733,ComputerHuman,2020.1.3,59.917050837952985,
Sychronize.jpg,Number6.jpg,,Human,Human.xlsx,1,h,6,,,,,0,0,0,0,0,3,3,1,,,,,,,,,,,,,,,,,,,,,,,,,,,,,,,,,,,,,,,,,,,,,,,,,,,,,,,,,,,,,279.31741410001996,None,279.31741410001996,None,279.79754450000473,None,279.79754450000473,None,"['t', 'v']","[2.830268999998225, 3.042872999998508]",279.79754450000473,None,3.042872999998508,2.830268999998225,6,False,False,False,286.18129360000603,None,286.18129360000603,None,286.18129360000603,None,286.18129360000603,None,286.18129360000603,None,286.18129360000603,None,286.18129360000603,None,286.18129360000603,None,287.2012425000139,None,287.2012425000139,None,1,h,,,,,,,,,,,,,,,,,,5-6,001,2021_Feb_23_1733,ComputerHuman,2020.1.3,59.917050837952985,
Sychronize.jpg,Number10.jpg,,Human,Human.xlsx,1,h,10,,,,,0,0,0,0,0,4,4,9,,,,,,,,,,,,,,,,,,,,,,,,,,,,,,,,,,,,,,,,,,,,,,,,,,,,,,,,,,,,,288.2017030999996,None,288.2017030999996,None,288.68407149999985,None,288.68407149999985,None,"['t', 'v']","[4.44822409999324, 4.920098700007657]",288.68407149999985,None,4.920098700007657,4.44822409999324,10,False,False,False,297.4888929000008,None,297.4888929000008,None,297.4888929000008,None,297.4888929000008,None,297.4888929000008,None,297.4888929000008,None,297.4888929000008,None,297.4888929000008,None,298.5037414000253,None,298.5037414000253,None,1,h,,,,,,,,,,,,,,,,,,5-6,001,2021_Feb_23_1733,ComputerHuman,2020.1.3,59.917050837952985,
Sychronize.jpg,Number6.jpg,,Human,Human.xlsx,1,h,6,,,,,0,0,0,0,0,5,5,0,,,,,,,,,,,,,,,,,,,,,,,,,,,,,,,,,,,,,,,,,,,,,,,,,,,,,,,,,,,,,299.5262592000072,None,299.5262592000072,None,300.0001469000126,None,300.0001469000126,None,"['v', 't']","[2.6590931999962777, 2.974844000011217]",300.0001469000126,None,2.6590931999962777,2.974844000011217,6,False,False,False,304.5266768000147,None,304.5266768000147,None,304.5266768000147,None,304.5266768000147,None,304.5266768000147,None,304.5266768000147,None,304.5266768000147,None,304.5266768000147,None,305.53683009999804,None,305.53683009999804,None,1,h,,,,,,,,,,,,,,,,,,5-6,001,2021_Feb_23_1733,ComputerHuman,2020.1.3,59.917050837952985,
Sychronize.jpg,Number7.jpg,,Human,Human.xlsx,1,h,7,,,,,0,0,0,0,0,6,6,2,,,,,,,,,,,,,,,,,,,,,,,,,,,,,,,,,,,,,,,,,,,,,,,,,,,,,,,,,,,,,306.5563687000249,None,306.5563687000249,None,307.03479110001354,None,307.03479110001354,None,"['t', 'v']","[3.2572876999911387, 3.4932114999974146]",307.03479110001354,None,3.4932114999974146,3.2572876999911387,7,False,False,False,314.21093840000685,None,314.21093840000685,None,314.21093840000685,None,314.21093840000685,None,314.21093840000685,None,314.21093840000685,None,314.21093840000685,None,314.21093840000685,None,315.2442423000175,None,315.2442423000175,None,1,h,,,,,,,,,,,,,,,,,,5-6,001,2021_Feb_23_1733,ComputerHuman,2020.1.3,59.917050837952985,
Sychronize.jpg,Number7.jpg,,Human,Human.xlsx,1,h,7,,,,,0,0,0,0,0,7,7,3,,,,,,,,,,,,,,,,,,,,,,,,,,,,,,,,,,,,,,,,,,,,,,,,,,,,,,,,,,,,,316.2421564999968,None,316.2421564999968,None,316.74158610001905,None,316.74158610001905,None,"['t', 'v']","[3.0303843999863602, 3.334686199988937]",316.74158610001905,None,3.334686199988937,3.0303843999863602,7,False,False,False,323.3765801000118,None,323.3765801000118,None,323.3765801000118,None,323.3765801000118,None,323.3765801000118,None,323.3765801000118,None,323.3765801000118,None,323.3765801000118,None,324.3922773000086,None,324.3922773000086,None,1,h,,,,,,,,,,,,,,,,,,5-6,001,2021_Feb_23_1733,ComputerHuman,2020.1.3,59.917050837952985,
Sychronize.jpg,Number9.jpg,,Human,Human.xlsx,1,h,9,,,,,0,0,0,0,0,8,8,7,,,,,,,,,,,,,,,,,,,,,,,,,,,,,,,,,,,,,,,,,,,,,,,,,,,,,,,,,,,,,325.4171465000254,None,325.4171465000254,None,325.890446800011,None,325.890446800011,None,['v'],[4.329706400021678],325.890446800011,None,4.329706400021678,13,9,False,False,False,338.92584110001917,None,338.92584110001917,None,338.92584110001917,None,338.92584110001917,None,338.92584110001917,None,338.92584110001917,None,338.92584110001917,None,338.92584110001917,None,339.92824340000516,None,339.92824340000516,None,1,h,,,,,,,,,,,,,,,,,,5-6,001,2021_Feb_23_1733,ComputerHuman,2020.1.3,59.917050837952985,
Sychronize.jpg,Number8.jpg,,Human,Human.xlsx,1,h,8,,,,,0,0,0,0,0,9,9,5,,,,,,,,,,,,,,,,,,,,,,,,,,,,,,,,,,,,,,,,,,,,,,,,,,,,,,,,,,,,,340.9514523000107,None,340.9514523000107,None,341.42663160001393,None,341.42663160001393,None,"['v', 't']","[4.389525300008245, 4.719880899996497]",341.42663160001393,None,4.389525300008245,4.719880899996497,8,False,False,False,348.55179009999847,None,348.55179009999847,None,348.55179009999847,None,348.55179009999847,None,348.55179009999847,None,348.55179009999847,None,348.55179009999847,None,348.55179009999847,None,349.56419350000215,None,349.56419350000215,None,1,h,,,,,,,,,,,,,,,,,,5-6,001,2021_Feb_23_1733,ComputerHuman,2020.1.3,59.917050837952985,
,,,,Human.xlsx,1,h,,,,,,0,0,0,0,,,,,,,,,,,,,,,,,,,,,,,,,,,,,,,,,,,,,,,,,,,,,,,,,,,,,,,,,,,,,,,,,,,,,,,,,,,,,,,,,,,,,,,,,,,,,,,,,,,,,,,1,h,350.562382300006,None,h,1,8.893347500008531,351.55874990002485,None,360.4869656000228,None,None,None,None,None,None,,,,5-6,001,2021_Feb_23_1733,ComputerHuman,2020.1.3,59.917050837952985,
Sychronize.jpg,Number6.jpg,,Computer,Computer.xlsx,2,c,6,,,,,0,1,1,5,0,0,0,1,,,,,,,,,,,,,,,,,,,,,,,,,,,,,,,,,,,,,,,,,,,,,,,,,,,,,,,,,365.5185698000132,None,365.5185698000132,None,368.5356893000135,None,368.5356893000135,None,369.0159683000238,None,369.0159683000238,None,"['v', 't']","[3.527112700016005, 3.8157260000007227]",369.0159683000238,None,3.527112700016005,3.8157260000007227,6,False,False,False,375.3540041000233,None,375.3540041000233,None,375.3540041000233,None,375.3540041000233,None,375.3540041000233,None,375.3540041000233,None,375.3540041000233,None,375.3540041000233,None,376.36897670000326,None,376.36897670000326,None,2,c,,,,,,,,,,,,,,,,,,5-6,001,2021_Feb_23_1733,ComputerHuman,2020.1.3,59.917050837952985,
Sychronize.jpg,Number10.jpg,,Computer,Computer.xlsx,2,c,10,,,,,0,1,1,5,0,1,1,9,,,,,,,,,,,,,,,,,,,,,,,,,,,,,,,,,,,,,,,,,,,,,,,,,,,,,,,,,,,,,377.3877968000015,None,377.3877968000015,None,377.8676908000198,None,377.8676908000198,None,"['t', 'v']","[4.480023500014795, 6.912019600014901]",377.8676908000198,None,6.912019600014901,4.480023500014795,10,False,False,False,386.66143680000096,None,386.66143680000096,None,386.66143680000096,None,386.66143680000096,None,386.66143680000096,None,386.66143680000096,None,386.66143680000096,None,386.66143680000096,None,387.67212140001357,None,387.67212140001357,None,2,c,,,,,,,,,,,,,,,,,,5-6,001,2021_Feb_23_1733,ComputerHuman,2020.1.3,59.917050837952985,
Sychronize.jpg,Number6.jpg,,Computer,Computer.xlsx,2,c,6,,,,,0,1,1,5,0,2,2,0,,,,,,,,,,,,,,,,,,,,,,,,,,,,,,,,,,,,,,,,,,,,,,,,,,,,,,,,,,,,,388.68964140000753,None,388.68964140000753,None,389.1682494000124,None,389.1682494000124,None,"['t', 'v']","[2.4115790000068955, 5.095736200019019]",389.1682494000124,None,5.095736200019019,2.4115790000068955,6,False,False,False,396.76978960001725,None,396.76978960001725,None,396.76978960001725,None,396.76978960001725,None,396.76978960001725,None,396.76978960001725,None,396.76978960001725,None,396.76978960001725,None,397.78924740001094,None,397.78924740001094,None,2,c,,,,,,,,,,,,,,,,,,5-6,001,2021_Feb_23_1733,ComputerHuman,2020.1.3,59.917050837952985,
Sychronize.jpg,Number8.jpg,,Computer,Computer.xlsx,2,c,8,,,,,0,1,1,5,0,3,3,4,,,,,,,,,,,,,,,,,,,,,,,,,,,,,,,,,,,,,,,,,,,,,,,,,,,,,,,,,,,,,398.7977307999972,None,398.7977307999972,None,399.27247779999743,None,399.27247779999743,None,"['t', 'v']","[2.0632259999983944, 7.003994700004114]",399.27247779999743,None,7.003994700004114,2.0632259999983944,8,False,False,False,409.24513570001,None,409.24513570001,None,409.24513570001,None,409.24513570001,None,409.24513570001,None,409.24513570001,None,409.24513570001,None,409.24513570001,None,410.2584347000229,None,410.2584347000229,None,2,c,,,,,,,,,,,,,,,,,,5-6,001,2021_Feb_23_1733,ComputerHuman,2020.1.3,59.917050837952985,
Sychronize.jpg,Number9.jpg,,Computer,Computer.xlsx,2,c,9,,,,,0,1,1,5,0,4,4,7,,,,,,,,,,,,,,,,,,,,,,,,,,,,,,,,,,,,,,,,,,,,,,,,,,,,,,,,,,,,,411.278100800002,None,411.278100800002,None,411.7579509000061,None,411.7579509000061,None,"['t', 'v']","[4.453542900009779, 8.705931500007864]",411.7579509000061,None,8.705931500007864,4.453542900009779,9,False,False,False,422.64135780002107,None,422.64135780002107,None,422.64135780002107,None,422.64135780002107,None,422.64135780002107,None,422.64135780002107,None,422.64135780002107,None,422.64135780002107,None,423.66142930000206,None,423.66142930000206,None,2,c,,,,,,,,,,,,,,,,,,5-6,001,2021_Feb_23_1733,ComputerHuman,2020.1.3,59.917050837952985,
Sychronize.jpg,Number10.jpg,,Computer,Computer.xlsx,2,c,10,,,,,0,1,1,5,0,5,5,8,,,,,,,,,,,,,,,,,,,,,,,,,,,,,,,,,,,,,,,,,,,,,,,,,,,,,,,,,,,,,424.66942079999717,None,424.66942079999717,None,425.14385429999675,None,425.14385429999675,None,"['t', 'v']","[1.356041399994865, 9.400178000010783]",425.14385429999675,None,9.400178000010783,1.356041399994865,10,False,False,False,436.3785780000035,None,436.3785780000035,None,436.3785780000035,None,436.3785780000035,None,436.3785780000035,None,436.3785780000035,None,436.3785780000035,None,436.3785780000035,None,437.3984528000001,None,437.3984528000001,None,2,c,,,,,,,,,,,,,,,,,,5-6,001,2021_Feb_23_1733,ComputerHuman,2020.1.3,59.917050837952985,
Sychronize.jpg,Number8.jpg,,Computer,Computer.xlsx,2,c,8,,,,,0,1,1,5,0,6,6,5,,,,,,,,,,,,,,,,,,,,,,,,,,,,,,,,,,,,,,,,,,,,,,,,,,,,,,,,,,,,,438.4227499999979,None,438.4227499999979,None,438.89698410002165,None,438.89698410002165,None,"['t', 'v']","[6.303086700005224, 7.8828821000061]",438.89698410002165,None,7.8828821000061,6.303086700005224,8,False,False,False,449.1406224000093,None,449.1406224000093,None,449.1406224000093,None,449.1406224000093,None,449.1406224000093,None,449.1406224000093,None,449.1406224000093,None,449.1406224000093,None,450.1498584000219,None,450.1498584000219,None,2,c,,,,,,,,,,,,,,,,,,5-6,001,2021_Feb_23_1733,ComputerHuman,2020.1.3,59.917050837952985,
Sychronize.jpg,Number9.jpg,,Computer,Computer.xlsx,2,c,9,,,,,0,1,1,5,0,7,7,6,,,,,,,,,,,,,,,,,,,,,,,,,,,,,,,,,,,,,,,,,,,,,,,,,,,,,,,,,,,,,451.16968160000397,None,451.16968160000397,None,451.64946270000655,None,451.64946270000655,None,"['t', 'v']","[6.218937599973287, 8.758410599984927]",451.64946270000655,None,8.758410599984927,6.218937599973287,9,False,False,False,463.5389569000108,None,463.5389569000108,None,463.5389569000108,None,463.5389569000108,None,463.5389569000108,None,463.5389569000108,None,463.5389569000108,None,463.5389569000108,None,464.5524917000148,None,464.5524917000148,None,2,c,,,,,,,,,,,,,,,,,,5-6,001,2021_Feb_23_1733,ComputerHuman,2020.1.3,59.917050837952985,
Sychronize.jpg,Number7.jpg,,Computer,Computer.xlsx,2,c,7,,,,,0,1,1,5,0,8,8,3,,,,,,,,,,,,,,,,,,,,,,,,,,,,,,,,,,,,,,,,,,,,,,,,,,,,,,,,,,,,,465.57246860000305,None,465.57246860000305,None,466.0519830000121,None,466.0519830000121,None,"['v', 't']","[6.222509799990803, 6.2425453000178095]",466.0519830000121,None,6.222509799990803,6.2425453000178095,7,False,False,False,474.2305521000235,None,474.2305521000235,None,474.2305521000235,None,474.2305521000235,None,474.2305521000235,None,474.2305521000235,None,474.2305521000235,None,474.2305521000235,None,475.2383438000106,None,475.2383438000106,None,2,c,,,,,,,,,,,,,,,,,,5-6,001,2021_Feb_23_1733,ComputerHuman,2020.1.3,59.917050837952985,
Sychronize.jpg,Number7.jpg,,Computer,Computer.xlsx,2,c,7,,,,,0,1,1,5,0,9,9,2,,,,,,,,,,,,,,,,,,,,,,,,,,,,,,,,,,,,,,,,,,,,,,,,,,,,,,,,,,,,,476.2576601000037,None,476.2576601000037,None,476.73806740000146,None,476.73806740000146,None,"['t', 'v']","[6.369126299978234, 7.022261799982516]",476.73806740000146,None,7.022261799982516,6.369126299978234,7,False,False,False,487.19999480000115,None,487.19999480000115,None,487.19999480000115,None,487.19999480000115,None,487.19999480000115,None,487.19999480000115,None,487.19999480000115,None,487.19999480000115,None,488.2077185000235,None,488.2077185000235,None,2,c,,,,,,,,,,,,,,,,,,5-6,001,2021_Feb_23_1733,ComputerHuman,2020.1.3,59.917050837952985,
,,,,Computer.xlsx,2,c,,,,,,0,1,1,5,,,,,,,,,,,,,,,,,,,,,,,,,,,,,,,,,,,,,,,,,,,,,,,,,,,,,,,,,,,,,,,,,,,,,,,,,,,,,,,,,,,,,,,,,,,,,,,,,,,,,,,2,c,489.2071661000082,None,c,1,9.732652899983805,490.2035328000202,None,499.95756880001863,None,None,None,None,None,None,,,,5-6,001,2021_Feb_23_1733,ComputerHuman,2020.1.3,59.917050837952985,
Sychronize.jpg,Number9.jpg,,Computer,Computer.xlsx,1,c,9,,,,,0,2,2,3,0,0,0,6,,,,,,,,,,,,,,,,,,,,,,,,,,,,,,,,,,,,,,,,,,,,,,,,,,,,,,,,,504.9649402000068,None,504.9649402000068,None,507.99653810000746,None,507.99653810000746,None,508.47759730002144,None,508.47759730002144,None,"['t', 'v']","[6.946442499989644, 8.186457499978133]",508.47759730002144,None,8.186457499978133,6.946442499989644,9,False,False,False,519.4449654000055,None,519.4449654000055,None,519.4449654000055,None,519.4449654000055,None,519.4449654000055,None,519.4449654000055,None,519.4449654000055,None,519.4449654000055,None,520.4647656000161,None,520.4647656000161,None,1,c,,,,,,,,,,,,,,,,,,5-6,001,2021_Feb_23_1733,ComputerHuman,2020.1.3,59.917050837952985,
Sychronize.jpg,Number10.jpg,,Computer,Computer.xlsx,1,c,10,,,,,0,2,2,3,0,1,1,9,,,,,,,,,,,,,,,,,,,,,,,,,,,,,,,,,,,,,,,,,,,,,,,,,,,,,,,,,,,,,521.4732484999986,None,521.4732484999986,None,521.9469935000234,None,521.9469935000234,None,"['t', 'v']","[7.391431800002465, 9.672850300004939]",521.9469935000234,None,9.672850300004939,7.391431800002465,10,False,False,False,535.4980494000192,None,535.4980494000192,None,535.4980494000192,None,535.4980494000192,None,535.4980494000192,None,535.4980494000192,None,535.4980494000192,None,535.4980494000192,None,536.5172140000213,None,536.5172140000213,None,1,c,,,,,,,,,,,,,,,,,,5-6,001,2021_Feb_23_1733,ComputerHuman,2020.1.3,59.917050837952985,
Sychronize.jpg,Number7.jpg,,Computer,Computer.xlsx,1,c,7,,,,,0,2,2,3,0,2,2,3,,,,,,,,,,,,,,,,,,,,,,,,,,,,,,,,,,,,,,,,,,,,,,,,,,,,,,,,,,,,,537.5274245000037,None,537.5274245000037,None,538.0165953999967,None,538.0165953999967,None,"['t', 'v']","[7.159631099988474, 7.311689900001511]",538.0165953999967,None,7.311689900001511,7.159631099988474,7,False,False,False,549.2439429000078,None,549.2439429000078,None,549.2439429000078,None,549.2439429000078,None,549.2439429000078,None,549.2439429000078,None,549.2439429000078,None,549.2439429000078,None,550.254960899998,None,550.254960899998,None,1,c,,,,,,,,,,,,,,,,,,5-6,001,2021_Feb_23_1733,ComputerHuman,2020.1.3,59.917050837952985,
Sychronize.jpg,Number9.jpg,,Computer,Computer.xlsx,1,c,9,,,,,0,2,2,3,0,3,3,7,,,,,,,,,,,,,,,,,,,,,,,,,,,,,,,,,,,,,,,,,,,,,,,,,,,,,,,,,,,,,551.2731309000228,None,551.2731309000228,None,551.7526503000117,None,551.7526503000117,None,"['t', 'v']","[7.514886400022078, 8.483561500004726]",551.7526503000117,None,8.483561500004726,7.514886400022078,9,False,False,False,563.4715600000054,None,563.4715600000054,None,563.4715600000054,None,563.4715600000054,None,563.4715600000054,None,563.4715600000054,None,563.4715600000054,None,563.4715600000054,None,564.4894088000001,None,564.4894088000001,None,1,c,,,,,,,,,,,,,,,,,,5-6,001,2021_Feb_23_1733,ComputerHuman,2020.1.3,59.917050837952985,
Sychronize.jpg,Number6.jpg,,Computer,Computer.xlsx,1,c,6,,,,,0,2,2,3,0,4,4,0,,,,,,,,,,,,,,,,,,,,,,,,,,,,,,,,,,,,,,,,,,,,,,,,,,,,,,,,,,,,,565.5088011000189,None,565.5088011000189,None,565.9880981000024,None,565.9880981000024,None,"['t', 'v']","[4.172436699998798, 5.8919132000009995]",565.9880981000024,None,5.8919132000009995,4.172436699998798,6,False,False,False,576.2282179000031,None,576.2282179000031,None,576.2282179000031,None,576.2282179000031,None,576.2282179000031,None,576.2282179000031,None,576.2282179000031,None,576.2282179000031,None,577.243224100006,None,577.243224100006,None,1,c,,,,,,,,,,,,,,,,,,5-6,001,2021_Feb_23_1733,ComputerHuman,2020.1.3,59.917050837952985,
Sychronize.jpg,Number10.jpg,,Computer,Computer.xlsx,1,c,10,,,,,0,2,2,3,0,5,5,8,,,,,,,,,,,,,,,,,,,,,,,,,,,,,,,,,,,,,,,,,,,,,,,,,,,,,,,,,,,,,578.2620053999999,None,578.2620053999999,None,578.7401206000068,None,578.7401206000068,None,"['t', 'v']","[6.904195500013884, 9.055105600011302]",578.7401206000068,None,9.055105600011302,6.904195500013884,10,False,False,False,589.7477816000173,None,589.7477816000173,None,589.7477816000173,None,589.7477816000173,None,589.7477816000173,None,589.7477816000173,None,589.7477816000173,None,589.7477816000173,None,590.7617688000028,None,590.7617688000028,None,1,c,,,,,,,,,,,,,,,,,,5-6,001,2021_Feb_23_1733,ComputerHuman,2020.1.3,59.917050837952985,
Sychronize.jpg,Number8.jpg,,Computer,Computer.xlsx,1,c,8,,,,,0,2,2,3,0,6,6,4,,,,,,,,,,,,,,,,,,,,,,,,,,,,,,,,,,,,,,,,,,,,,,,,,,,,,,,,,,,,,591.781363600021,None,591.781363600021,None,592.2612869000004,None,592.2612869000004,None,"['t', 'v']","[5.914402500027791, 8.107168400019873]",592.2612869000004,None,8.107168400019873,5.914402500027791,8,False,False,False,603.953095600009,None,603.953095600009,None,603.953095600009,None,603.953095600009,None,603.953095600009,None,603.953095600009,None,603.953095600009,None,603.953095600009,None,604.9643755000143,None,604.9643755000143,None,1,c,,,,,,,,,,,,,,,,,,5-6,001,2021_Feb_23_1733,ComputerHuman,2020.1.3,59.917050837952985,
Sychronize.jpg,Number7.jpg,,Computer,Computer.xlsx,1,c,7,,,,,0,2,2,3,0,7,7,2,,,,,,,,,,,,,,,,,,,,,,,,,,,,,,,,,,,,,,,,,,,,,,,,,,,,,,,,,,,,,605.984368400008,None,605.984368400008,None,606.4641820000252,None,606.4641820000252,None,"['t', 'v']","[3.1583195999846794, 6.69942250000895]",606.4641820000252,None,6.69942250000895,3.1583195999846794,7,False,False,False,615.4871828000178,None,615.4871828000178,None,615.4871828000178,None,615.4871828000178,None,615.4871828000178,None,615.4871828000178,None,615.4871828000178,None,615.4871828000178,None,616.5002498000104,None,616.5002498000104,None,1,c,,,,,,,,,,,,,,,,,,5-6,001,2021_Feb_23_1733,ComputerHuman,2020.1.3,59.917050837952985,
Sychronize.jpg,Number8.jpg,,Computer,Computer.xlsx,1,c,8,,,,,0,2,2,3,0,8,8,5,,,,,,,,,,,,,,,,,,,,,,,,,,,,,,,,,,,,,,,,,,,,,,,,,,,,,,,,,,,,,617.5246761000017,None,617.5246761000017,None,618.0002902999986,None,618.0002902999986,None,"['t', 'v']","[7.339687200001208, 7.414815299998736]",618.0002902999986,None,7.414815299998736,7.339687200001208,8,False,False,False,629.7627096000069,None,629.7627096000069,None,629.7627096000069,None,629.7627096000069,None,629.7627096000069,None,629.7627096000069,None,629.7627096000069,None,629.7627096000069,None,630.769603200024,None,630.769603200024,None,1,c,,,,,,,,,,,,,,,,,,5-6,001,2021_Feb_23_1733,ComputerHuman,2020.1.3,59.917050837952985,
Sychronize.jpg,Number6.jpg,,Computer,Computer.xlsx,1,c,6,,,,,0,2,2,3,0,9,9,1,,,,,,,,,,,,,,,,,,,,,,,,,,,,,,,,,,,,,,,,,,,,,,,,,,,,,,,,,,,,,631.8000419000164,None,631.8000419000164,None,632.2693131999986,None,632.2693131999986,None,"['v', 't']","[5.942742499988526, 7.362858399981633]",632.2693131999986,None,5.942742499988526,7.362858399981633,6,False,False,False,641.2815926000185,None,641.2815926000185,None,641.2815926000185,None,641.2815926000185,None,641.2815926000185,None,641.2815926000185,None,641.2815926000185,None,641.2815926000185,None,642.2905065000232,None,642.2905065000232,None,1,c,,,,,,,,,,,,,,,,,,5-6,001,2021_Feb_23_1733,ComputerHuman,2020.1.3,59.917050837952985,
,,,,Computer.xlsx,1,c,,,,,,0,2,2,3,,,,,,,,,,,,,,,,,,,,,,,,,,,,,,,,,,,,,,,,,,,,,,,,,,,,,,,,,,,,,,,,,,,,,,,,,,,,,,,,,,,,,,,,,,,,,,,,,,,,,,,1,c,643.2884005000233,None,c,1,5.1593866999901365,644.284805000003,None,649.4808863000071,None,None,None,None,None,None,,,,5-6,001,2021_Feb_23_1733,ComputerHuman,2020.1.3,59.917050837952985,
Sychronize.jpg,Number8.jpg,,Human,Human.xlsx,2,h,8,,,,,0,3,3,6,0,0,0,5,,,,,,,,,,,,,,,,,,,,,,,,,,,,,,,,,,,,,,,,,,,,,,,,,,,,,,,,,654.4930671000038,None,654.4930671000038,None,657.543614299997,None,657.543614299997,None,658.0079620000033,None,658.0079620000033,None,"['v', 't']","[7.347891799989156, 7.412157199985813]",658.0079620000033,None,7.347891799989156,7.412157199985813,8,False,False,False,667.5089731000189,None,667.5089731000189,None,667.5089731000189,None,667.5089731000189,None,667.5089731000189,None,667.5089731000189,None,667.5089731000189,None,667.5089731000189,None,668.5316219000088,None,668.5316219000088,None,2,h,,,,,,,,,,,,,,,,,,5-6,001,2021_Feb_23_1733,ComputerHuman,2020.1.3,59.917050837952985,
Sychronize.jpg,Number7.jpg,,Human,Human.xlsx,2,h,7,,,,,0,3,3,6,0,1,1,2,,,,,,,,,,,,,,,,,,,,,,,,,,,,,,,,,,,,,,,,,,,,,,,,,,,,,,,,,,,,,669.5469962000207,None,669.5469962000207,None,670.0257028000196,None,670.0257028000196,None,"['t', 'v']","[5.566198999993503, 6.386477099993499]",670.0257028000196,None,6.386477099993499,5.566198999993503,7,False,False,False,679.1863025000202,None,679.1863025000202,None,679.1863025000202,None,679.1863025000202,None,679.1863025000202,None,679.1863025000202,None,679.1863025000202,None,679.1863025000202,None,680.1963713000005,None,680.1963713000005,None,2,h,,,,,,,,,,,,,,,,,,5-6,001,2021_Feb_23_1733,ComputerHuman,2020.1.3,59.917050837952985,
Sychronize.jpg,Number6.jpg,,Human,Human.xlsx,2,h,6,,,,,0,3,3,6,0,2,2,1,,,,,,,,,,,,,,,,,,,,,,,,,,,,,,,,,,,,,,,,,,,,,,,,,,,,,,,,,,,,,681.2203593000013,None,681.2203593000013,None,681.6961313000065,None,681.6961313000065,None,"['t', 'v']","[5.3237933999917, 5.414662399998633]",681.6961313000065,None,5.414662399998633,5.3237933999917,6,False,False,False,691.296473800001,None,691.296473800001,None,691.296473800001,None,691.296473800001,None,691.296473800001,None,691.296473800001,None,691.296473800001,None,691.296473800001,None,692.3188601000002,None,692.3188601000002,None,2,h,,,,,,,,,,,,,,,,,,5-6,001,2021_Feb_23_1733,ComputerHuman,2020.1.3,59.917050837952985,
Sychronize.jpg,Number9.jpg,,Human,Human.xlsx,2,h,9,,,,,0,3,3,6,0,3,3,6,,,,,,,,,,,,,,,,,,,,,,,,,,,,,,,,,,,,,,,,,,,,,,,,,,,,,,,,,,,,,693.3235687999986,None,693.3235687999986,None,693.7966048000089,None,693.7966048000089,None,"['t', 'v']","[7.483085200015921, 7.551762500021141]",693.7966048000089,None,7.551762500021141,7.483085200015921,9,False,False,False,705.3167269999976,None,705.3167269999976,None,705.3167269999976,None,705.3167269999976,None,705.3167269999976,None,705.3167269999976,None,705.3167269999976,None,705.3167269999976,None,706.3374353000254,None,706.3374353000254,None,2,h,,,,,,,,,,,,,,,,,,5-6,001,2021_Feb_23_1733,ComputerHuman,2020.1.3,59.917050837952985,
Sychronize.jpg,Number10.jpg,,Human,Human.xlsx,2,h,10,,,,,0,3,3,6,0,4,4,9,,,,,,,,,,,,,,,,,,,,,,,,,,,,,,,,,,,,,,,,,,,,,,,,,,,,,,,,,,,,,707.3382073999965,None,707.3382073999965,None,707.816309900023,None,707.816309900023,None,"['t', 'v']","[7.5439016000018455, 8.294144199986476]",707.816309900023,None,8.294144199986476,7.5439016000018455,10,False,False,False,718.9111621000047,None,718.9111621000047,None,718.9111621000047,None,718.9111621000047,None,718.9111621000047,None,718.9111621000047,None,718.9111621000047,None,718.9111621000047,None,719.922777300002,None,719.922777300002,None,2,h,,,,,,,,,,,,,,,,,,5-6,001,2021_Feb_23_1733,ComputerHuman,2020.1.3,59.917050837952985,
Sychronize.jpg,Number7.jpg,,Human,Human.xlsx,2,h,7,,,,,0,3,3,6,0,5,5,3,,,,,,,,,,,,,,,,,,,,,,,,,,,,,,,,,,,,,,,,,,,,,,,,,,,,,,,,,,,,,720.9409337000106,None,720.9409337000106,None,721.4434148000146,None,721.4434148000146,None,"['t', 'v']","[5.144610999996075, 5.5129383000021335]",721.4434148000146,None,5.5129383000021335,5.144610999996075,7,False,False,False,730.0625041000021,None,730.0625041000021,None,730.0625041000021,None,730.0625041000021,None,730.0625041000021,None,730.0625041000021,None,730.0625041000021,None,730.0625041000021,None,731.0737649000075,None,731.0737649000075,None,2,h,,,,,,,,,,,,,,,,,,5-6,001,2021_Feb_23_1733,ComputerHuman,2020.1.3,59.917050837952985,
Sychronize.jpg,Number10.jpg,,Human,Human.xlsx,2,h,10,,,,,0,3,3,6,0,6,6,8,,,,,,,,,,,,,,,,,,,,,,,,,,,,,,,,,,,,,,,,,,,,,,,,,,,,,,,,,,,,,732.0931104000192,None,732.0931104000192,None,732.5730723000015,None,732.5730723000015,None,"['v', 't']","[7.72288970000227, 9.259155800013104]",732.5730723000015,None,7.72288970000227,9.259155800013104,10,False,False,False,743.3816336000164,None,743.3816336000164,None,743.3816336000164,None,743.3816336000164,None,743.3816336000164,None,743.3816336000164,None,743.3816336000164,None,743.3816336000164,None,744.3935248000198,None,744.3935248000198,None,2,h,,,,,,,,,,,,,,,,,,5-6,001,2021_Feb_23_1733,ComputerHuman,2020.1.3,59.917050837952985,
Sychronize.jpg,Number8.jpg,,Human,Human.xlsx,2,h,8,,,,,0,3,3,6,0,7,7,4,,,,,,,,,,,,,,,,,,,,,,,,,,,,,,,,,,,,,,,,,,,,,,,,,,,,,,,,,,,,,745.4169286000251,None,745.4169286000251,None,745.8907551000011,None,745.8907551000011,None,"['t', 'v']","[5.109541599988006, 6.768865999998525]",745.8907551000011,None,6.768865999998525,5.109541599988006,8,False,False,False,755.6495724999986,None,755.6495724999986,None,755.6495724999986,None,755.6495724999986,None,755.6495724999986,None,755.6495724999986,None,755.6495724999986,None,755.6495724999986,None,756.6620930000208,None,756.6620930000208,None,2,h,,,,,,,,,,,,,,,,,,5-6,001,2021_Feb_23_1733,ComputerHuman,2020.1.3,59.917050837952985,
Sychronize.jpg,Number6.jpg,,Human,Human.xlsx,2,h,6,,,,,0,3,3,6,0,8,8,0,,,,,,,,,,,,,,,,,,,,,,,,,,,,,,,,,,,,,,,,,,,,,,,,,,,,,,,,,,,,,757.6817118000181,None,757.6817118000181,None,758.1613407999976,None,758.1613407999976,None,"['v', 't']","[4.402671400021063, 5.3144090000132564]",758.1613407999976,None,4.402671400021063,5.3144090000132564,6,False,False,False,765.6073513000156,None,765.6073513000156,None,765.6073513000156,None,765.6073513000156,None,765.6073513000156,None,765.6073513000156,None,765.6073513000156,None,765.6073513000156,None,766.6140108000254,None,766.6140108000254,None,2,h,,,,,,,,,,,,,,,,,,5-6,001,2021_Feb_23_1733,ComputerHuman,2020.1.3,59.917050837952985,
Sychronize.jpg,Number9.jpg,,Human,Human.xlsx,2,h,9,,,,,0,3,3,6,0,9,9,7,,,,,,,,,,,,,,,,,,,,,,,,,,,,,,,,,,,,,,,,,,,,,,,,,,,,,,,,,,,,,767.6390800000227,None,767.6390800000227,None,768.1135614000086,None,768.1135614000086,None,"['t', 'v']","[6.7979350999812596, 7.565425199980382]",768.1135614000086,None,7.565425199980382,6.7979350999812596,9,False,False,False,778.4813719000085,None,778.4813719000085,None,778.4813719000085,None,778.4813719000085,None,778.4813719000085,None,778.4813719000085,None,778.4813719000085,None,778.4813719000085,None,779.5000449000217,None,779.5000449000217,None,2,h,,,,,,,,,,,,,,,,,,5-6,001,2021_Feb_23_1733,ComputerHuman,2020.1.3,59.917050837952985,
,,,,Human.xlsx,2,h,,,,,,0,3,3,6,,,,,,,,,,,,,,,,,,,,,,,,,,,,,,,,,,,,,,,,,,,,,,,,,,,,,,,,,,,,,,,,,,,,,,,,,,,,,,,,,,,,,,,,,,,,,,,,,,,,,,,2,h,780.498571300006,None,h,1,14.419435999996495,781.4960876000114,None,None,None,795.9548636000254,None,"['space', 'space']",796.9491489000211,None,"[4.230943700007629, 9.714849100011634]",,,5-6,001,2021_Feb_23_1733,ComputerHuman,2020.1.3,59.917050837952985,
Sychronize.jpg,Number8.jpg,,Computer,Computer.xlsx,2,c,8,,,,,0,4,4,7,0,0,0,5,,,,,,,,,,,,,,,,,,,,,,,,,,,,,,,,,,,,,,,,,,,,,,,,,,,,,,,,,806.7084582000098,None,806.7084582000098,None,809.7401663000055,None,809.7401663000055,None,810.2054755999998,None,810.2054755999998,None,"['v', 't']","[5.654736299999058, 6.874930299993139]",810.2054755999998,None,5.654736299999058,6.874930299993139,8,False,False,False,818.7054930000158,None,818.7054930000158,None,818.7054930000158,None,818.7054930000158,None,818.7054930000158,None,818.7054930000158,None,818.7054930000158,None,818.7054930000158,None,819.7245863999997,None,819.7245863999997,None,2,c,,,,,,,,,,,,,,,,,,5-6,001,2021_Feb_23_1733,ComputerHuman,2020.1.3,59.917050837952985,
Sychronize.jpg,Number6.jpg,,Computer,Computer.xlsx,2,c,6,,,,,0,4,4,7,0,1,1,1,,,,,,,,,,,,,,,,,,,,,,,,,,,,,,,,,,,,,,,,,,,,,,,,,,,,,,,,,,,,,820.7441017000237,None,820.7441017000237,None,821.2224130000104,None,821.2224130000104,None,"['v', 't']","[5.720536900014849, 6.333140500006266]",821.2224130000104,None,5.720536900014849,6.333140500006266,6,False,False,False,829.2190459000121,None,829.2190459000121,None,829.2190459000121,None,829.2190459000121,None,829.2190459000121,None,829.2190459000121,None,829.2190459000121,None,829.2190459000121,None,830.2269624000182,None,830.2269624000182,None,2,c,,,,,,,,,,,,,,,,,,5-6,001,2021_Feb_23_1733,ComputerHuman,2020.1.3,59.917050837952985,
Sychronize.jpg,Number7.jpg,,Computer,Computer.xlsx,2,c,7,,,,,0,4,4,7,0,2,2,2,,,,,,,,,,,,,,,,,,,,,,,,,,,,,,,,,,,,,,,,,,,,,,,,,,,,,,,,,,,,,831.246669300017,None,831.246669300017,None,831.7456445000134,None,831.7456445000134,None,"['t', 'v']","[5.774679599999217, 6.890394299989566]",831.7456445000134,None,6.890394299989566,5.774679599999217,7,False,False,False,840.8620011000021,None,840.8620011000021,None,840.8620011000021,None,840.8620011000021,None,840.8620011000021,None,840.8620011000021,None,840.8620011000021,None,840.8620011000021,None,841.864336300001,None,841.864336300001,None,2,c,,,,,,,,,,,,,,,,,,5-6,001,2021_Feb_23_1733,ComputerHuman,2020.1.3,59.917050837952985,
Sychronize.jpg,Number6.jpg,,Computer,Computer.xlsx,2,c,6,,,,,0,4,4,7,0,3,3,0,,,,,,,,,,,,,,,,,,,,,,,,,,,,,,,,,,,,,,,,,,,,,,,,,,,,,,,,,,,,,842.8891371000209,None,842.8891371000209,None,843.3625770000217,None,843.3625770000217,None,"['t', 'v']","[4.173313900013454, 5.481290700001409]",843.3625770000217,None,5.481290700001409,4.173313900013454,6,False,False,False,851.3950911000138,None,851.3950911000138,None,851.3950911000138,None,851.3950911000138,None,851.3950911000138,None,851.3950911000138,None,851.3950911000138,None,851.3950911000138,None,852.3982070000202,None,852.3982070000202,None,2,c,,,,,,,,,,,,,,,,,,5-6,001,2021_Feb_23_1733,ComputerHuman,2020.1.3,59.917050837952985,
Sychronize.jpg,Number8.jpg,,Computer,Computer.xlsx,2,c,8,,,,,0,4,4,7,0,4,4,4,,,,,,,,,,,,,,,,,,,,,,,,,,,,,,,,,,,,,,,,,,,,,,,,,,,,,,,,,,,,,853.4176978000032,None,853.4176978000032,None,853.8960877000063,None,853.8960877000063,None,"['t', 'v']","[6.6270106000010855, 7.743863500014413]",853.8960877000063,None,7.743863500014413,6.6270106000010855,8,False,False,False,864.2320077000186,None,864.2320077000186,None,864.2320077000186,None,864.2320077000186,None,864.2320077000186,None,864.2320077000186,None,864.2320077000186,None,864.2320077000186,None,865.2349451000046,None,865.2349451000046,None,2,c,,,,,,,,,,,,,,,,,,5-6,001,2021_Feb_23_1733,ComputerHuman,2020.1.3,59.917050837952985,
Sychronize.jpg,Number10.jpg,,Computer,Computer.xlsx,2,c,10,,,,,0,4,4,7,0,5,5,9,,,,,,,,,,,,,,,,,,,,,,,,,,,,,,,,,,,,,,,,,,,,,,,,,,,,,,,,,,,,,866.2537347000034,None,866.2537347000034,None,866.7336484999978,None,866.7336484999978,None,"['t', 'v']","[9.017377499985741, 9.270683199982159]",866.7336484999978,None,9.270683199982159,9.017377499985741,10,False,False,False,880.155018999998,None,880.155018999998,None,880.155018999998,None,880.155018999998,None,880.155018999998,None,880.155018999998,None,880.155018999998,None,880.155018999998,None,881.1705842000083,None,881.1705842000083,None,2,c,,,,,,,,,,,,,,,,,,5-6,001,2021_Feb_23_1733,ComputerHuman,2020.1.3,59.917050837952985,
Sychronize.jpg,Number9.jpg,,Computer,Computer.xlsx,2,c,9,,,,,0,4,4,7,0,6,6,7,,,,,,,,,,,,,,,,,,,,,,,,,,,,,,,,,,,,,,,,,,,,,,,,,,,,,,,,,,,,,882.1951959000144,None,882.1951959000144,None,882.6684581000009,None,882.6684581000009,None,"['t', 'v']","[8.454060399992159, 9.490633699984755]",882.6684581000009,None,9.490633699984755,8.454060399992159,9,False,False,False,895.2932341000123,None,895.2932341000123,None,895.2932341000123,None,895.2932341000123,None,895.2932341000123,None,895.2932341000123,None,895.2932341000123,None,895.2932341000123,None,896.3066095000249,None,896.3066095000249,None,2,c,,,,,,,,,,,,,,,,,,5-6,001,2021_Feb_23_1733,ComputerHuman,2020.1.3,59.917050837952985,
Sychronize.jpg,Number9.jpg,,Computer,Computer.xlsx,2,c,9,,,,,0,4,4,7,0,7,7,6,,,,,,,,,,,,,,,,,,,,,,,,,,,,,,,,,,,,,,,,,,,,,,,,,,,,,,,,,,,,,897.3265828000149,None,897.3265828000149,None,897.806556399999,None,897.806556399999,None,"['v', 't']","[8.717027800012147, 9.10556340002222]",897.806556399999,None,8.717027800012147,9.10556340002222,9,False,False,False,908.9908967000083,None,908.9908967000083,None,908.9908967000083,None,908.9908967000083,None,908.9908967000083,None,908.9908967000083,None,908.9908967000083,None,908.9908967000083,None,910.0320952000038,None,910.0320952000038,None,2,c,,,,,,,,,,,,,,,,,,5-6,001,2021_Feb_23_1733,ComputerHuman,2020.1.3,59.917050837952985,
Sychronize.jpg,Number7.jpg,,Computer,Computer.xlsx,2,c,7,,,,,0,4,4,7,0,8,8,3,,,,,,,,,,,,,,,,,,,,,,,,,,,,,,,,,,,,,,,,,,,,,,,,,,,,,,,,,,,,,911.0395793000062,None,911.0395793000062,None,911.5077165999974,None,911.5077165999974,None,"['v', 't']","[6.788272500009043, 7.055288500007009]",911.5077165999974,None,6.788272500009043,7.055288500007009,7,False,False,False,920.1475752000115,None,920.1475752000115,None,920.1475752000115,None,920.1475752000115,None,920.1475752000115,None,920.1475752000115,None,920.1475752000115,None,920.1475752000115,None,921.1649222999986,None,921.1649222999986,None,2,c,,,,,,,,,,,,,,,,,,5-6,001,2021_Feb_23_1733,ComputerHuman,2020.1.3,59.917050837952985,
Sychronize.jpg,Number10.jpg,,Computer,Computer.xlsx,2,c,10,,,,,0,4,4,7,0,9,9,8,,,,,,,,,,,,,,,,,,,,,,,,,,,,,,,,,,,,,,,,,,,,,,,,,,,,,,,,,,,,,922.1652265000157,None,922.1652265000157,None,922.6438964999979,None,922.6438964999979,None,"['t', 'v']","[8.407910299982177, 9.3604455999739]",922.6438964999979,None,9.3604455999739,8.407910299982177,10,False,False,False,935.0913109999965,None,935.0913109999965,None,935.0913109999965,None,935.0913109999965,None,935.0913109999965,None,935.0913109999965,None,935.0913109999965,None,935.0913109999965,None,936.0985351999989,None,936.0985351999989,None,2,c,,,,,,,,,,,,,,,,,,5-6,001,2021_Feb_23_1733,ComputerHuman,2020.1.3,59.917050837952985,
,,,,Computer.xlsx,2,c,,,,,,0,4,4,7,,,,,,,,,,,,,,,,,,,,,,,,,,,,,,,,,,,,,,,,,,,,,,,,,,,,,,,,,,,,,,,,,,,,,,,,,,,,,,,,,,,,,,,,,,,,,,,,,,,,,,,2,c,937.0978434999997,None,c,1,2.6502648000023328,938.0942364000075,None,940.7715916000016,None,None,None,None,None,None,,,,5-6,001,2021_Feb_23_1733,ComputerHuman,2020.1.3,59.917050837952985,
Sychronize.jpg,Number9.jpg,,Computer,Computer.xlsx,1,c,9,,,,,0,5,5,1,0,0,0,6,,,,,,,,,,,,,,,,,,,,,,,,,,,,,,,,,,,,,,,,,,,,,,,,,,,,,,,,,945.7855446000176,None,945.7855446000176,None,948.8366325000243,None,948.8366325000243,None,949.3000457000162,None,949.3000457000162,None,"['t', 'v']","[6.599695800017798, 8.439848000009079]",949.3000457000162,None,8.439848000009079,6.599695800017798,9,False,False,False,959.9235983000253,None,959.9235983000253,None,959.9235983000253,None,959.9235983000253,None,959.9235983000253,None,959.9235983000253,None,959.9235983000253,None,959.9235983000253,None,960.9368635000137,None,960.9368635000137,None,1,c,,,,,,,,,,,,,,,,,,5-6,001,2021_Feb_23_1733,ComputerHuman,2020.1.3,59.917050837952985,
Sychronize.jpg,Number8.jpg,,Computer,Computer.xlsx,1,c,8,,,,,0,5,5,1,0,1,1,4,,,,,,,,,,,,,,,,,,,,,,,,,,,,,,,,,,,,,,,,,,,,,,,,,,,,,,,,,,,,,961.9564901000122,None,961.9564901000122,None,962.4361042000237,None,962.4361042000237,None,"['t', 'v']","[6.155124099983368, 8.499279299983755]",962.4361042000237,None,8.499279299983755,6.155124099983368,8,False,False,False,973.2780927999993,None,973.2780927999993,None,973.2780927999993,None,973.2780927999993,None,973.2780927999993,None,973.2780927999993,None,973.2780927999993,None,973.2780927999993,None,974.289509299997,None,974.289509299997,None,1,c,,,,,,,,,,,,,,,,,,5-6,001,2021_Feb_23_1733,ComputerHuman,2020.1.3,59.917050837952985,
Sychronize.jpg,Number10.jpg,,Computer,Computer.xlsx,1,c,10,,,,,0,5,5,1,0,2,2,9,,,,,,,,,,,,,,,,,,,,,,,,,,,,,,,,,,,,,,,,,,,,,,,,,,,,,,,,,,,,,975.3091993000126,None,975.3091993000126,None,975.7890620000253,None,975.7890620000253,None,"['t', 'v']","[8.866779500007397, 10.150714100018376]",975.7890620000253,None,10.150714100018376,8.866779500007397,10,False,False,False,988.0323795000149,None,988.0323795000149,None,988.0323795000149,None,988.0323795000149,None,988.0323795000149,None,988.0323795000149,None,988.0323795000149,None,988.0323795000149,None,989.0426367000036,None,989.0426367000036,None,1,c,,,,,,,,,,,,,,,,,,5-6,001,2021_Feb_23_1733,ComputerHuman,2020.1.3,59.917050837952985,
Sychronize.jpg,Number6.jpg,,Computer,Computer.xlsx,1,c,6,,,,,0,5,5,1,0,3,3,1,,,,,,,,,,,,,,,,,,,,,,,,,,,,,,,,,,,,,,,,,,,,,,,,,,,,,,,,,,,,,990.0509805000038,None,990.0509805000038,None,990.5251777000085,None,990.5251777000085,None,"['v', 't']","[6.306746200018097, 6.57387480000034]",990.5251777000085,None,6.306746200018097,6.57387480000034,6,False,False,False,999.2964077000215,None,999.2964077000215,None,999.2964077000215,None,999.2964077000215,None,999.2964077000215,None,999.2964077000215,None,999.2964077000215,None,999.2964077000215,None,1000.3114870999998,None,1000.3114870999998,None,1,c,,,,,,,,,,,,,,,,,,5-6,001,2021_Feb_23_1733,ComputerHuman,2020.1.3,59.917050837952985,
Sychronize.jpg,Number8.jpg,,Computer,Computer.xlsx,1,c,8,,,,,0,5,5,1,0,4,4,5,,,,,,,,,,,,,,,,,,,,,,,,,,,,,,,,,,,,,,,,,,,,,,,,,,,,,,,,,,,,,1001.3373629999987,None,1001.3373629999987,None,1001.8098701999988,None,1001.8098701999988,None,"['t', 'v']","[6.7580558999907225, 7.742275500000687]",1001.8098701999988,None,7.742275500000687,6.7580558999907225,8,False,False,False,1012.7003001999983,None,1012.7003001999983,None,1012.7003001999983,None,1012.7003001999983,None,1012.7003001999983,None,1012.7003001999983,None,1012.7003001999983,None,1012.7003001999983,None,1013.7140493000043,None,1013.7140493000043,None,1,c,,,,,,,,,,,,,,,,,,5-6,001,2021_Feb_23_1733,ComputerHuman,2020.1.3,59.917050837952985,
Sychronize.jpg,Number7.jpg,,Computer,Computer.xlsx,1,c,7,,,,,0,5,5,1,0,5,5,2,,,,,,,,,,,,,,,,,,,,,,,,,,,,,,,,,,,,,,,,,,,,,,,,,,,,,,,,,,,,,1014.7338310000196,None,1014.7338310000196,None,1015.2125729999971,None,1015.2125729999971,None,"['v', 't']","[6.863444300019182, 7.195374400005676]",1015.2125729999971,None,6.863444300019182,7.195374400005676,7,False,False,False,1024.6187967000005,None,1024.6187967000005,None,1024.6187967000005,None,1024.6187967000005,None,1024.6187967000005,None,1024.6187967000005,None,1024.6187967000005,None,1024.6187967000005,None,1025.6392656000098,None,1025.6392656000098,None,1,c,,,,,,,,,,,,,,,,,,5-6,001,2021_Feb_23_1733,ComputerHuman,2020.1.3,59.917050837952985,
Sychronize.jpg,Number9.jpg,,Computer,Computer.xlsx,1,c,9,,,,,0,5,5,1,0,6,6,7,,,,,,,,,,,,,,,,,,,,,,,,,,,,,,,,,,,,,,,,,,,,,,,,,,,,,,,,,,,,,1026.6356959000113,None,1026.6356959000113,None,1027.1358699999982,None,1027.1358699999982,None,"['t', 'v']","[7.3962374000111595, 8.935959900001762]",1027.1358699999982,None,8.935959900001762,7.3962374000111595,9,False,False,False,1038.8754216000088,None,1038.8754216000088,None,1038.8754216000088,None,1038.8754216000088,None,1038.8754216000088,None,1038.8754216000088,None,1038.8754216000088,None,1038.8754216000088,None,1039.8879252000188,None,1039.8879252000188,None,1,c,,,,,,,,,,,,,,,,,,5-6,001,2021_Feb_23_1733,ComputerHuman,2020.1.3,59.917050837952985,
Sychronize.jpg,Number10.jpg,,Computer,Computer.xlsx,1,c,10,,,,,0,5,5,1,0,7,7,8,,,,,,,,,,,,,,,,,,,,,,,,,,,,,,,,,,,,,,,,,,,,,,,,,,,,,,,,,,,,,1040.911544600007,None,1040.911544600007,None,1041.3854753000196,None,1041.3854753000196,None,"['t', 'v']","[7.59029140000348, 10.474370100011583]",1041.3854753000196,None,10.474370100011583,7.59029140000348,10,False,False,False,1054.6200558000128,None,1054.6200558000128,None,1054.6200558000128,None,1054.6200558000128,None,1054.6200558000128,None,1054.6200558000128,None,1054.6200558000128,None,1054.6200558000128,None,1055.6226597000204,None,1055.6226597000204,None,1,c,,,,,,,,,,,,,,,,,,5-6,001,2021_Feb_23_1733,ComputerHuman,2020.1.3,59.917050837952985,
Sychronize.jpg,Number6.jpg,,Computer,Computer.xlsx,1,c,6,,,,,0,5,5,1,0,8,8,0,,,,,,,,,,,,,,,,,,,,,,,,,,,,,,,,,,,,,,,,,,,,,,,,,,,,,,,,,,,,,1056.649203100009,None,1056.649203100009,None,1057.1206810000003,None,1057.1206810000003,None,"['t', 'v']","[5.491214600013336, 6.1276389000122435]",1057.1206810000003,None,6.1276389000122435,5.491214600013336,6,False,False,False,1066.4942410000076,None,1066.4942410000076,None,1066.4942410000076,None,1066.4942410000076,None,1066.4942410000076,None,1066.4942410000076,None,1066.4942410000076,None,1066.4942410000076,None,1067.5085440000112,None,1067.5085440000112,None,1,c,,,,,,,,,,,,,,,,,,5-6,001,2021_Feb_23_1733,ComputerHuman,2020.1.3,59.917050837952985,
Sychronize.jpg,Number7.jpg,,Computer,Computer.xlsx,1,c,7,,,,,0,5,5,1,0,9,9,3,,,,,,,,,,,,,,,,,,,,,,,,,,,,,,,,,,,,,,,,,,,,,,,,,,,,,,,,,,,,,1068.5276203000103,None,1068.5276203000103,None,1069.0080501000048,None,1069.0080501000048,None,"['v', 't']","[6.780221499997424, 7.3349837999849115]",1069.0080501000048,None,6.780221499997424,7.3349837999849115,7,False,False,False,1078.8164905000012,None,1078.8164905000012,None,1078.8164905000012,None,1078.8164905000012,None,1078.8164905000012,None,1078.8164905000012,None,1078.8164905000012,None,1078.8164905000012,None,1079.8276657000242,None,1079.8276657000242,None,1,c,,,,,,,,,,,,,,,,,,5-6,001,2021_Feb_23_1733,ComputerHuman,2020.1.3,59.917050837952985,
,,,,Computer.xlsx,1,c,,,,,,0,5,5,1,,,,,,,,,,,,,,,,,,,,,,,,,,,,,,,,,,,,,,,,,,,,,,,,,,,,,,,,,,,,,,,,,,,,,,,,,,,,,,,,,,,,,,,,,,,,,,,,,,,,,,,1,c,1080.8274355000176,None,c,1,4.683562699996401,1081.8236099000205,None,1086.5284364000254,None,None,None,None,None,None,,,,5-6,001,2021_Feb_23_1733,ComputerHuman,2020.1.3,59.917050837952985,
Sychronize.jpg,Number8.jpg,,Human,Human.xlsx,1,h,8,,,,,0,6,6,2,0,0,0,4,,,,,,,,,,,,,,,,,,,,,,,,,,,,,,,,,,,,,,,,,,,,,,,,,,,,,,,,,1091.5662852000096,None,1091.5662852000096,None,1094.599272899999,None,1094.599272899999,None,1095.0615560000006,None,1095.0615560000006,None,"['t', 'v']","[5.6464957000280265, 8.238316500006476]",1095.0615560000006,None,8.238316500006476,5.6464957000280265,8,False,False,False,1107.4066775000247,None,1107.4066775000247,None,1107.4066775000247,None,1107.4066775000247,None,1107.4066775000247,None,1107.4066775000247,None,1107.4066775000247,None,1107.4066775000247,None,1108.4167183000245,None,1108.4167183000245,None,1,h,,,,,,,,,,,,,,,,,,5-6,001,2021_Feb_23_1733,ComputerHuman,2020.1.3,59.917050837952985,
Sychronize.jpg,Number6.jpg,,Human,Human.xlsx,1,h,6,,,,,0,6,6,2,0,1,1,0,,,,,,,,,,,,,,,,,,,,,,,,,,,,,,,,,,,,,,,,,,,,,,,,,,,,,,,,,,,,,1109.4363411000231,None,1109.4363411000231,None,1109.9146575000195,None,1109.9146575000195,None,"['v', 't']","[4.996435899985954, 5.812699500005692]",1109.9146575000195,None,4.996435899985954,5.812699500005692,6,False,False,False,1117.6824498000205,None,1117.6824498000205,None,1117.6824498000205,None,1117.6824498000205,None,1117.6824498000205,None,1117.6824498000205,None,1117.6824498000205,None,1117.6824498000205,None,1118.7021780000068,None,1118.7021780000068,None,1,h,,,,,,,,,,,,,,,,,,5-6,001,2021_Feb_23_1733,ComputerHuman,2020.1.3,59.917050837952985,
Sychronize.jpg,Number7.jpg,,Human,Human.xlsx,1,h,7,,,,,0,6,6,2,0,2,2,2,,,,,,,,,,,,,,,,,,,,,,,,,,,,,,,,,,,,,,,,,,,,,,,,,,,,,,,,,,,,,1119.7110625000205,None,1119.7110625000205,None,1120.2013675000053,None,1120.2013675000053,None,"['t', 'v']","[5.686457800009521, 5.8737171000102535]",1120.2013675000053,None,5.8737171000102535,5.686457800009521,7,False,False,False,1129.4790085999994,None,1129.4790085999994,None,1129.4790085999994,None,1129.4790085999994,None,1129.4790085999994,None,1129.4790085999994,None,1129.4790085999994,None,1129.4790085999994,None,1130.5113854000228,None,1130.5113854000228,None,1,h,,,,,,,,,,,,,,,,,,5-6,001,2021_Feb_23_1733,ComputerHuman,2020.1.3,59.917050837952985,
Sychronize.jpg,Number8.jpg,,Human,Human.xlsx,1,h,8,,,,,0,6,6,2,0,3,3,5,,,,,,,,,,,,,,,,,,,,,,,,,,,,,,,,,,,,,,,,,,,,,,,,,,,,,,,,,,,,,1131.513270800002,None,1131.513270800002,None,1131.987257300003,None,1131.987257300003,None,"['t', 'v']","[6.022823300008895, 7.624632499995641]",1131.987257300003,None,7.624632499995641,6.022823300008895,8,False,False,False,1142.7601006000186,None,1142.7601006000186,None,1142.7601006000186,None,1142.7601006000186,None,1142.7601006000186,None,1142.7601006000186,None,1142.7601006000186,None,1142.7601006000186,None,1143.774926300015,None,1143.774926300015,None,1,h,,,,,,,,,,,,,,,,,,5-6,001,2021_Feb_23_1733,ComputerHuman,2020.1.3,59.917050837952985,
Sychronize.jpg,Number9.jpg,,Human,Human.xlsx,1,h,9,,,,,0,6,6,2,0,4,4,7,,,,,,,,,,,,,,,,,,,,,,,,,,,,,,,,,,,,,,,,,,,,,,,,,,,,,,,,,,,,,1144.7929969000106,None,1144.7929969000106,None,1145.2732940000133,None,1145.2732940000133,None,"['t', 'v']","[6.733568399999058, 7.085379299998749]",1145.2732940000133,None,7.085379299998749,6.733568399999058,9,False,False,False,1156.1679958000022,None,1156.1679958000022,None,1156.1679958000022,None,1156.1679958000022,None,1156.1679958000022,None,1156.1679958000022,None,1156.1679958000022,None,1156.1679958000022,None,1157.1771421000012,None,1157.1771421000012,None,1,h,,,,,,,,,,,,,,,,,,5-6,001,2021_Feb_23_1733,ComputerHuman,2020.1.3,59.917050837952985,
Sychronize.jpg,Number10.jpg,,Human,Human.xlsx,1,h,10,,,,,0,6,6,2,0,5,5,8,,,,,,,,,,,,,,,,,,,,,,,,,,,,,,,,,,,,,,,,,,,,,,,,,,,,,,,,,,,,,1158.1957196000149,None,1158.1957196000149,None,1158.6761333000031,None,1158.6761333000031,None,"['t', 'v']","[8.815601899987087, 8.92772559999139]",1158.6761333000031,None,8.92772559999139,8.815601899987087,10,False,False,False,1171.4007453000231,None,1171.4007453000231,None,1171.4007453000231,None,1171.4007453000231,None,1171.4007453000231,None,1171.4007453000231,None,1171.4007453000231,None,1171.4007453000231,None,1172.4171568000165,None,1172.4171568000165,None,1,h,,,,,,,,,,,,,,,,,,5-6,001,2021_Feb_23_1733,ComputerHuman,2020.1.3,59.917050837952985,
Sychronize.jpg,Number7.jpg,,Human,Human.xlsx,1,h,7,,,,,0,6,6,2,0,6,6,3,,,,,,,,,,,,,,,,,,,,,,,,,,,,,,,,,,,,,,,,,,,,,,,,,,,,,,,,,,,,,1173.4218387000146,None,1173.4218387000146,None,1173.915284000017,None,1173.915284000017,None,"['t', 'v']","[5.4926050000067335, 5.708911800000351]",1173.915284000017,None,5.708911800000351,5.4926050000067335,7,False,False,False,1182.6419055000006,None,1182.6419055000006,None,1182.6419055000006,None,1182.6419055000006,None,1182.6419055000006,None,1182.6419055000006,None,1182.6419055000006,None,1182.6419055000006,None,1183.6495464000036,None,1183.6495464000036,None,1,h,,,,,,,,,,,,,,,,,,5-6,001,2021_Feb_23_1733,ComputerHuman,2020.1.3,59.917050837952985,
Sychronize.jpg,Number9.jpg,,Human,Human.xlsx,1,h,9,,,,,0,6,6,2,0,7,7,6,,,,,,,,,,,,,,,,,,,,,,,,,,,,,,,,,,,,,,,,,,,,,,,,,,,,,,,,,,,,,1184.6683371000108,None,1184.6683371000108,None,1185.146615500009,None,1185.146615500009,None,"['v', 't']","[7.567781099991407, 7.620398600003682]",1185.146615500009,None,7.567781099991407,7.620398600003682,9,False,False,False,1195.0227658000076,None,1195.0227658000076,None,1195.0227658000076,None,1195.0227658000076,None,1195.0227658000076,None,1195.0227658000076,None,1195.0227658000076,None,1195.0227658000076,None,1196.0576924000052,None,1196.0576924000052,None,1,h,,,,,,,,,,,,,,,,,,5-6,001,2021_Feb_23_1733,ComputerHuman,2020.1.3,59.917050837952985,
Sychronize.jpg,Number6.jpg,,Human,Human.xlsx,1,h,6,,,,,0,6,6,2,0,8,8,1,,,,,,,,,,,,,,,,,,,,,,,,,,,,,,,,,,,,,,,,,,,,,,,,,,,,,,,,,,,,,1197.054247400025,None,1197.054247400025,None,1197.5324547000055,None,1197.5324547000055,None,"['v', 't']","[5.33974070000113, 6.094289500004379]",1197.5324547000055,None,5.33974070000113,6.094289500004379,6,False,False,False,1205.4173185000254,None,1205.4173185000254,None,1205.4173185000254,None,1205.4173185000254,None,1205.4173185000254,None,1205.4173185000254,None,1205.4173185000254,None,1205.4173185000254,None,1206.4365642000048,None,1206.4365642000048,None,1,h,,,,,,,,,,,,,,,,,,5-6,001,2021_Feb_23_1733,ComputerHuman,2020.1.3,59.917050837952985,
Sychronize.jpg,Number10.jpg,,Human,Human.xlsx,1,h,10,,,,,0,6,6,2,0,9,9,9,,,,,,,,,,,,,,,,,,,,,,,,,,,,,,,,,,,,,,,,,,,,,,,,,,,,,,,,,,,,,1207.461068900011,None,1207.461068900011,None,1207.9361647000187,None,1207.9361647000187,None,"['t', 'v']","[7.25614690000657, 9.251627899997402]",1207.9361647000187,None,9.251627899997402,7.25614690000657,10,False,False,False,1221.479764800024,None,1221.479764800024,None,1221.479764800024,None,1221.479764800024,None,1221.479764800024,None,1221.479764800024,None,1221.479764800024,None,1221.479764800024,None,1222.490019800025,None,1222.490019800025,None,1,h,,,,,,,,,,,,,,,,,,5-6,001,2021_Feb_23_1733,ComputerHuman,2020.1.3,59.917050837952985,
,,,,Human.xlsx,1,h,,,,,,0,6,6,2,,,,,,,,,,,,,,,,,,,,,,,,,,,,,,,,,,,,,,,,,,,,,,,,,,,,,,,,,,,,,,,,,,,,,,,,,,,,,,,,,,,,,,,,,,,,,,,,,,,,,,,1,h,1223.4891787000233,None,h,1,2.346127600001637,1224.4859888000065,None,1226.8610768000071,None,None,None,None,None,None,,,,5-6,001,2021_Feb_23_1733,ComputerHuman,2020.1.3,59.917050837952985,
Sychronize.jpg,Number7.jpg,,Human,Human.xlsx,2,h,7,,,,,0,7,7,4,0,0,0,2,,,,,,,,,,,,,,,,,,,,,,,,,,,,,,,,,,,,,,,,,,,,,,,,,,,,,,,,,1231.8768379000248,None,1231.8768379000248,None,1234.911728200008,None,1234.911728200008,None,1235.3914832000155,None,1235.3914832000155,None,"['t', 'v']","[5.248232600017218, 6.012795800023014]",1235.3914832000155,None,6.012795800023014,5.248232600017218,7,False,False,False,1244.342997300002,None,1244.342997300002,None,1244.342997300002,None,1244.342997300002,None,1244.342997300002,None,1244.342997300002,None,1244.342997300002,None,1244.342997300002,None,1245.3612588999968,None,1245.3612588999968,None,2,h,,,,,,,,,,,,,,,,,,5-6,001,2021_Feb_23_1733,ComputerHuman,2020.1.3,59.917050837952985,
Sychronize.jpg,Number7.jpg,,Human,Human.xlsx,2,h,7,,,,,0,7,7,4,0,1,1,3,,,,,,,,,,,,,,,,,,,,,,,,,,,,,,,,,,,,,,,,,,,,,,,,,,,,,,,,,,,,,1246.3801254999998,None,1246.3801254999998,None,1246.8590798000223,None,1246.8590798000223,None,"['t', 'v']","[5.811767700011842, 6.593556800013175]",1246.8590798000223,None,6.593556800013175,5.811767700011842,7,False,False,False,1255.960841400025,None,1255.960841400025,None,1255.960841400025,None,1255.960841400025,None,1255.960841400025,None,1255.960841400025,None,1255.960841400025,None,1255.960841400025,None,1256.964598999999,None,1256.964598999999,None,2,h,,,,,,,,,,,,,,,,,,5-6,001,2021_Feb_23_1733,ComputerHuman,2020.1.3,59.917050837952985,
Sychronize.jpg,Number9.jpg,,Human,Human.xlsx,2,h,9,,,,,0,7,7,4,0,2,2,6,,,,,,,,,,,,,,,,,,,,,,,,,,,,,,,,,,,,,,,,,,,,,,,,,,,,,,,,,,,,,1257.9833941000106,None,1257.9833941000106,None,1258.463060500013,None,1258.463060500013,None,"['t', 'v']","[8.060066100006225, 8.330050999997184]",1258.463060500013,None,8.330050999997184,8.060066100006225,9,False,False,False,1270.1193579000246,None,1270.1193579000246,None,1270.1193579000246,None,1270.1193579000246,None,1270.1193579000246,None,1270.1193579000246,None,1270.1193579000246,None,1270.1193579000246,None,1271.1529825000034,None,1271.1529825000034,None,2,h,,,,,,,,,,,,,,,,,,5-6,001,2021_Feb_23_1733,ComputerHuman,2020.1.3,59.917050837952985,
Sychronize.jpg,Number8.jpg,,Human,Human.xlsx,2,h,8,,,,,0,7,7,4,0,3,3,5,,,,,,,,,,,,,,,,,,,,,,,,,,,,,,,,,,,,,,,,,,,,,,,,,,,,,,,,,,,,,1272.1518021000084,None,1272.1518021000084,None,1272.632684900018,None,1272.632684900018,None,"['v', 't']","[6.987114100018516, 9.823701300018001]",1272.632684900018,None,6.987114100018516,9.823701300018001,8,False,False,False,1284.7925684000074,None,1284.7925684000074,None,1284.7925684000074,None,1284.7925684000074,None,1284.7925684000074,None,1284.7925684000074,None,1284.7925684000074,None,1284.7925684000074,None,1285.8037917000183,None,1285.8037917000183,None,2,h,,,,,,,,,,,,,,,,,,5-6,001,2021_Feb_23_1733,ComputerHuman,2020.1.3,59.917050837952985,
Sychronize.jpg,Number6.jpg,,Human,Human.xlsx,2,h,6,,,,,0,7,7,4,0,4,4,0,,,,,,,,,,,,,,,,,,,,,,,,,,,,,,,,,,,,,,,,,,,,,,,,,,,,,,,,,,,,,1286.8224358000152,None,1286.8224358000152,None,1287.302130199998,None,1287.302130199998,None,"['t', 'v']","[5.235057699988829, 5.609909199993126]",1287.302130199998,None,5.609909199993126,5.235057699988829,6,False,False,False,1295.935147400014,None,1295.935147400014,None,1295.935147400014,None,1295.935147400014,None,1295.935147400014,None,1295.935147400014,None,1295.935147400014,None,1295.935147400014,None,1296.9380900000106,None,1296.9380900000106,None,2,h,,,,,,,,,,,,,,,,,,5-6,001,2021_Feb_23_1733,ComputerHuman,2020.1.3,59.917050837952985,
Sychronize.jpg,Number9.jpg,,Human,Human.xlsx,2,h,9,,,,,0,7,7,4,0,5,5,7,,,,,,,,,,,,,,,,,,,,,,,,,,,,,,,,,,,,,,,,,,,,,,,,,,,,,,,,,,,,,1297.9580177000025,None,1297.9580177000025,None,1298.4379358000006,None,1298.4379358000006,None,"['v', 't']","[6.790162299992517, 8.029923800000688]",1298.4379358000006,None,6.790162299992517,8.029923800000688,9,False,False,False,1308.376650500024,None,1308.376650500024,None,1308.376650500024,None,1308.376650500024,None,1308.376650500024,None,1308.376650500024,None,1308.376650500024,None,1308.376650500024,None,1309.3909030000214,None,1309.3909030000214,None,2,h,,,,,,,,,,,,,,,,,,5-6,001,2021_Feb_23_1733,ComputerHuman,2020.1.3,59.917050837952985,
Sychronize.jpg,Number10.jpg,,Human,Human.xlsx,2,h,10,,,,,0,7,7,4,0,6,6,9,,,,,,,,,,,,,,,,,,,,,,,,,,,,,,,,,,,,,,,,,,,,,,,,,,,,,,,,,,,,,1310.416796000005,None,1310.416796000005,None,1310.8906278000213,None,1310.8906278000213,None,"['t', 'v']","[7.653391700005159, 8.398149100015871]",1310.8906278000213,None,8.398149100015871,7.653391700005159,10,False,False,False,1322.586700600019,None,1322.586700600019,None,1322.586700600019,None,1322.586700600019,None,1322.586700600019,None,1322.586700600019,None,1322.586700600019,None,1322.586700600019,None,1323.5937036999967,None,1323.5937036999967,None,2,h,,,,,,,,,,,,,,,,,,5-6,001,2021_Feb_23_1733,ComputerHuman,2020.1.3,59.917050837952985,
Sychronize.jpg,Number6.jpg,,Human,Human.xlsx,2,h,6,,,,,0,7,7,4,0,7,7,1,,,,,,,,,,,,,,,,,,,,,,,,,,,,,,,,,,,,,,,,,,,,,,,,,,,,,,,,,,,,,1324.619359000004,None,1324.619359000004,None,1325.093357900012,None,1325.093357900012,None,"['v', 't']","[5.422592999995686, 5.766564399993513]",1325.093357900012,None,5.422592999995686,5.766564399993513,6,False,False,False,1333.2988255000091,None,1333.2988255000091,None,1333.2988255000091,None,1333.2988255000091,None,1333.2988255000091,None,1333.2988255000091,None,1333.2988255000091,None,1333.2988255000091,None,1334.3128616000176,None,1334.3128616000176,None,2,h,,,,,,,,,,,,,,,,,,5-6,001,2021_Feb_23_1733,ComputerHuman,2020.1.3,59.917050837952985,
Sychronize.jpg,Number10.jpg,,Human,Human.xlsx,2,h,10,,,,,0,7,7,4,0,8,8,8,,,,,,,,,,,,,,,,,,,,,,,,,,,,,,,,,,,,,,,,,,,,,,,,,,,,,,,,,,,,,1335.3322741000156,None,1335.3322741000156,None,1335.8118959999993,None,1335.8118959999993,None,['t'],[7.835840699990513],1335.8118959999993,None,13,7.835840699990513,10,False,False,False,1351.6216699000215,None,1351.6216699000215,None,1351.6216699000215,None,1351.6216699000215,None,1351.6216699000215,None,1351.6216699000215,None,1351.6216699000215,None,1351.6216699000215,None,1352.6331896000193,None,1352.6331896000193,None,2,h,,,,,,,,,,,,,,,,,,5-6,001,2021_Feb_23_1733,ComputerHuman,2020.1.3,59.917050837952985,
Sychronize.jpg,Number8.jpg,,Human,Human.xlsx,2,h,8,,,,,0,7,7,4,0,9,9,4,,,,,,,,,,,,,,,,,,,,,,,,,,,,,,,,,,,,,,,,,,,,,,,,,,,,,,,,,,,,,1353.6521307000075,None,1353.6521307000075,None,1354.1322784000076,None,1354.1322784000076,None,"['v', 't']","[6.951772700005677, 7.507552000024589]",1354.1322784000076,None,6.951772700005677,7.507552000024589,8,False,False,False,1363.7600204000191,None,1363.7600204000191,None,1363.7600204000191,None,1363.7600204000191,None,1363.7600204000191,None,1363.7600204000191,None,1363.7600204000191,None,1363.7600204000191,None,1364.768610500003,None,1364.768610500003,None,2,h,,,,,,,,,,,,,,,,,,5-6,001,2021_Feb_23_1733,ComputerHuman,2020.1.3,59.917050837952985,
,,,,Human.xlsx,2,h,,,,,,0,7,7,4,,,,,,,,,,,,,,,,,,,,,,,,,,,,,,,,,,,,,,,,,,,,,,,,,,,,,,,,,,,,,,,,,,,,,,,,,,,,,,,,,,,,,,,,,,,,,,,,,,,,,,,2,h,1365.7683221000188,None,c,0,2.4712386000028346,1366.7648646000016,None,None,None,1369.2752195000066,None,"['space', 'space']",1370.2651124999975,None,"[1.2666720999986865, 3.213113499979954]",,,5-6,001,2021_Feb_23_1733,ComputerHuman,2020.1.3,59.917050837952985,
Sychronize.jpg,Number9.jpg,,Human,Human.xlsx,2,h,9,,,,,1,0,8,6,0,0,0,7,,,,,,,,,,,,,,,,,,,,,,,,,,,,,,,,,,,,,,,,,,,,,,,,,,,,,,,,,1373.522125700023,None,1373.522125700023,None,1376.5589103000239,None,1376.5589103000239,None,1377.0203009000106,None,1377.0203009000106,None,"['t', 'v']","[6.566455699998187, 7.799475600011647]",1377.0203009000106,None,7.799475600011647,6.566455699998187,9,False,False,False,1387.5137376000057,None,1387.5137376000057,None,1387.5137376000057,None,1387.5137376000057,None,1387.5137376000057,None,1387.5137376000057,None,1387.5137376000057,None,1387.5137376000057,None,1388.523845400021,None,1388.523845400021,None,2,h,,,,,,,,,,,,,,,,,,5-6,001,2021_Feb_23_1733,ComputerHuman,2020.1.3,59.917050837952985,
Sychronize.jpg,Number7.jpg,,Human,Human.xlsx,2,h,7,,,,,1,0,8,6,0,1,1,2,,,,,,,,,,,,,,,,,,,,,,,,,,,,,,,,,,,,,,,,,,,,,,,,,,,,,,,,,,,,,1389.543413700012,None,1389.543413700012,None,1390.0213528000168,None,1390.0213528000168,None,"['v', 't']","[6.334858999995049, 6.666104100004304]",1390.0213528000168,None,6.334858999995049,6.666104100004304,7,False,False,False,1398.2801115000038,None,1398.2801115000038,None,1398.2801115000038,None,1398.2801115000038,None,1398.2801115000038,None,1398.2801115000038,None,1398.2801115000038,None,1398.2801115000038,None,1399.2756047000003,None,1399.2756047000003,None,2,h,,,,,,,,,,,,,,,,,,5-6,001,2021_Feb_23_1733,ComputerHuman,2020.1.3,59.917050837952985,
Sychronize.jpg,Number10.jpg,,Human,Human.xlsx,2,h,10,,,,,1,0,8,6,0,2,2,8,,,,,,,,,,,,,,,,,,,,,,,,,,,,,,,,,,,,,,,,,,,,,,,,,,,,,,,,,,,,,1400.2962700000207,None,1400.2962700000207,None,1400.7750330000126,None,1400.7750330000126,None,"['t', 'v']","[7.9732376000029035, 8.569824600010179]",1400.7750330000126,None,8.569824600010179,7.9732376000029035,10,False,False,False,1412.7150153999974,None,1412.7150153999974,None,1412.7150153999974,None,1412.7150153999974,None,1412.7150153999974,None,1412.7150153999974,None,1412.7150153999974,None,1412.7150153999974,None,1413.7304174000164,None,1413.7304174000164,None,2,h,,,,,,,,,,,,,,,,,,5-6,001,2021_Feb_23_1733,ComputerHuman,2020.1.3,59.917050837952985,
Sychronize.jpg,Number7.jpg,,Human,Human.xlsx,2,h,7,,,,,1,0,8,6,0,3,3,3,,,,,,,,,,,,,,,,,,,,,,,,,,,,,,,,,,,,,,,,,,,,,,,,,,,,,,,,,,,,,1414.7478586000216,None,1414.7478586000216,None,1415.2282347000146,None,1415.2282347000146,None,"['t', 'v']","[5.967940000002272, 6.2877298000094015]",1415.2282347000146,None,6.2877298000094015,5.967940000002272,7,False,False,False,1425.4021971000184,None,1425.4021971000184,None,1425.4021971000184,None,1425.4021971000184,None,1425.4021971000184,None,1425.4021971000184,None,1425.4021971000184,None,1425.4021971000184,None,1426.415545900003,None,1426.415545900003,None,2,h,,,,,,,,,,,,,,,,,,5-6,001,2021_Feb_23_1733,ComputerHuman,2020.1.3,59.917050837952985,
Sychronize.jpg,Number8.jpg,,Human,Human.xlsx,2,h,8,,,,,1,0,8,6,0,4,4,4,,,,,,,,,,,,,,,,,,,,,,,,,,,,,,,,,,,,,,,,,,,,,,,,,,,,,,,,,,,,,1427.4343256000138,None,1427.4343256000138,None,1427.912575000024,None,1427.912575000024,None,"['t', 'v']","[7.275232599989977, 7.599535299988929]",1427.912575000024,None,7.599535299988929,7.275232599989977,8,False,False,False,1438.7386867000023,None,1438.7386867000023,None,1438.7386867000023,None,1438.7386867000023,None,1438.7386867000023,None,1438.7386867000023,None,1438.7386867000023,None,1438.7386867000023,None,1439.7353588000115,None,1439.7353588000115,None,2,h,,,,,,,,,,,,,,,,,,5-6,001,2021_Feb_23_1733,ComputerHuman,2020.1.3,59.917050837952985,
Sychronize.jpg,Number6.jpg,,Human,Human.xlsx,2,h,6,,,,,1,0,8,6,0,5,5,1,,,,,,,,,,,,,,,,,,,,,,,,,,,,,,,,,,,,,,,,,,,,,,,,,,,,,,,,,,,,,1440.7589806000178,None,1440.7589806000178,None,1441.2332089999982,None,1441.2332089999982,None,"['v', 't']","[5.639156799996272, 5.7946511000045575]",1441.2332089999982,None,5.639156799996272,5.7946511000045575,6,False,False,False,1448.7913349000155,None,1448.7913349000155,None,1448.7913349000155,None,1448.7913349000155,None,1448.7913349000155,None,1448.7913349000155,None,1448.7913349000155,None,1448.7913349000155,None,1449.8258846000244,None,1449.8258846000244,None,2,h,,,,,,,,,,,,,,,,,,5-6,001,2021_Feb_23_1733,ComputerHuman,2020.1.3,59.917050837952985,
Sychronize.jpg,Number8.jpg,,Human,Human.xlsx,2,h,8,,,,,1,0,8,6,0,6,6,5,,,,,,,,,,,,,,,,,,,,,,,,,,,,,,,,,,,,,,,,,,,,,,,,,,,,,,,,,,,,,1450.8223979000177,None,1450.8223979000177,None,1451.3004423000093,None,1451.3004423000093,None,"['v', 't']","[6.793885299994145, 7.9152089999988675]",1451.3004423000093,None,6.793885299994145,7.9152089999988675,8,False,False,False,1461.1012679999985,None,1461.1012679999985,None,1461.1012679999985,None,1461.1012679999985,None,1461.1012679999985,None,1461.1012679999985,None,1461.1012679999985,None,1461.1012679999985,None,1462.105502600025,None,1462.105502600025,None,2,h,,,,,,,,,,,,,,,,,,5-6,001,2021_Feb_23_1733,ComputerHuman,2020.1.3,59.917050837952985,
Sychronize.jpg,Number6.jpg,,Human,Human.xlsx,2,h,6,,,,,1,0,8,6,0,7,7,0,,,,,,,,,,,,,,,,,,,,,,,,,,,,,,,,,,,,,,,,,,,,,,,,,,,,,,,,,,,,,1463.1249290000123,None,1463.1249290000123,None,1463.6052887999977,None,1463.6052887999977,None,"['t', 'v']","[5.894423199992161, 7.5425625999923795]",1463.6052887999977,None,7.5425625999923795,5.894423199992161,6,False,False,False,1473.7001818999997,None,1473.7001818999997,None,1473.7001818999997,None,1473.7001818999997,None,1473.7001818999997,None,1473.7001818999997,None,1473.7001818999997,None,1473.7001818999997,None,1474.708785499999,None,1474.708785499999,None,2,h,,,,,,,,,,,,,,,,,,5-6,001,2021_Feb_23_1733,ComputerHuman,2020.1.3,59.917050837952985,
Sychronize.jpg,Number10.jpg,,Human,Human.xlsx,2,h,10,,,,,1,0,8,6,0,8,8,9,,,,,,,,,,,,,,,,,,,,,,,,,,,,,,,,,,,,,,,,,,,,,,,,,,,,,,,,,,,,,1475.7331127000216,None,1475.7331127000216,None,1476.2071308000013,None,1476.2071308000013,None,"['t', 'v']","[8.53644749999512, 9.736606599995866]",1476.2071308000013,None,9.736606599995866,8.53644749999512,10,False,False,False,1488.6856182000192,None,1488.6856182000192,None,1488.6856182000192,None,1488.6856182000192,None,1488.6856182000192,None,1488.6856182000192,None,1488.6856182000192,None,1488.6856182000192,None,1489.6943071999995,None,1489.6943071999995,None,2,h,,,,,,,,,,,,,,,,,,5-6,001,2021_Feb_23_1733,ComputerHuman,2020.1.3,59.917050837952985,
Sychronize.jpg,Number9.jpg,,Human,Human.xlsx,2,h,9,,,,,1,0,8,6,0,9,9,6,,,,,,,,,,,,,,,,,,,,,,,,,,,,,,,,,,,,,,,,,,,,,,,,,,,,,,,,,,,,,1490.7198774999997,None,1490.7198774999997,None,1491.2123486000055,None,1491.2123486000055,None,"['t', 'v']","[8.139719700004207, 8.759638299990911]",1491.2123486000055,None,8.759638299990911,8.139719700004207,9,False,False,False,1503.7559914000158,None,1503.7559914000158,None,1503.7559914000158,None,1503.7559914000158,None,1503.7559914000158,None,1503.7559914000158,None,1503.7559914000158,None,1503.7559914000158,None,1504.7653684999968,None,1504.7653684999968,None,2,h,,,,,,,,,,,,,,,,,,5-6,001,2021_Feb_23_1733,ComputerHuman,2020.1.3,59.917050837952985,
,,,,Human.xlsx,2,h,,,,,,1,0,8,6,,,,,,,,,,,,,,,,,,,,,,,,,,,,,,,,,,,,,,,,,,,,,,,,,,,,,,,,,,,,,,,,,,,,,,,,,,,,,,,,,,,,,,,,,,,,,,,,,,,,,,,2,h,1505.763386400009,None,h,1,2.603840700001456,1506.759999300004,None,1509.4033900000213,None,None,None,None,None,None,,,,5-6,001,2021_Feb_23_1733,ComputerHuman,2020.1.3,59.917050837952985,
Sychronize.jpg,Number7.jpg,,Computer,Computer.xlsx,2,c,7,,,,,1,1,9,5,0,0,0,3,,,,,,,,,,,,,,,,,,,,,,,,,,,,,,,,,,,,,,,,,,,,,,,,,,,,,,,,,1514.4376025000238,None,1514.4376025000238,None,1517.4519891000236,None,1517.4519891000236,None,1517.915885000024,None,1517.915885000024,None,"['t', 'v']","[5.252236600004835, 5.555936999997357]",1517.915885000024,None,5.555936999997357,5.252236600004835,7,False,False,False,1527.2382586000022,None,1527.2382586000022,None,1527.2382586000022,None,1527.2382586000022,None,1527.2382586000022,None,1527.2382586000022,None,1527.2382586000022,None,1527.2382586000022,None,1528.2522326000035,None,1528.2522326000035,None,2,c,,,,,,,,,,,,,,,,,,5-6,001,2021_Feb_23_1733,ComputerHuman,2020.1.3,59.917050837952985,
Sychronize.jpg,Number6.jpg,,Computer,Computer.xlsx,2,c,6,,,,,1,1,9,5,0,1,1,1,,,,,,,,,,,,,,,,,,,,,,,,,,,,,,,,,,,,,,,,,,,,,,,,,,,,,,,,,,,,,1529.281613900006,None,1529.281613900006,None,1529.751348300022,None,1529.751348300022,None,"['v', 't']","[6.16433679999318, 8.324422800011234]",1529.751348300022,None,6.16433679999318,8.324422800011234,6,False,False,False,1539.6736294000002,None,1539.6736294000002,None,1539.6736294000002,None,1539.6736294000002,None,1539.6736294000002,None,1539.6736294000002,None,1539.6736294000002,None,1539.6736294000002,None,1540.6882043000078,None,1540.6882043000078,None,2,c,,,,,,,,,,,,,,,,,,5-6,001,2021_Feb_23_1733,ComputerHuman,2020.1.3,59.917050837952985,
Sychronize.jpg,Number7.jpg,,Computer,Computer.xlsx,2,c,7,,,,,1,1,9,5,0,2,2,2,,,,,,,,,,,,,,,,,,,,,,,,,,,,,,,,,,,,,,,,,,,,,,,,,,,,,,,,,,,,,1541.7123541000183,None,1541.7123541000183,None,1542.1856777000066,None,1542.1856777000066,None,"['v', 't']","[6.302185200009262, 6.610034400015138]",1542.1856777000066,None,6.302185200009262,6.610034400015138,7,False,False,False,1550.4603594000218,None,1550.4603594000218,None,1550.4603594000218,None,1550.4603594000218,None,1550.4603594000218,None,1550.4603594000218,None,1550.4603594000218,None,1550.4603594000218,None,1551.4574756000075,None,1551.4574756000075,None,2,c,,,,,,,,,,,,,,,,,,5-6,001,2021_Feb_23_1733,ComputerHuman,2020.1.3,59.917050837952985,
Sychronize.jpg,Number8.jpg,,Computer,Computer.xlsx,2,c,8,,,,,1,1,9,5,0,3,3,4,,,,,,,,,,,,,,,,,,,,,,,,,,,,,,,,,,,,,,,,,,,,,,,,,,,,,,,,,,,,,1552.4764131999982,None,1552.4764131999982,None,1552.9562014999974,None,1552.9562014999974,None,"['v', 't']","[7.383501700009219, 7.466964799998095]",1552.9562014999974,None,7.383501700009219,7.466964799998095,8,False,False,False,1562.2062943000055,None,1562.2062943000055,None,1562.2062943000055,None,1562.2062943000055,None,1562.2062943000055,None,1562.2062943000055,None,1562.2062943000055,None,1562.2062943000055,None,1563.2260470000037,None,1563.2260470000037,None,2,c,,,,,,,,,,,,,,,,,,5-6,001,2021_Feb_23_1733,ComputerHuman,2020.1.3,59.917050837952985,
Sychronize.jpg,Number10.jpg,,Computer,Computer.xlsx,2,c,10,,,,,1,1,9,5,0,4,4,8,,,,,,,,,,,,,,,,,,,,,,,,,,,,,,,,,,,,,,,,,,,,,,,,,,,,,,,,,,,,,1564.2453062999994,None,1564.2453062999994,None,1564.725036000018,None,1564.725036000018,None,"['v', 't']","[6.207255999994231, 8.862372200004756]",1564.725036000018,None,6.207255999994231,8.862372200004756,10,False,False,False,1575.9428677000105,None,1575.9428677000105,None,1575.9428677000105,None,1575.9428677000105,None,1575.9428677000105,None,1575.9428677000105,None,1575.9428677000105,None,1575.9428677000105,None,1576.944947800017,None,1576.944947800017,None,2,c,,,,,,,,,,,,,,,,,,5-6,001,2021_Feb_23_1733,ComputerHuman,2020.1.3,59.917050837952985,
Sychronize.jpg,Number9.jpg,,Computer,Computer.xlsx,2,c,9,,,,,1,1,9,5,0,5,5,6,,,,,,,,,,,,,,,,,,,,,,,,,,,,,,,,,,,,,,,,,,,,,,,,,,,,,,,,,,,,,1577.9696203000203,None,1577.9696203000203,None,1578.4450168000185,None,1578.4450168000185,None,"['v', 't']","[7.950649500009604, 8.785301600000821]",1578.4450168000185,None,7.950649500009604,8.785301600000821,9,False,False,False,1588.8661738000228,None,1588.8661738000228,None,1588.8661738000228,None,1588.8661738000228,None,1588.8661738000228,None,1588.8661738000228,None,1588.8661738000228,None,1588.8661738000228,None,1589.8832056000247,None,1589.8832056000247,None,2,c,,,,,,,,,,,,,,,,,,5-6,001,2021_Feb_23_1733,ComputerHuman,2020.1.3,59.917050837952985,
Sychronize.jpg,Number6.jpg,,Computer,Computer.xlsx,2,c,6,,,,,1,1,9,5,0,6,6,0,,,,,,,,,,,,,,,,,,,,,,,,,,,,,,,,,,,,,,,,,,,,,,,,,,,,,,,,,,,,,1590.9006547000026,None,1590.9006547000026,None,1591.3806377,None,1591.3806377,None,"['v', 't']","[5.28702859999612, 6.683732799981954]",1591.3806377,None,5.28702859999612,6.683732799981954,6,False,False,False,1600.4177260000142,None,1600.4177260000142,None,1600.4177260000142,None,1600.4177260000142,None,1600.4177260000142,None,1600.4177260000142,None,1600.4177260000142,None,1600.4177260000142,None,1601.4172642000194,None,1601.4172642000194,None,2,c,,,,,,,,,,,,,,,,,,5-6,001,2021_Feb_23_1733,ComputerHuman,2020.1.3,59.917050837952985,
Sychronize.jpg,Number9.jpg,,Computer,Computer.xlsx,2,c,9,,,,,1,1,9,5,0,7,7,7,,,,,,,,,,,,,,,,,,,,,,,,,,,,,,,,,,,,,,,,,,,,,,,,,,,,,,,,,,,,,1602.441728900012,None,1602.441728900012,None,1602.915970800008,None,1602.915970800008,None,"['t', 'v']","[7.448334900022019, 7.954916600021534]",1602.915970800008,None,7.954916600021534,7.448334900022019,9,False,False,False,1614.9458326000022,None,1614.9458326000022,None,1614.9458326000022,None,1614.9458326000022,None,1614.9458326000022,None,1614.9458326000022,None,1614.9458326000022,None,1614.9458326000022,None,1615.9531463000167,None,1615.9531463000167,None,2,c,,,,,,,,,,,,,,,,,,5-6,001,2021_Feb_23_1733,ComputerHuman,2020.1.3,59.917050837952985,
Sychronize.jpg,Number8.jpg,,Computer,Computer.xlsx,2,c,8,,,,,1,1,9,5,0,8,8,5,,,,,,,,,,,,,,,,,,,,,,,,,,,,,,,,,,,,,,,,,,,,,,,,,,,,,,,,,,,,,1616.9778315000003,None,1616.9778315000003,None,1617.452202800021,None,1617.452202800021,None,"['v', 't']","[8.007475699996576, 8.139368999982253]",1617.452202800021,None,8.007475699996576,8.139368999982253,8,False,False,False,1627.703681700019,None,1627.703681700019,None,1627.703681700019,None,1627.703681700019,None,1627.703681700019,None,1627.703681700019,None,1627.703681700019,None,1627.703681700019,None,1628.7451034999976,None,1628.7451034999976,None,2,c,,,,,,,,,,,,,,,,,,5-6,001,2021_Feb_23_1733,ComputerHuman,2020.1.3,59.917050837952985,
Sychronize.jpg,Number10.jpg,,Computer,Computer.xlsx,2,c,10,,,,,1,1,9,5,0,9,9,9,,,,,,,,,,,,,,,,,,,,,,,,,,,,,,,,,,,,,,,,,,,,,,,,,,,,,,,,,,,,,1629.7480210000067,None,1629.7480210000067,None,1630.2220384000102,None,1630.2220384000102,None,"['t', 'v']","[8.67756890002056, 8.705525199999101]",1630.2220384000102,None,8.705525199999101,8.67756890002056,10,False,False,False,1642.2626737000246,None,1642.2626737000246,None,1642.2626737000246,None,1642.2626737000246,None,1642.2626737000246,None,1642.2626737000246,None,1642.2626737000246,None,1642.2626737000246,None,1643.2754764000128,None,1643.2754764000128,None,2,c,,,,,,,,,,,,,,,,,,5-6,001,2021_Feb_23_1733,ComputerHuman,2020.1.3,59.917050837952985,
,,,,Computer.xlsx,2,c,,,,,,1,1,9,5,,,,,,,,,,,,,,,,,,,,,,,,,,,,,,,,,,,,,,,,,,,,,,,,,,,,,,,,,,,,,,,,,,,,,,,,,,,,,,,,,,,,,,,,,,,,,,,,,,,,,,,2,c,1644.2735007000156,None,c,1,2.0764189999899827,1645.271260700014,None,1647.3936761000077,None,None,None,None,None,None,,,,5-6,001,2021_Feb_23_1733,ComputerHuman,2020.1.3,59.917050837952985,
Sychronize.jpg,Number6.jpg,,Human,Human.xlsx,1,h,6,,,,,1,2,10,2,0,0,0,0,,,,,,,,,,,,,,,,,,,,,,,,,,,,,,,,,,,,,,,,,,,,,,,,,,,,,,,,,1652.3953665000154,None,1652.3953665000154,None,1655.430242100003,None,1655.430242100003,None,1655.9104554000078,None,1655.9104554000078,None,"['t', 'v']","[4.665654499985976, 5.233746499987319]",1655.9104554000078,None,5.233746499987319,4.665654499985976,6,False,False,False,1664.505396100023,None,1664.505396100023,None,1664.505396100023,None,1664.505396100023,None,1664.505396100023,None,1664.505396100023,None,1664.505396100023,None,1664.505396100023,None,1665.513142300013,None,1665.513142300013,None,1,h,,,,,,,,,,,,,,,,,,5-6,001,2021_Feb_23_1733,ComputerHuman,2020.1.3,59.917050837952985,
Sychronize.jpg,Number10.jpg,,Human,Human.xlsx,1,h,10,,,,,1,2,10,2,0,1,1,9,,,,,,,,,,,,,,,,,,,,,,,,,,,,,,,,,,,,,,,,,,,,,,,,,,,,,,,,,,,,,1666.532828299998,None,1666.532828299998,None,1667.0123231000034,None,1667.0123231000034,None,"['t', 'v']","[8.695307699992554, 9.46989290000056]",1667.0123231000034,None,9.46989290000056,8.695307699992554,10,False,False,False,1680.0989624000213,None,1680.0989624000213,None,1680.0989624000213,None,1680.0989624000213,None,1680.0989624000213,None,1680.0989624000213,None,1680.0989624000213,None,1680.0989624000213,None,1681.1162905000092,None,1681.1162905000092,None,1,h,,,,,,,,,,,,,,,,,,5-6,001,2021_Feb_23_1733,ComputerHuman,2020.1.3,59.917050837952985,
Sychronize.jpg,Number7.jpg,,Human,Human.xlsx,1,h,7,,,,,1,2,10,2,0,2,2,2,,,,,,,,,,,,,,,,,,,,,,,,,,,,,,,,,,,,,,,,,,,,,,,,,,,,,,,,,,,,,1682.1420979000104,None,1682.1420979000104,None,1682.6158937000146,None,1682.6158937000146,None,"['v', 't']","[6.263459700014209, 7.247559200011892]",1682.6158937000146,None,6.263459700014209,7.247559200011892,7,False,False,False,1692.0782768000208,None,1692.0782768000208,None,1692.0782768000208,None,1692.0782768000208,None,1692.0782768000208,None,1692.0782768000208,None,1692.0782768000208,None,1692.0782768000208,None,1693.085356800002,None,1693.085356800002,None,1,h,,,,,,,,,,,,,,,,,,5-6,001,2021_Feb_23_1733,ComputerHuman,2020.1.3,59.917050837952985,
Sychronize.jpg,Number9.jpg,,Human,Human.xlsx,1,h,9,,,,,1,2,10,2,0,3,3,7,,,,,,,,,,,,,,,,,,,,,,,,,,,,,,,,,,,,,,,,,,,,,,,,,,,,,,,,,,,,,1694.1156416000158,None,1694.1156416000158,None,1694.5849607000127,None,1694.5849607000127,None,"['t', 'v']","[7.966102699982002, 8.690957399987383]",1694.5849607000127,None,8.690957399987383,7.966102699982002,9,False,False,False,1706.2585368000146,None,1706.2585368000146,None,1706.2585368000146,None,1706.2585368000146,None,1706.2585368000146,None,1706.2585368000146,None,1706.2585368000146,None,1706.2585368000146,None,1707.2716186000034,None,1707.2716186000034,None,1,h,,,,,,,,,,,,,,,,,,5-6,001,2021_Feb_23_1733,ComputerHuman,2020.1.3,59.917050837952985,
Sychronize.jpg,Number6.jpg,,Human,Human.xlsx,1,h,6,,,,,1,2,10,2,0,4,4,1,,,,,,,,,,,,,,,,,,,,,,,,,,,,,,,,,,,,,,,,,,,,,,,,,,,,,,,,,,,,,1708.296004600008,None,1708.296004600008,None,1708.7711675000028,None,1708.7711675000028,None,"['t', 'v']","[5.55236469997908, 5.784996699978365]",1708.7711675000028,None,5.784996699978365,5.55236469997908,6,False,False,False,1717.865536199999,None,1717.865536199999,None,1717.865536199999,None,1717.865536199999,None,1717.865536199999,None,1717.865536199999,None,1717.865536199999,None,1717.865536199999,None,1718.8966670000227,None,1718.8966670000227,None,1,h,,,,,,,,,,,,,,,,,,5-6,001,2021_Feb_23_1733,ComputerHuman,2020.1.3,59.917050837952985,
Sychronize.jpg,Number8.jpg,,Human,Human.xlsx,1,h,8,,,,,1,2,10,2,0,5,5,5,,,,,,,,,,,,,,,,,,,,,,,,,,,,,,,,,,,,,,,,,,,,,,,,,,,,,,,,,,,,,1719.9004626000242,None,1719.9004626000242,None,1720.3732636000204,None,1720.3732636000204,None,['t'],[7.09829140000511],1720.3732636000204,None,13,7.09829140000511,8,False,False,False,1735.6911917000252,None,1735.6911917000252,None,1735.6911917000252,None,1735.6911917000252,None,1735.6911917000252,None,1735.6911917000252,None,1735.6911917000252,None,1735.6911917000252,None,1736.6943056000164,None,1736.6943056000164,None,1,h,,,,,,,,,,,,,,,,,,5-6,001,2021_Feb_23_1733,ComputerHuman,2020.1.3,59.917050837952985,
Sychronize.jpg,Number7.jpg,,Human,Human.xlsx,1,h,7,,,,,1,2,10,2,0,6,6,3,,,,,,,,,,,,,,,,,,,,,,,,,,,,,,,,,,,,,,,,,,,,,,,,,,,,,,,,,,,,,1737.7195253000245,None,1737.7195253000245,None,1738.1935019000084,None,1738.1935019000084,None,"['v', 't']","[6.749904099997366, 6.9544285999727435]",1738.1935019000084,None,6.749904099997366,6.9544285999727435,7,False,False,False,1747.5994576000085,None,1747.5994576000085,None,1747.5994576000085,None,1747.5994576000085,None,1747.5994576000085,None,1747.5994576000085,None,1747.5994576000085,None,1747.5994576000085,None,1748.6140063000203,None,1748.6140063000203,None,1,h,,,,,,,,,,,,,,,,,,5-6,001,2021_Feb_23_1733,ComputerHuman,2020.1.3,59.917050837952985,
Sychronize.jpg,Number9.jpg,,Human,Human.xlsx,1,h,9,,,,,1,2,10,2,0,7,7,6,,,,,,,,,,,,,,,,,,,,,,,,,,,,,,,,,,,,,,,,,,,,,,,,,,,,,,,,,,,,,1749.6435250000213,None,1749.6435250000213,None,1750.1113959000213,None,1750.1113959000213,None,"['t', 'v']","[7.558828000008361, 8.096710799989523]",1750.1113959000213,None,8.096710799989523,7.558828000008361,9,False,False,False,1760.922350800014,None,1760.922350800014,None,1760.922350800014,None,1760.922350800014,None,1760.922350800014,None,1760.922350800014,None,1760.922350800014,None,1760.922350800014,None,1761.932870300021,None,1761.932870300021,None,1,h,,,,,,,,,,,,,,,,,,5-6,001,2021_Feb_23_1733,ComputerHuman,2020.1.3,59.917050837952985,
Sychronize.jpg,Number8.jpg,,Human,Human.xlsx,1,h,8,,,,,1,2,10,2,0,8,8,4,,,,,,,,,,,,,,,,,,,,,,,,,,,,,,,,,,,,,,,,,,,,,,,,,,,,,,,,,,,,,1762.9580749000015,None,1762.9580749000015,None,1763.4322273000143,None,1763.4322273000143,None,"['t', 'v']","[5.9677917000080924, 7.954712800012203]",1763.4322273000143,None,7.954712800012203,5.9677917000080924,8,False,False,False,1773.6892003999965,None,1773.6892003999965,None,1773.6892003999965,None,1773.6892003999965,None,1773.6892003999965,None,1773.6892003999965,None,1773.6892003999965,None,1773.6892003999965,None,1774.702768200019,None,1774.702768200019,None,1,h,,,,,,,,,,,,,,,,,,5-6,001,2021_Feb_23_1733,ComputerHuman,2020.1.3,59.917050837952985,
Sychronize.jpg,Number10.jpg,,Human,Human.xlsx,1,h,10,,,,,1,2,10,2,0,9,9,8,,,,,,,,,,,,,,,,,,,,,,,,,,,,,,,,,,,,,,,,,,,,,,,,,,,,,,,,,,,,,1775.7215909000079,None,1775.7215909000079,None,1776.2256234000088,None,1776.2256234000088,None,['t'],[7.905219699983718],1776.2256234000088,None,13,7.905219699983718,10,False,False,False,1793.3993190000183,None,1793.3993190000183,None,1793.3993190000183,None,1793.3993190000183,None,1793.3993190000183,None,1793.3993190000183,None,1793.3993190000183,None,1793.3993190000183,None,1794.4057508000114,None,1794.4057508000114,None,1,h,,,,,,,,,,,,,,,,,,5-6,001,2021_Feb_23_1733,ComputerHuman,2020.1.3,59.917050837952985,
,,,,Human.xlsx,1,h,,,,,,1,2,10,2,,,,,,,,,,,,,,,,,,,,,,,,,,,,,,,,,,,,,,,,,,,,,,,,,,,,,,,,,,,,,,,,,,,,,,,,,,,,,,,,,,,,,,,,,,,,,,,,,,,,,,,1,h,1795.40376310001,None,h,1,10.702269000001252,1796.384967799997,None,1807.1131817999994,None,None,None,None,None,None,,,,5-6,001,2021_Feb_23_1733,ComputerHuman,2020.1.3,59.917050837952985,
Sychronize.jpg,Number10.jpg,,Computer,Computer.xlsx,1,c,10,,,,,1,3,11,3,0,0,0,9,,,,,,,,,,,,,,,,,,,,,,,,,,,,,,,,,,,,,,,,,,,,,,,,,,,,,,,,,1812.1481368000095,None,1812.1481368000095,None,1815.1614026000025,None,1815.1614026000025,None,1815.6452338000236,None,1815.6452338000236,None,"['t', 'v']","[7.374536000017542, 7.663598800019827]",1815.6452338000236,None,7.663598800019827,7.374536000017542,10,False,False,False,1827.8353173000214,None,1827.8353173000214,None,1827.8353173000214,None,1827.8353173000214,None,1827.8353173000214,None,1827.8353173000214,None,1827.8353173000214,None,1827.8353173000214,None,1828.8462244000111,None,1828.8462244000111,None,1,c,,,,,,,,,,,,,,,,,,5-6,001,2021_Feb_23_1733,ComputerHuman,2020.1.3,59.917050837952985,
Sychronize.jpg,Number6.jpg,,Computer,Computer.xlsx,1,c,6,,,,,1,3,11,3,0,1,1,0,,,,,,,,,,,,,,,,,,,,,,,,,,,,,,,,,,,,,,,,,,,,,,,,,,,,,,,,,,,,,1829.8654154000105,None,1829.8654154000105,None,1830.3649331000051,None,1830.3649331000051,None,"['t', 'v']","[6.010901200002991, 11.594593200017698]",1830.3649331000051,None,13,13,6,False,False,False,1846.270370400016,None,1846.270370400016,None,1846.270370400016,None,1846.270370400016,None,1846.270370400016,None,1846.270370400016,None,1846.270370400016,None,1846.270370400016,None,1847.2837585000088,None,1847.2837585000088,None,1,c,,,,,,,,,,,,,,,,,,5-6,001,2021_Feb_23_1733,ComputerHuman,2020.1.3,59.917050837952985,
Sychronize.jpg,Number9.jpg,,Computer,Computer.xlsx,1,c,9,,,,,1,3,11,3,0,2,2,7,,,,,,,,,,,,,,,,,,,,,,,,,,,,,,,,,,,,,,,,,,,,,,,,,,,,,,,,,,,,,1848.307005300012,None,1848.307005300012,None,1848.7825512000127,None,1848.7825512000127,None,"['t', 'v']","[7.461337800021283, 8.037336000008509]",1848.7825512000127,None,8.037336000008509,7.461337800021283,9,False,False,False,1861.089036999998,None,1861.089036999998,None,1861.089036999998,None,1861.089036999998,None,1861.089036999998,None,1861.089036999998,None,1861.089036999998,None,1861.089036999998,None,1862.1031404000241,None,1862.1031404000241,None,1,c,,,,,,,,,,,,,,,,,,5-6,001,2021_Feb_23_1733,ComputerHuman,2020.1.3,59.917050837952985,
Sychronize.jpg,Number9.jpg,,Computer,Computer.xlsx,1,c,9,,,,,1,3,11,3,0,3,3,6,,,,,,,,,,,,,,,,,,,,,,,,,,,,,,,,,,,,,,,,,,,,,,,,,,,,,,,,,,,,,1863.1263542000088,None,1863.1263542000088,None,1863.623060700018,None,1863.623060700018,None,"['t', 'v']","[7.367136499990011, 8.169097299978603]",1863.623060700018,None,8.169097299978603,7.367136499990011,9,False,False,False,1875.5532052000053,None,1875.5532052000053,None,1875.5532052000053,None,1875.5532052000053,None,1875.5532052000053,None,1875.5532052000053,None,1875.5532052000053,None,1875.5532052000053,None,1876.556341700023,None,1876.556341700023,None,1,c,,,,,,,,,,,,,,,,,,5-6,001,2021_Feb_23_1733,ComputerHuman,2020.1.3,59.917050837952985,
Sychronize.jpg,Number8.jpg,,Computer,Computer.xlsx,1,c,8,,,,,1,3,11,3,0,4,4,4,,,,,,,,,,,,,,,,,,,,,,,,,,,,,,,,,,,,,,,,,,,,,,,,,,,,,,,,,,,,,1877.582430600014,None,1877.582430600014,None,1878.0558902000193,None,1878.0558902000193,None,"['t', 'v']","[1.3315983999927994, 6.94734869999229]",1878.0558902000193,None,6.94734869999229,1.3315983999927994,8,False,False,False,1887.8885939000174,None,1887.8885939000174,None,1887.8885939000174,None,1887.8885939000174,None,1887.8885939000174,None,1887.8885939000174,None,1887.8885939000174,None,1887.8885939000174,None,1888.8918040000135,None,1888.8918040000135,None,1,c,,,,,,,,,,,,,,,,,,5-6,001,2021_Feb_23_1733,ComputerHuman,2020.1.3,59.917050837952985,
Sychronize.jpg,Number8.jpg,,Computer,Computer.xlsx,1,c,8,,,,,1,3,11,3,0,5,5,5,,,,,,,,,,,,,,,,,,,,,,,,,,,,,,,,,,,,,,,,,,,,,,,,,,,,,,,,,,,,,1889.9133652000164,None,1889.9133652000164,None,1890.3910534000024,None,1890.3910534000024,None,"['t', 'v']","[7.616940700012492, 8.176920900004916]",1890.3910534000024,None,8.176920900004916,7.616940700012492,8,False,False,False,1901.9524715000007,None,1901.9524715000007,None,1901.9524715000007,None,1901.9524715000007,None,1901.9524715000007,None,1901.9524715000007,None,1901.9524715000007,None,1901.9524715000007,None,1902.9621260999993,None,1902.9621260999993,None,1,c,,,,,,,,,,,,,,,,,,5-6,001,2021_Feb_23_1733,ComputerHuman,2020.1.3,59.917050837952985,
Sychronize.jpg,Number7.jpg,,Computer,Computer.xlsx,1,c,7,,,,,1,3,11,3,0,6,6,2,,,,,,,,,,,,,,,,,,,,,,,,,,,,,,,,,,,,,,,,,,,,,,,,,,,,,,,,,,,,,1903.985206500016,None,1903.985206500016,None,1904.460524299997,None,1904.460524299997,None,"['v', 't']","[6.759530800016364, 6.823266199993668]",1904.460524299997,None,6.759530800016364,6.823266199993668,7,False,False,False,1913.0983244000236,None,1913.0983244000236,None,1913.0983244000236,None,1913.0983244000236,None,1913.0983244000236,None,1913.0983244000236,None,1913.0983244000236,None,1913.0983244000236,None,1914.1336451000243,None,1914.1336451000243,None,1,c,,,,,,,,,,,,,,,,,,5-6,001,2021_Feb_23_1733,ComputerHuman,2020.1.3,59.917050837952985,
Sychronize.jpg,Number10.jpg,,Computer,Computer.xlsx,1,c,10,,,,,1,3,11,3,0,7,7,8,,,,,,,,,,,,,,,,,,,,,,,,,,,,,,,,,,,,,,,,,,,,,,,,,,,,,,,,,,,,,1915.1333719000104,None,1915.1333719000104,None,1915.613173300022,None,1915.613173300022,None,"['t', 'v']","[8.198244600003818, 9.834632599988254]",1915.613173300022,None,9.834632599988254,8.198244600003818,10,False,False,False,1930.3315477000142,None,1930.3315477000142,None,1930.3315477000142,None,1930.3315477000142,None,1930.3315477000142,None,1930.3315477000142,None,1930.3315477000142,None,1930.3315477000142,None,1931.3502143000078,None,1931.3502143000078,None,1,c,,,,,,,,,,,,,,,,,,5-6,001,2021_Feb_23_1733,ComputerHuman,2020.1.3,59.917050837952985,
Sychronize.jpg,Number6.jpg,,Computer,Computer.xlsx,1,c,6,,,,,1,3,11,3,0,8,8,1,,,,,,,,,,,,,,,,,,,,,,,,,,,,,,,,,,,,,,,,,,,,,,,,,,,,,,,,,,,,,1932.3597339999978,None,1932.3597339999978,None,1932.8497235999967,None,1932.8497235999967,None,"['t', 'v']","[5.180790299986256, 5.94658519999939]",1932.8497235999967,None,5.94658519999939,5.180790299986256,6,False,False,False,1941.918417400011,None,1941.918417400011,None,1941.918417400011,None,1941.918417400011,None,1941.918417400011,None,1941.918417400011,None,1941.918417400011,None,1941.918417400011,None,1942.9361047999992,None,1942.9361047999992,None,1,c,,,,,,,,,,,,,,,,,,5-6,001,2021_Feb_23_1733,ComputerHuman,2020.1.3,59.917050837952985,
Sychronize.jpg,Number7.jpg,,Computer,Computer.xlsx,1,c,7,,,,,1,3,11,3,0,9,9,3,,,,,,,,,,,,,,,,,,,,,,,,,,,,,,,,,,,,,,,,,,,,,,,,,,,,,,,,,,,,,1943.9556432000245,None,1943.9556432000245,None,1944.4356953000242,None,1944.4356953000242,None,"['t', 'v']","[6.950493900018046, 7.052284600009443]",1944.4356953000242,None,7.052284600009443,6.950493900018046,7,False,False,False,1955.7366025000229,None,1955.7366025000229,None,1955.7366025000229,None,1955.7366025000229,None,1955.7366025000229,None,1955.7366025000229,None,1955.7366025000229,None,1955.7366025000229,None,1956.7614577000204,None,1956.7614577000204,None,1,c,,,,,,,,,,,,,,,,,,5-6,001,2021_Feb_23_1733,ComputerHuman,2020.1.3,59.917050837952985,
,,,,Computer.xlsx,1,c,,,,,,1,3,11,3,,,,,,,,,,,,,,,,,,,,,,,,,,,,,,,,,,,,,,,,,,,,,,,,,,,,,,,,,,,,,,,,,,,,,,,,,,,,,,,,,,,,,,,,,,,,,,,,,,,,,,,1,c,1957.7369126999984,None,c,1,3.796804499987047,1958.7350652000168,None,None,None,1962.5609317000199,None,"['space', 'space']",1963.552896100009,None,"[4.714899600017816, 8.194945399998687]",,,5-6,001,2021_Feb_23_1733,ComputerHuman,2020.1.3,59.917050837952985,
Sychronize.jpg,Number8.jpg,,Human,Human.xlsx,2,h,8,,,,,1,4,12,4,0,0,0,4,,,,,,,,,,,,,,,,,,,,,,,,,,,,,,,,,,,,,,,,,,,,,,,,,,,,,,,,,1971.7790767000115,None,1971.7790767000115,None,1974.8184817000001,None,1974.8184817000001,None,1975.2927586000005,None,1975.2927586000005,None,"['t', 'v']","[6.262555799999973, 7.41112350000185]",1975.2927586000005,None,7.41112350000185,6.262555799999973,8,False,False,False,1986.3534811999998,None,1986.3534811999998,None,1986.3534811999998,None,1986.3534811999998,None,1986.3534811999998,None,1986.3534811999998,None,1986.3534811999998,None,1986.3534811999998,None,1987.3628568999993,None,1987.3628568999993,None,2,h,,,,,,,,,,,,,,,,,,5-6,001,2021_Feb_23_1733,ComputerHuman,2020.1.3,59.917050837952985,
Sychronize.jpg,Number9.jpg,,Human,Human.xlsx,2,h,9,,,,,1,4,12,4,0,1,1,6,,,,,,,,,,,,,,,,,,,,,,,,,,,,,,,,,,,,,,,,,,,,,,,,,,,,,,,,,,,,,1988.3880060000229,None,1988.3880060000229,None,1988.8609989000252,None,1988.8609989000252,None,"['t', 'v']","[6.002871300006518, 8.95860630000243]",1988.8609989000252,None,8.95860630000243,6.002871300006518,9,False,False,False,2000.8060004000145,None,2000.8060004000145,None,2000.8060004000145,None,2000.8060004000145,None,2000.8060004000145,None,2000.8060004000145,None,2000.8060004000145,None,2000.8060004000145,None,2001.8147675000073,None,2001.8147675000073,None,2,h,,,,,,,,,,,,,,,,,,5-6,001,2021_Feb_23_1733,ComputerHuman,2020.1.3,59.917050837952985,
Sychronize.jpg,Number6.jpg,,Human,Human.xlsx,2,h,6,,,,,1,4,12,4,0,2,2,1,,,,,,,,,,,,,,,,,,,,,,,,,,,,,,,,,,,,,,,,,,,,,,,,,,,,,,,,,,,,,2002.8342806000146,None,2002.8342806000146,None,2003.3135045000236,None,2003.3135045000236,None,"['t', 'v']","[3.37456719999318, 5.780807899980573]",2003.3135045000236,None,5.780807899980573,3.37456719999318,6,False,False,False,2012.5478564000223,None,2012.5478564000223,None,2012.5478564000223,None,2012.5478564000223,None,2012.5478564000223,None,2012.5478564000223,None,2012.5478564000223,None,2012.5478564000223,None,2013.568149300001,None,2013.568149300001,None,2,h,,,,,,,,,,,,,,,,,,5-6,001,2021_Feb_23_1733,ComputerHuman,2020.1.3,59.917050837952985,
Sychronize.jpg,Number6.jpg,,Human,Human.xlsx,2,h,6,,,,,1,4,12,4,0,3,3,0,,,,,,,,,,,,,,,,,,,,,,,,,,,,,,,,,,,,,,,,,,,,,,,,,,,,,,,,,,,,,2014.5717896000133,None,2014.5717896000133,None,2015.0858970000118,None,2015.0858970000118,None,"['t', 'v']","[3.454161199973896, 3.461540399992373]",2015.0858970000118,None,3.461540399992373,3.454161199973896,6,False,False,False,2020.9053897999984,None,2020.9053897999984,None,2020.9053897999984,None,2020.9053897999984,None,2020.9053897999984,None,2020.9053897999984,None,2020.9053897999984,None,2020.9053897999984,None,2021.9428060000064,None,2021.9428060000064,None,2,h,,,,,,,,,,,,,,,,,,5-6,001,2021_Feb_23_1733,ComputerHuman,2020.1.3,59.917050837952985,
Sychronize.jpg,Number9.jpg,,Human,Human.xlsx,2,h,9,,,,,1,4,12,4,0,4,4,7,,,,,,,,,,,,,,,,,,,,,,,,,,,,,,,,,,,,,,,,,,,,,,,,,,,,,,,,,,,,,2022.9385558000067,None,2022.9385558000067,None,2023.4183512000018,None,2023.4183512000018,None,"['t', 'v']","[5.180945400003111, 5.30556149999029]",2023.4183512000018,None,5.30556149999029,5.180945400003111,9,False,False,False,2033.3008183000202,None,2033.3008183000202,None,2033.3008183000202,None,2033.3008183000202,None,2033.3008183000202,None,2033.3008183000202,None,2033.3008183000202,None,2033.3008183000202,None,2034.3296153999981,None,2034.3296153999981,None,2,h,,,,,,,,,,,,,,,,,,5-6,001,2021_Feb_23_1733,ComputerHuman,2020.1.3,59.917050837952985,
Sychronize.jpg,Number7.jpg,,Human,Human.xlsx,2,h,7,,,,,1,4,12,4,0,5,5,2,,,,,,,,,,,,,,,,,,,,,,,,,,,,,,,,,,,,,,,,,,,,,,,,,,,,,,,,,,,,,2035.3299370000022,None,2035.3299370000022,None,2035.8042195000162,None,2035.8042195000162,None,"['v', 't']","[2.851730199996382, 3.8197387999971397]",2035.8042195000162,None,2.851730199996382,3.8197387999971397,7,False,False,False,2041.820259,None,2041.820259,None,2041.820259,None,2041.820259,None,2041.820259,None,2041.820259,None,2041.820259,None,2041.820259,None,2042.8406541000004,None,2042.8406541000004,None,2,h,,,,,,,,,,,,,,,,,,5-6,001,2021_Feb_23_1733,ComputerHuman,2020.1.3,59.917050837952985,
Sychronize.jpg,Number10.jpg,,Human,Human.xlsx,2,h,10,,,,,1,4,12,4,0,6,6,9,,,,,,,,,,,,,,,,,,,,,,,,,,,,,,,,,,,,,,,,,,,,,,,,,,,,,,,,,,,,,2043.8490510999982,None,2043.8490510999982,None,2044.3225921000121,None,2044.3225921000121,None,"['t', 'v']","[5.50550800000201, 5.914466500020353]",2044.3225921000121,None,5.914466500020353,5.50550800000201,10,False,False,False,2053.7103069000004,None,2053.7103069000004,None,2053.7103069000004,None,2053.7103069000004,None,2053.7103069000004,None,2053.7103069000004,None,2053.7103069000004,None,2053.7103069000004,None,2054.7260730999988,None,2054.7260730999988,None,2,h,,,,,,,,,,,,,,,,,,5-6,001,2021_Feb_23_1733,ComputerHuman,2020.1.3,59.917050837952985,
Sychronize.jpg,Number10.jpg,,Human,Human.xlsx,2,h,10,,,,,1,4,12,4,0,7,7,8,,,,,,,,,,,,,,,,,,,,,,,,,,,,,,,,,,,,,,,,,,,,,,,,,,,,,,,,,,,,,2055.7453177999996,None,2055.7453177999996,None,2056.2249687000003,None,2056.2249687000003,None,"['t', 'v']","[5.439116100023966, 5.720170500018867]",2056.2249687000003,None,5.720170500018867,5.439116100023966,10,False,False,False,2065.118015600019,None,2065.118015600019,None,2065.118015600019,None,2065.118015600019,None,2065.118015600019,None,2065.118015600019,None,2065.118015600019,None,2065.118015600019,None,2066.1482661000045,None,2066.1482661000045,None,2,h,,,,,,,,,,,,,,,,,,5-6,001,2021_Feb_23_1733,ComputerHuman,2020.1.3,59.917050837952985,
