Sychronize,NumberImage,NumberPr,Partner,Condition,TuringResponsePlayer,CorrectTuringReply,Number,trials.thisRepN,trials.thisTrialN,trials.thisN,trials.thisIndex,Block.thisRepN,Block.thisTrialN,Block.thisN,Block.thisIndex,trials_loop.thisRepN,trials_loop.thisTrialN,trials_loop.thisN,trials_loop.thisIndex,textLeft.started,textLeft.stopped,textRight.started,textRight.stopped,key_resp_Istr.keys,key_resp_Istr.rt,key_resp_Istr.started,key_resp_Istr.stopped,SychroLeftPr.started,SychroLeftPr.stopped,SychroRightPr.started,SychroRightPr.stopped,NumberLeftPr.started,NumberLeftPr.stopped,NumberRightPr.started,NumberRightPr.stopped,CrossLeftPr.started,CrossLeftPr.stopped,CrossRightPr.started,CrossRightPr.stopped,key_respPr.keys,key_respPr.rt,key_respPr.started,key_respPr.stopped,RTLeftPr,RTRightPr,CompPr,SychronizedRTsPr,SychronizedRTsLeftCPr,SychronizedRTsRightCPr,FeedbackLeftLeftPr.started,FeedbackLeftLeftPr.stopped,FeedbackLeftRightPr.started,FeedbackLeftRightPr.stopped,FeedbackRightLeftPr.started,FeedbackRightLeftPr.stopped,FeedbackRightRightPr.started,FeedbackRightRightPr.stopped,textLeftLeftPr.started,textLeftLeftPr.stopped,textLeftRightPr.started,textLeftRightPr.stopped,textRightLeftPr.started,textRightLeftPr.stopped,textRightRightPr.started,textRightRightPr.stopped,CreditLeftPr.started,CreditLeftPr.stopped,CreditRightPr.started,CreditRightPr.stopped,text_StartExp.started,text_StartExp.stopped,key_startExp.keys,key_startExp.rt,key_startExp.started,key_startExp.stopped,SychroLeft.started,SychroLeft.stopped,SychroRight.started,SychroRight.stopped,NumberLeft.started,NumberLeft.stopped,NumberRight.started,NumberRight.stopped,CrossLeft.started,CrossLeft.stopped,CrossRight.started,CrossRight.stopped,key_resp.keys,key_resp.rt,key_resp.started,key_resp.stopped,RTLeft,RTRight,Comp,SychronizedRTs,SychronizedRTsLeftC,SychronizedRTsRightC,FeedbackLeftLeft.started,FeedbackLeftLeft.stopped,FeedbackLeftRight.started,FeedbackLeftRight.stopped,FeedbackRightLeft.started,FeedbackRightLeft.stopped,FeedbackRightRight.started,FeedbackRightRight.stopped,textLeftLeft.started,textLeftLeft.stopped,textLeftRight.started,textLeftRight.stopped,textRightLeft.started,textRightLeft.stopped,textRightRight.started,textRightRight.stopped,CreditLeft.started,CreditLeft.stopped,CreditRight.started,CreditRight.stopped,TuringResponsePlayer,CorrectTuringReply,Turingtext.started,Turingtext.stopped,key_resp_2.keys,key_resp_2.corr,key_resp_2.rt,key_resp_2.started,key_resp_2.stopped,BlockText.started,BlockText.stopped,text_Pause.started,text_Pause.stopped,key_respPause.keys,key_respPause.started,key_respPause.stopped,key_respPause.rt,EndText.started,EndText.stopped,participant,session,date,expName,psychopyVersion,frameRate,
,,,,,,,,,,,,,,,,,,,,20.37747479999996,None,20.37747479999996,None,"['v', 't']","[796.2437357, 825.1677397]",21.338051799999903,None,,,,,,,,,,,,,,,,,,,,,,,,,,,,,,,,,,,,,,,,,,,,,,,,,,,,,,,,,,,,,,,,,,,,,,,,,,,,,,,,,,,,,,,,,,,,,,,,,,,,,,,,,,,,,,7_8,001,2021_Feb_24_0937,ComputerHuman,2020.1.3,59.98883007984415,
Sychronize.jpg,Number6.jpg,6,Human,,,,,0,0,0,0,,,,,,,,,,,,,,,,,846.5500536999999,None,846.5500536999999,None,849.6092855,None,849.6092855,None,850.0444761999998,None,850.0444761999998,None,"['t', 'v']","[3.9174732000001313, 5.493155500000057]",850.0444761999998,None,5.493155500000057,3.9174732000001313,6,False,False,False,859.7733205999999,None,859.7733205999999,None,859.7733205999999,None,859.7733205999999,None,859.7733205999999,None,859.7733205999999,None,859.7733205999999,None,859.7733205999999,None,860.7833990999999,None,860.7833990999999,None,,,,,,,,,,,,,,,,,,,,,,,,,,,,,,,,,,,,,,,,,,,,,,,,,,,,,,,,,,,,,,,,,,,,7_8,001,2021_Feb_24_0937,ComputerHuman,2020.1.3,59.98883007984415,
Sychronize.jpg,Number9.jpg,9,Human,,,,,0,1,1,3,,,,,,,,,,,,,,,,,,,,,861.7968494,None,861.7968494,None,862.2756466,None,862.2756466,None,"['t', 'v']","[7.825808800000004, 8.074577800000043]",862.2756466,None,8.074577800000043,7.825808800000004,9,False,False,False,873.9533762,None,873.9533762,None,873.9533762,None,873.9533762,None,873.9533762,None,873.9533762,None,873.9533762,None,873.9533762,None,874.9642192999999,None,874.9642192999999,None,,,,,,,,,,,,,,,,,,,,,,,,,,,,,,,,,,,,,,,,,,,,,,,,,,,,,,,,,,,,,,,,,,,,7_8,001,2021_Feb_24_0937,ComputerHuman,2020.1.3,59.98883007984415,
Sychronize.jpg,Number8.jpg,8,Computer,,,,,0,2,2,2,,,,,,,,,,,,,,,,,,,,,875.9849774999999,None,875.9849774999999,None,876.4615428999999,None,876.4615428999999,None,"['v', 't']","[6.876502000000073, 6.980159400000048]",876.4615428999999,None,6.876502000000073,6.980159400000048,8,False,False,False,885.3518688,None,885.3518688,None,885.3518688,None,885.3518688,None,885.3518688,None,885.3518688,None,885.3518688,None,885.3518688,None,886.3658953,None,886.3658953,None,,,,,,,,,,,,,,,,,,,,,,,,,,,,,,,,,,,,,,,,,,,,,,,,,,,,,,,,,,,,,,,,,,,,7_8,001,2021_Feb_24_0937,ComputerHuman,2020.1.3,59.98883007984415,
Sychronize.jpg,Number6.jpg,6,Human,,,,,0,3,3,5,,,,,,,,,,,,,,,,,,,,,887.3911893999999,None,887.3911893999999,None,887.8650154999999,None,887.8650154999999,None,"['v', 't']","[4.5053261999998995, 4.664366899999777]",887.8650154999999,None,4.5053261999998995,4.664366899999777,6,False,False,False,894.3836467,None,894.3836467,None,894.3836467,None,894.3836467,None,894.3836467,None,894.3836467,None,894.3836467,None,894.3836467,None,895.4235312,None,895.4235312,None,,,,,,,,,,,,,,,,,,,,,,,,,,,,,,,,,,,,,,,,,,,,,,,,,,,,,,,,,,,,,,,,,,,,7_8,001,2021_Feb_24_0937,ComputerHuman,2020.1.3,59.98883007984415,
Sychronize.jpg,Number10.jpg,10,Computer,,,,,0,4,4,4,,,,,,,,,,,,,,,,,,,,,896.4325212,None,896.4325212,None,896.9000035999999,None,896.9000035999999,None,"['t', 'v']","[7.338048600000093, 7.93809350000015]",896.9000035999999,None,7.93809350000015,7.338048600000093,10,False,False,False,908.0679887,None,908.0679887,None,908.0679887,None,908.0679887,None,908.0679887,None,908.0679887,None,908.0679887,None,908.0679887,None,909.0882963,None,909.0882963,None,,,,,,,,,,,,,,,,,,,,,,,,,,,,,,,,,,,,,,,,,,,,,,,,,,,,,,,,,,,,,,,,,,,,7_8,001,2021_Feb_24_0937,ComputerHuman,2020.1.3,59.98883007984415,
Sychronize.jpg,Number7.jpg,7,Computer,,,,,0,5,5,1,,,,,,,,,,,,,,,,,,,,,910.0932168999999,None,910.0932168999999,None,910.5862552999998,None,910.5862552999998,None,"['t', 'v']","[5.966679399999975, 6.18377600000008]",910.5862552999998,None,6.18377600000008,5.966679399999975,7,False,False,False,921.1744637999999,None,921.1744637999999,None,921.1744637999999,None,921.1744637999999,None,921.1744637999999,None,921.1744637999999,None,921.1744637999999,None,921.1744637999999,None,922.1898571,None,922.1898571,None,,,,,,,,,,,,,,,,,,,,,,,,,,,,,,,,,,,,,,,,,,,,,,,,,,,,,,,,,,,,,,,,,,,,7_8,001,2021_Feb_24_0937,ComputerHuman,2020.1.3,59.98883007984415,
,,,,,,,,,,,,,,,,,,,,,,,,,,,,,,,,,,,,,,,,,,,,,,,,,,,,,,,,,,,,,,,,,,,,,,923.1889321999998,None,"['space', 'space']","[1.2703472000000602, 4.096178400000099]",924.1857827999999,None,,,,,,,,,,,,,,,,,,,,,,,,,,,,,,,,,,,,,,,,,,,,,,,,,,,,,,,,,,,,,,7_8,001,2021_Feb_24_0937,ComputerHuman,2020.1.3,59.98883007984415,
Sychronize.jpg,Number7.jpg,,Computer,Computer.xlsx,2,c,7,,,,,0,0,0,5,0,0,0,2,,,,,,,,,,,,,,,,,,,,,,,,,,,,,,,,,,,,,,,,,,,,,,,,,,,,,,,,,928.3284141999999,None,928.3284141999999,None,931.3561504999999,None,931.3561504999999,None,931.8225512999999,None,931.8225512999999,None,"['v', 't']","[5.78702229999999, 6.167139899999938]",931.8225512999999,None,5.78702229999999,6.167139899999938,7,False,False,False,940.107826,None,940.107826,None,940.107826,None,940.107826,None,940.107826,None,940.107826,None,940.107826,None,940.107826,None,941.1305249999999,None,941.1305249999999,None,2,c,,,,,,,,,,,,,,,,,,7_8,001,2021_Feb_24_0937,ComputerHuman,2020.1.3,59.98883007984415,
Sychronize.jpg,Number10.jpg,,Computer,Computer.xlsx,2,c,10,,,,,0,0,0,5,0,1,1,8,,,,,,,,,,,,,,,,,,,,,,,,,,,,,,,,,,,,,,,,,,,,,,,,,,,,,,,,,,,,,942.1396102999998,None,942.1396102999998,None,942.6095311,None,942.6095311,None,"['t', 'v']","[9.184456899999986, 9.588438300000007]",942.6095311,None,9.588438300000007,9.184456899999986,10,False,False,False,955.7658353,None,955.7658353,None,955.7658353,None,955.7658353,None,955.7658353,None,955.7658353,None,955.7658353,None,955.7658353,None,956.7809080999999,None,956.7809080999999,None,2,c,,,,,,,,,,,,,,,,,,7_8,001,2021_Feb_24_0937,ComputerHuman,2020.1.3,59.98883007984415,
Sychronize.jpg,Number8.jpg,,Computer,Computer.xlsx,2,c,8,,,,,0,0,0,5,0,2,2,4,,,,,,,,,,,,,,,,,,,,,,,,,,,,,,,,,,,,,,,,,,,,,,,,,,,,,,,,,,,,,957.7994669999999,None,957.7994669999999,None,958.2792966999999,None,958.2792966999999,None,"['t', 'v']","[7.449566900000036, 7.898250199999893]",958.2792966999999,None,7.898250199999893,7.449566900000036,8,False,False,False,969.1016698,None,969.1016698,None,969.1016698,None,969.1016698,None,969.1016698,None,969.1016698,None,969.1016698,None,969.1016698,None,970.1154163999998,None,970.1154163999998,None,2,c,,,,,,,,,,,,,,,,,,7_8,001,2021_Feb_24_0937,ComputerHuman,2020.1.3,59.98883007984415,
Sychronize.jpg,Number9.jpg,,Computer,Computer.xlsx,2,c,9,,,,,0,0,0,5,0,3,3,7,,,,,,,,,,,,,,,,,,,,,,,,,,,,,,,,,,,,,,,,,,,,,,,,,,,,,,,,,,,,,971.1370542999999,None,971.1370542999999,None,971.6138772,None,971.6138772,None,"['v', 't']","[8.910318999999845, 9.375545200000033]",971.6138772,None,8.910318999999845,9.375545200000033,9,False,False,False,983.3520072999999,None,983.3520072999999,None,983.3520072999999,None,983.3520072999999,None,983.3520072999999,None,983.3520072999999,None,983.3520072999999,None,983.3520072999999,None,984.3516217,None,984.3516217,None,2,c,,,,,,,,,,,,,,,,,,7_8,001,2021_Feb_24_0937,ComputerHuman,2020.1.3,59.98883007984415,
Sychronize.jpg,Number8.jpg,,Computer,Computer.xlsx,2,c,8,,,,,0,0,0,5,0,4,4,5,,,,,,,,,,,,,,,,,,,,,,,,,,,,,,,,,,,,,,,,,,,,,,,,,,,,,,,,,,,,,985.3736780999999,None,985.3736780999999,None,985.8553668999999,None,985.8553668999999,None,"['v', 't']","[7.257770199999868, 8.427419299999883]",985.8553668999999,None,7.257770199999868,8.427419299999883,8,False,False,False,996.7950471,None,996.7950471,None,996.7950471,None,996.7950471,None,996.7950471,None,996.7950471,None,996.7950471,None,996.7950471,None,997.8051454,None,997.8051454,None,2,c,,,,,,,,,,,,,,,,,,7_8,001,2021_Feb_24_0937,ComputerHuman,2020.1.3,59.98883007984415,
Sychronize.jpg,Number9.jpg,,Computer,Computer.xlsx,2,c,9,,,,,0,0,0,5,0,5,5,6,,,,,,,,,,,,,,,,,,,,,,,,,,,,,,,,,,,,,,,,,,,,,,,,,,,,,,,,,,,,,998.8245526,None,998.8245526,None,999.3253690999999,None,999.3253690999999,None,"['t', 'v']","[7.512478299999884, 9.272323200000073]",999.3253690999999,None,9.272323200000073,7.512478299999884,9,False,False,False,1010.5597280999999,None,1010.5597280999999,None,1010.5597280999999,None,1010.5597280999999,None,1010.5597280999999,None,1010.5597280999999,None,1010.5597280999999,None,1010.5597280999999,None,1011.5743879,None,1011.5743879,None,2,c,,,,,,,,,,,,,,,,,,7_8,001,2021_Feb_24_0937,ComputerHuman,2020.1.3,59.98883007984415,
Sychronize.jpg,Number10.jpg,,Computer,Computer.xlsx,2,c,10,,,,,0,0,0,5,0,6,6,9,,,,,,,,,,,,,,,,,,,,,,,,,,,,,,,,,,,,,,,,,,,,,,,,,,,,,,,,,,,,,1012.5974837,None,1012.5974837,None,1013.0738934,None,1013.0738934,None,"['v', 't']","[9.199651700000004, 9.391711600000008]",1013.0738934,None,9.199651700000004,9.391711600000008,10,False,False,False,1024.0956716,None,1024.0956716,None,1024.0956716,None,1024.0956716,None,1024.0956716,None,1024.0956716,None,1024.0956716,None,1024.0956716,None,1025.1120797999997,None,1025.1120797999997,None,2,c,,,,,,,,,,,,,,,,,,7_8,001,2021_Feb_24_0937,ComputerHuman,2020.1.3,59.98883007984415,
Sychronize.jpg,Number7.jpg,,Computer,Computer.xlsx,2,c,7,,,,,0,0,0,5,0,7,7,3,,,,,,,,,,,,,,,,,,,,,,,,,,,,,,,,,,,,,,,,,,,,,,,,,,,,,,,,,,,,,1026.1292939,None,1026.1292939,None,1026.6097919999997,None,1026.6097919999997,None,"['t', 'v']","[6.240185599999904, 6.9356643999999505]",1026.6097919999997,None,6.9356643999999505,6.240185599999904,7,False,False,False,1036.4786765,None,1036.4786765,None,1036.4786765,None,1036.4786765,None,1036.4786765,None,1036.4786765,None,1036.4786765,None,1036.4786765,None,1037.4805490999997,None,1037.4805490999997,None,2,c,,,,,,,,,,,,,,,,,,7_8,001,2021_Feb_24_0937,ComputerHuman,2020.1.3,59.98883007984415,
Sychronize.jpg,Number6.jpg,,Computer,Computer.xlsx,2,c,6,,,,,0,0,0,5,0,8,8,1,,,,,,,,,,,,,,,,,,,,,,,,,,,,,,,,,,,,,,,,,,,,,,,,,,,,,,,,,,,,,1038.5065964,None,1038.5065964,None,1038.9789541,None,1038.9789541,None,"['t', 'v']","[5.32277780000004, 7.522581599999967]",1038.9789541,None,7.522581599999967,5.32277780000004,6,False,False,False,1049.0455564999997,None,1049.0455564999997,None,1049.0455564999997,None,1049.0455564999997,None,1049.0455564999997,None,1049.0455564999997,None,1049.0455564999997,None,1049.0455564999997,None,1050.0500094999998,None,1050.0500094999998,None,2,c,,,,,,,,,,,,,,,,,,7_8,001,2021_Feb_24_0937,ComputerHuman,2020.1.3,59.98883007984415,
Sychronize.jpg,Number6.jpg,,Computer,Computer.xlsx,2,c,6,,,,,0,0,0,5,0,9,9,0,,,,,,,,,,,,,,,,,,,,,,,,,,,,,,,,,,,,,,,,,,,,,,,,,,,,,,,,,,,,,1051.0678291,None,1051.0678291,None,1051.5481747,None,1051.5481747,None,['v'],[6.6215592000000925],1051.5481747,None,6.6215592000000925,13,6,False,False,False,1064.590467,None,1064.590467,None,1064.590467,None,1064.590467,None,1064.590467,None,1064.590467,None,1064.590467,None,1064.590467,None,1065.5846412,None,1065.5846412,None,2,c,,,,,,,,,,,,,,,,,,7_8,001,2021_Feb_24_0937,ComputerHuman,2020.1.3,59.98883007984415,
,,,,Computer.xlsx,2,c,,,,,,0,0,0,5,,,,,,,,,,,,,,,,,,,,,,,,,,,,,,,,,,,,,,,,,,,,,,,,,,,,,,,,,,,,,,,,,,,,,,,,,,,,,,,,,,,,,,,,,,,,,,,,,,,,,,,2,c,1066.5862088,None,c,1,11.064263599999776,1067.5813091,None,1078.6756225999998,None,None,None,None,None,None,,,,7_8,001,2021_Feb_24_0937,ComputerHuman,2020.1.3,59.98883007984415,
Sychronize.jpg,Number8.jpg,,Human,Human.xlsx,2,h,8,,,,,0,1,1,4,0,0,0,4,,,,,,,,,,,,,,,,,,,,,,,,,,,,,,,,,,,,,,,,,,,,,,,,,,,,,,,,,1083.6901715999998,None,1083.6901715999998,None,1086.7414282999998,None,1086.7414282999998,None,1087.2054076,None,1087.2054076,None,"['t', 'v']","[7.547740900000008, 8.600136699999894]",1087.2054076,None,8.600136699999894,7.547740900000008,8,False,False,False,1099.0730118000001,None,1099.0730118000001,None,1099.0730118000001,None,1099.0730118000001,None,1099.0730118000001,None,1099.0730118000001,None,1099.0730118000001,None,1099.0730118000001,None,1100.0928187,None,1100.0928187,None,2,h,,,,,,,,,,,,,,,,,,7_8,001,2021_Feb_24_0937,ComputerHuman,2020.1.3,59.98883007984415,
Sychronize.jpg,Number10.jpg,,Human,Human.xlsx,2,h,10,,,,,0,1,1,4,0,1,1,9,,,,,,,,,,,,,,,,,,,,,,,,,,,,,,,,,,,,,,,,,,,,,,,,,,,,,,,,,,,,,1101.1118974,None,1101.1118974,None,1101.5913821,None,1101.5913821,None,"['t', 'v']","[9.862484199999926, 10.418370800000048]",1101.5913821,None,10.418370800000048,9.862484199999926,10,False,False,False,1115.4602141,None,1115.4602141,None,1115.4602141,None,1115.4602141,None,1115.4602141,None,1115.4602141,None,1115.4602141,None,1115.4602141,None,1116.4637994,None,1116.4637994,None,2,h,,,,,,,,,,,,,,,,,,7_8,001,2021_Feb_24_0937,ComputerHuman,2020.1.3,59.98883007984415,
Sychronize.jpg,Number9.jpg,,Human,Human.xlsx,2,h,9,,,,,0,1,1,4,0,2,2,6,,,,,,,,,,,,,,,,,,,,,,,,,,,,,,,,,,,,,,,,,,,,,,,,,,,,,,,,,,,,,1117.4889675999998,None,1117.4889675999998,None,1117.9612581000001,None,1117.9612581000001,None,"['t', 'v']","[9.37639850000005, 9.660611499999959]",1117.9612581000001,None,9.660611499999959,9.37639850000005,9,False,False,False,1131.4015412999997,None,1131.4015412999997,None,1131.4015412999997,None,1131.4015412999997,None,1131.4015412999997,None,1131.4015412999997,None,1131.4015412999997,None,1131.4015412999997,None,1132.4162425,None,1132.4162425,None,2,h,,,,,,,,,,,,,,,,,,7_8,001,2021_Feb_24_0937,ComputerHuman,2020.1.3,59.98883007984415,
Sychronize.jpg,Number6.jpg,,Human,Human.xlsx,2,h,6,,,,,0,1,1,4,0,3,3,1,,,,,,,,,,,,,,,,,,,,,,,,,,,,,,,,,,,,,,,,,,,,,,,,,,,,,,,,,,,,,1133.4345168,None,1133.4345168,None,1133.9150125,None,1133.9150125,None,"['t', 'v']","[6.025273200000129, 6.711383500000011]",1133.9150125,None,6.711383500000011,6.025273200000129,6,False,False,False,1143.7482307,None,1143.7482307,None,1143.7482307,None,1143.7482307,None,1143.7482307,None,1143.7482307,None,1143.7482307,None,1143.7482307,None,1144.7523447999997,None,1144.7523447999997,None,2,h,,,,,,,,,,,,,,,,,,7_8,001,2021_Feb_24_0937,ComputerHuman,2020.1.3,59.98883007984415,
Sychronize.jpg,Number9.jpg,,Human,Human.xlsx,2,h,9,,,,,0,1,1,4,0,4,4,7,,,,,,,,,,,,,,,,,,,,,,,,,,,,,,,,,,,,,,,,,,,,,,,,,,,,,,,,,,,,,1145.7703502999998,None,1145.7703502999998,None,1146.2503591,None,1146.2503591,None,"['t', 'v']","[9.351131800000076, 9.667343200000005]",1146.2503591,None,9.667343200000005,9.351131800000076,9,False,False,False,1159.6567581,None,1159.6567581,None,1159.6567581,None,1159.6567581,None,1159.6567581,None,1159.6567581,None,1159.6567581,None,1159.6567581,None,1160.6714831999998,None,1160.6714831999998,None,2,h,,,,,,,,,,,,,,,,,,7_8,001,2021_Feb_24_0937,ComputerHuman,2020.1.3,59.98883007984415,
Sychronize.jpg,Number10.jpg,,Human,Human.xlsx,2,h,10,,,,,0,1,1,4,0,5,5,8,,,,,,,,,,,,,,,,,,,,,,,,,,,,,,,,,,,,,,,,,,,,,,,,,,,,,,,,,,,,,1161.6953656,None,1161.6953656,None,1162.171002,None,1162.171002,None,"['v', 't']","[10.014023799999904, 10.242670799999814]",1162.171002,None,10.014023799999904,10.242670799999814,10,False,False,False,1174.1454749,None,1174.1454749,None,1174.1454749,None,1174.1454749,None,1174.1454749,None,1174.1454749,None,1174.1454749,None,1174.1454749,None,1175.1582893999998,None,1175.1582893999998,None,2,h,,,,,,,,,,,,,,,,,,7_8,001,2021_Feb_24_0937,ComputerHuman,2020.1.3,59.98883007984415,
Sychronize.jpg,Number7.jpg,,Human,Human.xlsx,2,h,7,,,,,0,1,1,4,0,6,6,2,,,,,,,,,,,,,,,,,,,,,,,,,,,,,,,,,,,,,,,,,,,,,,,,,,,,,,,,,,,,,1176.1770259999998,None,1176.1770259999998,None,1176.6565110000001,None,1176.6565110000001,None,"['v', 't']","[6.948588499999914, 7.145158300000048]",1176.6565110000001,None,6.948588499999914,7.145158300000048,7,False,False,False,1186.2741909000001,None,1186.2741909000001,None,1186.2741909000001,None,1186.2741909000001,None,1186.2741909000001,None,1186.2741909000001,None,1186.2741909000001,None,1186.2741909000001,None,1187.2955342,None,1187.2955342,None,2,h,,,,,,,,,,,,,,,,,,7_8,001,2021_Feb_24_0937,ComputerHuman,2020.1.3,59.98883007984415,
Sychronize.jpg,Number6.jpg,,Human,Human.xlsx,2,h,6,,,,,0,1,1,4,0,7,7,0,,,,,,,,,,,,,,,,,,,,,,,,,,,,,,,,,,,,,,,,,,,,,,,,,,,,,,,,,,,,,1188.2961228,None,1188.2961228,None,1188.7761009,None,1188.7761009,None,"['t', 'v']","[6.369383300000209, 8.00927230000002]",1188.7761009,None,8.00927230000002,6.369383300000209,6,False,False,False,1199.6931497,None,1199.6931497,None,1199.6931497,None,1199.6931497,None,1199.6931497,None,1199.6931497,None,1199.6931497,None,1199.6931497,None,1200.7125689,None,1200.7125689,None,2,h,,,,,,,,,,,,,,,,,,7_8,001,2021_Feb_24_0937,ComputerHuman,2020.1.3,59.98883007984415,
Sychronize.jpg,Number7.jpg,,Human,Human.xlsx,2,h,7,,,,,0,1,1,4,0,8,8,3,,,,,,,,,,,,,,,,,,,,,,,,,,,,,,,,,,,,,,,,,,,,,,,,,,,,,,,,,,,,,1201.7205706,None,1201.7205706,None,1202.21196,None,1202.21196,None,"['v', 't']","[7.681269100000009, 7.697422799999913]",1202.21196,None,7.681269100000009,7.697422799999913,7,False,False,False,1211.7857521,None,1211.7857521,None,1211.7857521,None,1211.7857521,None,1211.7857521,None,1211.7857521,None,1211.7857521,None,1211.7857521,None,1212.8185678999998,None,1212.8185678999998,None,2,h,,,,,,,,,,,,,,,,,,7_8,001,2021_Feb_24_0937,ComputerHuman,2020.1.3,59.98883007984415,
Sychronize.jpg,Number8.jpg,,Human,Human.xlsx,2,h,8,,,,,0,1,1,4,0,9,9,5,,,,,,,,,,,,,,,,,,,,,,,,,,,,,,,,,,,,,,,,,,,,,,,,,,,,,,,,,,,,,1213.8178016000002,None,1213.8178016000002,None,1214.2977406,None,1214.2977406,None,"['t', 'v']","[8.568004299999984, 9.094688799999858]",1214.2977406,None,9.094688799999858,8.568004299999984,8,False,False,False,1227.2383866,None,1227.2383866,None,1227.2383866,None,1227.2383866,None,1227.2383866,None,1227.2383866,None,1227.2383866,None,1227.2383866,None,1228.2515521999999,None,1228.2515521999999,None,2,h,,,,,,,,,,,,,,,,,,7_8,001,2021_Feb_24_0937,ComputerHuman,2020.1.3,59.98883007984415,
,,,,Human.xlsx,2,h,,,,,,0,1,1,4,,,,,,,,,,,,,,,,,,,,,,,,,,,,,,,,,,,,,,,,,,,,,,,,,,,,,,,,,,,,,,,,,,,,,,,,,,,,,,,,,,,,,,,,,,,,,,,,,,,,,,,2,h,1229.2506337999998,None,h,1,2.025745499999857,1230.2475832999999,None,1232.3071016999997,None,None,None,None,None,None,,,,7_8,001,2021_Feb_24_0937,ComputerHuman,2020.1.3,59.98883007984415,
Sychronize.jpg,Number10.jpg,,Human,Human.xlsx,2,h,10,,,,,0,2,2,6,0,0,0,8,,,,,,,,,,,,,,,,,,,,,,,,,,,,,,,,,,,,,,,,,,,,,,,,,,,,,,,,,1237.3394767999998,None,1237.3394767999998,None,1240.3727426,None,1240.3727426,None,1240.8361504,None,1240.8361504,None,"['t', 'v']","[9.765152400000034, 10.42935639999996]",1240.8361504,None,10.42935639999996,9.765152400000034,10,False,False,False,1254.0894349999999,None,1254.0894349999999,None,1254.0894349999999,None,1254.0894349999999,None,1254.0894349999999,None,1254.0894349999999,None,1254.0894349999999,None,1254.0894349999999,None,1255.1077440999998,None,1255.1077440999998,None,2,h,,,,,,,,,,,,,,,,,,7_8,001,2021_Feb_24_0937,ComputerHuman,2020.1.3,59.98883007984415,
Sychronize.jpg,Number9.jpg,,Human,Human.xlsx,2,h,9,,,,,0,2,2,6,0,1,1,7,,,,,,,,,,,,,,,,,,,,,,,,,,,,,,,,,,,,,,,,,,,,,,,,,,,,,,,,,,,,,1256.1259037999998,None,1256.1259037999998,None,1256.6062222,None,1256.6062222,None,"['v', 't']","[8.387465499999962, 9.563014099999918]",1256.6062222,None,8.387465499999962,9.563014099999918,9,False,False,False,1267.8465845,None,1267.8465845,None,1267.8465845,None,1267.8465845,None,1267.8465845,None,1267.8465845,None,1267.8465845,None,1267.8465845,None,1268.8599227,None,1268.8599227,None,2,h,,,,,,,,,,,,,,,,,,7_8,001,2021_Feb_24_0937,ComputerHuman,2020.1.3,59.98883007984415,
Sychronize.jpg,Number10.jpg,,Human,Human.xlsx,2,h,10,,,,,0,2,2,6,0,2,2,9,,,,,,,,,,,,,,,,,,,,,,,,,,,,,,,,,,,,,,,,,,,,,,,,,,,,,,,,,,,,,1269.8793078999997,None,1269.8793078999997,None,1270.3594619,None,1270.3594619,None,"['t', 'v']","[9.518186799999967, 10.354118400000061]",1270.3594619,None,10.354118400000061,9.518186799999967,10,False,False,False,1283.2978894999997,None,1283.2978894999997,None,1283.2978894999997,None,1283.2978894999997,None,1283.2978894999997,None,1283.2978894999997,None,1283.2978894999997,None,1283.2978894999997,None,1284.3139397,None,1284.3139397,None,2,h,,,,,,,,,,,,,,,,,,7_8,001,2021_Feb_24_0937,ComputerHuman,2020.1.3,59.98883007984415,
Sychronize.jpg,Number8.jpg,,Human,Human.xlsx,2,h,8,,,,,0,2,2,6,0,3,3,5,,,,,,,,,,,,,,,,,,,,,,,,,,,,,,,,,,,,,,,,,,,,,,,,,,,,,,,,,,,,,1285.3368017999996,None,1285.3368017999996,None,1285.8106018999997,None,1285.8106018999997,None,"['t', 'v']","[7.913905499999601, 8.466803199999958]",1285.8106018999997,None,8.466803199999958,7.913905499999601,8,False,False,False,1297.5303423,None,1297.5303423,None,1297.5303423,None,1297.5303423,None,1297.5303423,None,1297.5303423,None,1297.5303423,None,1297.5303423,None,1298.5497118999997,None,1298.5497118999997,None,2,h,,,,,,,,,,,,,,,,,,7_8,001,2021_Feb_24_0937,ComputerHuman,2020.1.3,59.98883007984415,
Sychronize.jpg,Number6.jpg,,Human,Human.xlsx,2,h,6,,,,,0,2,2,6,0,4,4,1,,,,,,,,,,,,,,,,,,,,,,,,,,,,,,,,,,,,,,,,,,,,,,,,,,,,,,,,,,,,,1299.5571605,None,1299.5571605,None,1300.0468019999998,None,1300.0468019999998,None,"['v', 't']","[6.094533500000125, 6.242624400000295]",1300.0468019999998,None,6.094533500000125,6.242624400000295,6,False,False,False,1308.1319767999998,None,1308.1319767999998,None,1308.1319767999998,None,1308.1319767999998,None,1308.1319767999998,None,1308.1319767999998,None,1308.1319767999998,None,1308.1319767999998,None,1309.1736219,None,1309.1736219,None,2,h,,,,,,,,,,,,,,,,,,7_8,001,2021_Feb_24_0937,ComputerHuman,2020.1.3,59.98883007984415,
Sychronize.jpg,Number9.jpg,,Human,Human.xlsx,2,h,9,,,,,0,2,2,6,0,5,5,6,,,,,,,,,,,,,,,,,,,,,,,,,,,,,,,,,,,,,,,,,,,,,,,,,,,,,,,,,,,,,1310.1600485,None,1310.1600485,None,1310.6489019,None,1310.6489019,None,"['v', 't']","[8.440804200000002, 9.66447670000025]",1310.6489019,None,8.440804200000002,9.66447670000025,9,False,False,False,1322.8180149999998,None,1322.8180149999998,None,1322.8180149999998,None,1322.8180149999998,None,1322.8180149999998,None,1322.8180149999998,None,1322.8180149999998,None,1322.8180149999998,None,1323.8209953,None,1323.8209953,None,2,h,,,,,,,,,,,,,,,,,,7_8,001,2021_Feb_24_0937,ComputerHuman,2020.1.3,59.98883007984415,
Sychronize.jpg,Number7.jpg,,Human,Human.xlsx,2,h,7,,,,,0,2,2,6,0,6,6,3,,,,,,,,,,,,,,,,,,,,,,,,,,,,,,,,,,,,,,,,,,,,,,,,,,,,,,,,,,,,,1324.8465487999997,None,1324.8465487999997,None,1325.3199301999998,None,1325.3199301999998,None,"['t', 'v']","[7.391856200000348, 8.221785000000182]",1325.3199301999998,None,8.221785000000182,7.391856200000348,7,False,False,False,1336.7712232999997,None,1336.7712232999997,None,1336.7712232999997,None,1336.7712232999997,None,1336.7712232999997,None,1336.7712232999997,None,1336.7712232999997,None,1336.7712232999997,None,1337.7905133999998,None,1337.7905133999998,None,2,h,,,,,,,,,,,,,,,,,,7_8,001,2021_Feb_24_0937,ComputerHuman,2020.1.3,59.98883007984415,
Sychronize.jpg,Number6.jpg,,Human,Human.xlsx,2,h,6,,,,,0,2,2,6,0,7,7,0,,,,,,,,,,,,,,,,,,,,,,,,,,,,,,,,,,,,,,,,,,,,,,,,,,,,,,,,,,,,,1338.7996749,None,1338.7996749,None,1339.2896160999999,None,1339.2896160999999,None,"['t', 'v']","[5.451655399999709, 6.45593400000007]",1339.2896160999999,None,6.45593400000007,5.451655399999709,6,False,False,False,1348.7791275,None,1348.7791275,None,1348.7791275,None,1348.7791275,None,1348.7791275,None,1348.7791275,None,1348.7791275,None,1348.7791275,None,1349.7939336,None,1349.7939336,None,2,h,,,,,,,,,,,,,,,,,,7_8,001,2021_Feb_24_0937,ComputerHuman,2020.1.3,59.98883007984415,
Sychronize.jpg,Number8.jpg,,Human,Human.xlsx,2,h,8,,,,,0,2,2,6,0,8,8,4,,,,,,,,,,,,,,,,,,,,,,,,,,,,,,,,,,,,,,,,,,,,,,,,,,,,,,,,,,,,,1350.8159791999997,None,1350.8159791999997,None,1351.3130481999997,None,1351.3130481999997,None,"['t', 'v']","[7.168505699999969, 8.404876899999635]",1351.3130481999997,None,8.404876899999635,7.168505699999969,8,False,False,False,1362.5593107,None,1362.5593107,None,1362.5593107,None,1362.5593107,None,1362.5593107,None,1362.5593107,None,1362.5593107,None,1362.5593107,None,1363.5793322999998,None,1363.5793322999998,None,2,h,,,,,,,,,,,,,,,,,,7_8,001,2021_Feb_24_0937,ComputerHuman,2020.1.3,59.98883007984415,
Sychronize.jpg,Number7.jpg,,Human,Human.xlsx,2,h,7,,,,,0,2,2,6,0,9,9,2,,,,,,,,,,,,,,,,,,,,,,,,,,,,,,,,,,,,,,,,,,,,,,,,,,,,,,,,,,,,,1364.6025243,None,1364.6025243,None,1365.0969631999997,None,1365.0969631999997,None,"['t', 'v']","[6.947984699999779, 7.95258049999984]",1365.0969631999997,None,7.95258049999984,6.947984699999779,7,False,False,False,1375.8864537,None,1375.8864537,None,1375.8864537,None,1375.8864537,None,1375.8864537,None,1375.8864537,None,1375.8864537,None,1375.8864537,None,1376.8990119,None,1376.8990119,None,2,h,,,,,,,,,,,,,,,,,,7_8,001,2021_Feb_24_0937,ComputerHuman,2020.1.3,59.98883007984415,
,,,,Human.xlsx,2,h,,,,,,0,2,2,6,,,,,,,,,,,,,,,,,,,,,,,,,,,,,,,,,,,,,,,,,,,,,,,,,,,,,,,,,,,,,,,,,,,,,,,,,,,,,,,,,,,,,,,,,,,,,,,,,,,,,,,2,h,1377.8962585,None,c,0,4.350477899999987,1378.8777007999997,None,1383.2683662,None,None,None,None,None,None,,,,7_8,001,2021_Feb_24_0937,ComputerHuman,2020.1.3,59.98883007984415,
Sychronize.jpg,Number7.jpg,,Computer,Computer.xlsx,2,c,7,,,,,0,3,3,7,0,0,0,3,,,,,,,,,,,,,,,,,,,,,,,,,,,,,,,,,,,,,,,,,,,,,,,,,,,,,,,,,1388.2683379999999,None,1388.2683379999999,None,1391.3203009,None,1391.3203009,None,1391.8022105,None,1391.8022105,None,"['t', 'v']","[6.54322430000002, 6.631138499999906]",1391.8022105,None,6.631138499999906,6.54322430000002,7,False,False,False,1401.9884941,None,1401.9884941,None,1401.9884941,None,1401.9884941,None,1401.9884941,None,1401.9884941,None,1401.9884941,None,1401.9884941,None,1403.0033833999996,None,1403.0033833999996,None,2,c,,,,,,,,,,,,,,,,,,7_8,001,2021_Feb_24_0937,ComputerHuman,2020.1.3,59.98883007984415,
Sychronize.jpg,Number8.jpg,,Computer,Computer.xlsx,2,c,8,,,,,0,3,3,7,0,1,1,5,,,,,,,,,,,,,,,,,,,,,,,,,,,,,,,,,,,,,,,,,,,,,,,,,,,,,,,,,,,,,1404.0301863,None,1404.0301863,None,1404.5025243,None,1404.5025243,None,"['v', 't']","[7.486474199999975, 7.8545703999998295]",1404.5025243,None,7.486474199999975,7.8545703999998295,8,False,False,False,1414.4750784999997,None,1414.4750784999997,None,1414.4750784999997,None,1414.4750784999997,None,1414.4750784999997,None,1414.4750784999997,None,1414.4750784999997,None,1414.4750784999997,None,1415.4903279,None,1415.4903279,None,2,c,,,,,,,,,,,,,,,,,,7_8,001,2021_Feb_24_0937,ComputerHuman,2020.1.3,59.98883007984415,
Sychronize.jpg,Number7.jpg,,Computer,Computer.xlsx,2,c,7,,,,,0,3,3,7,0,2,2,2,,,,,,,,,,,,,,,,,,,,,,,,,,,,,,,,,,,,,,,,,,,,,,,,,,,,,,,,,,,,,1416.5150771999997,None,1416.5150771999997,None,1416.9886027999996,None,1416.9886027999996,None,"['t', 'v']","[7.620688700000301, 8.137359300000298]",1416.9886027999996,None,8.137359300000298,7.620688700000301,7,False,False,False,1428.577848,None,1428.577848,None,1428.577848,None,1428.577848,None,1428.577848,None,1428.577848,None,1428.577848,None,1428.577848,None,1429.5931474999998,None,1429.5931474999998,None,2,c,,,,,,,,,,,,,,,,,,7_8,001,2021_Feb_24_0937,ComputerHuman,2020.1.3,59.98883007984415,
Sychronize.jpg,Number8.jpg,,Computer,Computer.xlsx,2,c,8,,,,,0,3,3,7,0,3,3,4,,,,,,,,,,,,,,,,,,,,,,,,,,,,,,,,,,,,,,,,,,,,,,,,,,,,,,,,,,,,,1430.6165978999998,None,1430.6165978999998,None,1431.0912519999997,None,1431.0912519999997,None,"['v', 't']","[7.569893599999887, 7.624974700000166]",1431.0912519999997,None,7.569893599999887,7.624974700000166,8,False,False,False,1441.0641699999996,None,1441.0641699999996,None,1441.0641699999996,None,1441.0641699999996,None,1441.0641699999996,None,1441.0641699999996,None,1441.0641699999996,None,1441.0641699999996,None,1442.0788948,None,1442.0788948,None,2,c,,,,,,,,,,,,,,,,,,7_8,001,2021_Feb_24_0937,ComputerHuman,2020.1.3,59.98883007984415,
Sychronize.jpg,Number10.jpg,,Computer,Computer.xlsx,2,c,10,,,,,0,3,3,7,0,4,4,9,,,,,,,,,,,,,,,,,,,,,,,,,,,,,,,,,,,,,,,,,,,,,,,,,,,,,,,,,,,,,1443.0976811,None,1443.0976811,None,1443.5770887999997,None,1443.5770887999997,None,['t'],[9.31205910000017],1443.5770887999997,None,13,9.31205910000017,10,False,False,False,1458.9998775999998,None,1458.9998775999998,None,1458.9998775999998,None,1458.9998775999998,None,1458.9998775999998,None,1458.9998775999998,None,1458.9998775999998,None,1458.9998775999998,None,1460.015754,None,1460.015754,None,2,c,,,,,,,,,,,,,,,,,,7_8,001,2021_Feb_24_0937,ComputerHuman,2020.1.3,59.98883007984415,
Sychronize.jpg,Number10.jpg,,Computer,Computer.xlsx,2,c,10,,,,,0,3,3,7,0,5,5,8,,,,,,,,,,,,,,,,,,,,,,,,,,,,,,,,,,,,,,,,,,,,,,,,,,,,,,,,,,,,,1461.0372094,None,1461.0372094,None,1461.5143844999998,None,1461.5143844999998,None,"['t', 'v']","[9.737998800000241, 10.131039599999895]",1461.5143844999998,None,10.131039599999895,9.737998800000241,10,False,False,False,1475.0834581,None,1475.0834581,None,1475.0834581,None,1475.0834581,None,1475.0834581,None,1475.0834581,None,1475.0834581,None,1475.0834581,None,1476.1073235,None,1476.1073235,None,2,c,,,,,,,,,,,,,,,,,,7_8,001,2021_Feb_24_0937,ComputerHuman,2020.1.3,59.98883007984415,
Sychronize.jpg,Number9.jpg,,Computer,Computer.xlsx,2,c,9,,,,,0,3,3,7,0,6,6,7,,,,,,,,,,,,,,,,,,,,,,,,,,,,,,,,,,,,,,,,,,,,,,,,,,,,,,,,,,,,,1477.1105358,None,1477.1105358,None,1477.5842152,None,1477.5842152,None,"['v', 't']","[8.488911700000244, 8.783972900000208]",1477.5842152,None,8.488911700000244,8.783972900000208,9,False,False,False,1488.3722994999998,None,1488.3722994999998,None,1488.3722994999998,None,1488.3722994999998,None,1488.3722994999998,None,1488.3722994999998,None,1488.3722994999998,None,1488.3722994999998,None,1489.3884650999998,None,1489.3884650999998,None,2,c,,,,,,,,,,,,,,,,,,7_8,001,2021_Feb_24_0937,ComputerHuman,2020.1.3,59.98883007984415,
Sychronize.jpg,Number6.jpg,,Computer,Computer.xlsx,2,c,6,,,,,0,3,3,7,0,7,7,0,,,,,,,,,,,,,,,,,,,,,,,,,,,,,,,,,,,,,,,,,,,,,,,,,,,,,,,,,,,,,1490.4118988999999,None,1490.4118988999999,None,1490.8856406999998,None,1490.8856406999998,None,"['v', 't']","[5.527492400000028, 5.983359199999995]",1490.8856406999998,None,5.527492400000028,5.983359199999995,6,False,False,False,1498.4867873999997,None,1498.4867873999997,None,1498.4867873999997,None,1498.4867873999997,None,1498.4867873999997,None,1498.4867873999997,None,1498.4867873999997,None,1498.4867873999997,None,1499.4905936999999,None,1499.4905936999999,None,2,c,,,,,,,,,,,,,,,,,,7_8,001,2021_Feb_24_0937,ComputerHuman,2020.1.3,59.98883007984415,
Sychronize.jpg,Number6.jpg,,Computer,Computer.xlsx,2,c,6,,,,,0,3,3,7,0,8,8,1,,,,,,,,,,,,,,,,,,,,,,,,,,,,,,,,,,,,,,,,,,,,,,,,,,,,,,,,,,,,,1500.5087131999999,None,1500.5087131999999,None,1500.9884303999997,None,1500.9884303999997,None,"['t', 'v']","[6.016819099999793, 6.272630999999819]",1500.9884303999997,None,6.272630999999819,6.016819099999793,6,False,False,False,1511.7075869999999,None,1511.7075869999999,None,1511.7075869999999,None,1511.7075869999999,None,1511.7075869999999,None,1511.7075869999999,None,1511.7075869999999,None,1511.7075869999999,None,1512.7487121,None,1512.7487121,None,2,c,,,,,,,,,,,,,,,,,,7_8,001,2021_Feb_24_0937,ComputerHuman,2020.1.3,59.98883007984415,
Sychronize.jpg,Number9.jpg,,Computer,Computer.xlsx,2,c,9,,,,,0,3,3,7,0,9,9,6,,,,,,,,,,,,,,,,,,,,,,,,,,,,,,,,,,,,,,,,,,,,,,,,,,,,,,,,,,,,,1513.7550806,None,1513.7550806,None,1514.2246943,None,1514.2246943,None,"['v', 't']","[8.559477799999968, 8.74432489999981]",1514.2246943,None,8.559477799999968,8.74432489999981,9,False,False,False,1525.1523146,None,1525.1523146,None,1525.1523146,None,1525.1523146,None,1525.1523146,None,1525.1523146,None,1525.1523146,None,1525.1523146,None,1526.1850697999998,None,1526.1850697999998,None,2,c,,,,,,,,,,,,,,,,,,7_8,001,2021_Feb_24_0937,ComputerHuman,2020.1.3,59.98883007984415,
,,,,Computer.xlsx,2,c,,,,,,0,3,3,7,,,,,,,,,,,,,,,,,,,,,,,,,,,,,,,,,,,,,,,,,,,,,,,,,,,,,,,,,,,,,,,,,,,,,,,,,,,,,,,,,,,,,,,,,,,,,,,,,,,,,,,2,c,1527.1611226999999,None,h,0,3.1796124000002237,1528.1576507,None,None,None,1531.3603512,None,"['space', 'space']",1532.3585472999998,None,"[6.082618299999922, 7.79078490000029]",,,7_8,001,2021_Feb_24_0937,ComputerHuman,2020.1.3,59.98883007984415,
Sychronize.jpg,Number10.jpg,,Human,Human.xlsx,1,h,10,,,,,0,4,4,0,0,0,0,8,,,,,,,,,,,,,,,,,,,,,,,,,,,,,,,,,,,,,,,,,,,,,,,,,,,,,,,,,1540.1865463999998,None,1540.1865463999998,None,1543.2354907,None,1543.2354907,None,1543.6976188999997,None,1543.6976188999997,None,"['v', 't']","[9.705889299999853, 9.791621499999565]",1543.6976188999997,None,9.705889299999853,9.791621499999565,10,False,False,False,1555.4191219999998,None,1555.4191219999998,None,1555.4191219999998,None,1555.4191219999998,None,1555.4191219999998,None,1555.4191219999998,None,1555.4191219999998,None,1555.4191219999998,None,1556.4559698999997,None,1556.4559698999997,None,1,h,,,,,,,,,,,,,,,,,,7_8,001,2021_Feb_24_0937,ComputerHuman,2020.1.3,59.98883007984415,
Sychronize.jpg,Number9.jpg,,Human,Human.xlsx,1,h,9,,,,,0,4,4,0,0,1,1,6,,,,,,,,,,,,,,,,,,,,,,,,,,,,,,,,,,,,,,,,,,,,,,,,,,,,,,,,,,,,,1557.4582564999996,None,1557.4582564999996,None,1557.9341554999996,None,1557.9341554999996,None,"['v', 't']","[8.166891299999861, 8.259070199999769]",1557.9341554999996,None,8.166891299999861,8.259070199999769,9,False,False,False,1568.4601948,None,1568.4601948,None,1568.4601948,None,1568.4601948,None,1568.4601948,None,1568.4601948,None,1568.4601948,None,1568.4601948,None,1569.4697103999997,None,1569.4697103999997,None,1,h,,,,,,,,,,,,,,,,,,7_8,001,2021_Feb_24_0937,ComputerHuman,2020.1.3,59.98883007984415,
Sychronize.jpg,Number7.jpg,,Human,Human.xlsx,1,h,7,,,,,0,4,4,0,0,2,2,3,,,,,,,,,,,,,,,,,,,,,,,,,,,,,,,,,,,,,,,,,,,,,,,,,,,,,,,,,,,,,1570.4953517,None,1570.4953517,None,1570.9702223,None,1570.9702223,None,"['v', 't']","[6.990521000000172, 6.99460900000031]",1570.9702223,None,6.990521000000172,6.99460900000031,7,False,False,False,1580.3958386999998,None,1580.3958386999998,None,1580.3958386999998,None,1580.3958386999998,None,1580.3958386999998,None,1580.3958386999998,None,1580.3958386999998,None,1580.3958386999998,None,1581.4287672,None,1581.4287672,None,1,h,,,,,,,,,,,,,,,,,,7_8,001,2021_Feb_24_0937,ComputerHuman,2020.1.3,59.98883007984415,
Sychronize.jpg,Number6.jpg,,Human,Human.xlsx,1,h,6,,,,,0,4,4,0,0,3,3,1,,,,,,,,,,,,,,,,,,,,,,,,,,,,,,,,,,,,,,,,,,,,,,,,,,,,,,,,,,,,,1582.4307859,None,1582.4307859,None,1582.9052711999998,None,1582.9052711999998,None,['v'],[5.956116999999722],1582.9052711999998,None,5.956116999999722,13,6,False,False,False,1595.9401261999997,None,1595.9401261999997,None,1595.9401261999997,None,1595.9401261999997,None,1595.9401261999997,None,1595.9401261999997,None,1595.9401261999997,None,1595.9401261999997,None,1596.9428562999997,None,1596.9428562999997,None,1,h,,,,,,,,,,,,,,,,,,7_8,001,2021_Feb_24_0937,ComputerHuman,2020.1.3,59.98883007984415,
Sychronize.jpg,Number8.jpg,,Human,Human.xlsx,1,h,8,,,,,0,4,4,0,0,4,4,5,,,,,,,,,,,,,,,,,,,,,,,,,,,,,,,,,,,,,,,,,,,,,,,,,,,,,,,,,,,,,1597.9678571999998,None,1597.9678571999998,None,1598.4417644,None,1598.4417644,None,"['v', 't']","[7.926311299999725, 8.698819100000037]",1598.4417644,None,7.926311299999725,8.698819100000037,8,False,False,False,1609.5092685,None,1609.5092685,None,1609.5092685,None,1609.5092685,None,1609.5092685,None,1609.5092685,None,1609.5092685,None,1609.5092685,None,1610.5132866,None,1610.5132866,None,1,h,,,,,,,,,,,,,,,,,,7_8,001,2021_Feb_24_0937,ComputerHuman,2020.1.3,59.98883007984415,
Sychronize.jpg,Number6.jpg,,Human,Human.xlsx,1,h,6,,,,,0,4,4,0,0,5,5,0,,,,,,,,,,,,,,,,,,,,,,,,,,,,,,,,,,,,,,,,,,,,,,,,,,,,,,,,,,,,,1611.5363164999999,None,1611.5363164999999,None,1612.0112099999997,None,1612.0112099999997,None,"['t', 'v']","[5.161717200000112, 6.321698200000355]",1612.0112099999997,None,6.321698200000355,5.161717200000112,6,False,False,False,1620.8441605999997,None,1620.8441605999997,None,1620.8441605999997,None,1620.8441605999997,None,1620.8441605999997,None,1620.8441605999997,None,1620.8441605999997,None,1620.8441605999997,None,1621.8474615999999,None,1621.8474615999999,None,1,h,,,,,,,,,,,,,,,,,,7_8,001,2021_Feb_24_0937,ComputerHuman,2020.1.3,59.98883007984415,
Sychronize.jpg,Number8.jpg,,Human,Human.xlsx,1,h,8,,,,,0,4,4,0,0,6,6,4,,,,,,,,,,,,,,,,,,,,,,,,,,,,,,,,,,,,,,,,,,,,,,,,,,,,,,,,,,,,,1622.8742396999996,None,1622.8742396999996,None,1623.3474527999997,None,1623.3474527999997,None,"['v', 't']","[7.525736500000221, 7.877664800000275]",1623.3474527999997,None,7.525736500000221,7.877664800000275,8,False,False,False,1633.3036232,None,1633.3036232,None,1633.3036232,None,1633.3036232,None,1633.3036232,None,1633.3036232,None,1633.3036232,None,1633.3036232,None,1634.3170734999999,None,1634.3170734999999,None,1,h,,,,,,,,,,,,,,,,,,7_8,001,2021_Feb_24_0937,ComputerHuman,2020.1.3,59.98883007984415,
Sychronize.jpg,Number7.jpg,,Human,Human.xlsx,1,h,7,,,,,0,4,4,0,0,7,7,2,,,,,,,,,,,,,,,,,,,,,,,,,,,,,,,,,,,,,,,,,,,,,,,,,,,,,,,,,,,,,1635.3419239999998,None,1635.3419239999998,None,1635.8159026999997,None,1635.8159026999997,None,"['t', 'v']","[6.467497799999819, 7.053303300000152]",1635.8159026999997,None,7.053303300000152,6.467497799999819,7,False,False,False,1646.459629,None,1646.459629,None,1646.459629,None,1646.459629,None,1646.459629,None,1646.459629,None,1646.459629,None,1646.459629,None,1647.4702238999998,None,1647.4702238999998,None,1,h,,,,,,,,,,,,,,,,,,7_8,001,2021_Feb_24_0937,ComputerHuman,2020.1.3,59.98883007984415,
Sychronize.jpg,Number10.jpg,,Human,Human.xlsx,1,h,10,,,,,0,4,4,0,0,8,8,9,,,,,,,,,,,,,,,,,,,,,,,,,,,,,,,,,,,,,,,,,,,,,,,,,,,,,,,,,,,,,1648.4950337999999,None,1648.4950337999999,None,1648.9677125999997,None,1648.9677125999997,None,"['t', 'v']","[9.425414700000147, 9.577435100000002]",1648.9677125999997,None,9.577435100000002,9.425414700000147,10,False,False,False,1663.0158317,None,1663.0158317,None,1663.0158317,None,1663.0158317,None,1663.0158317,None,1663.0158317,None,1663.0158317,None,1663.0158317,None,1664.0416987999997,None,1664.0416987999997,None,1,h,,,,,,,,,,,,,,,,,,7_8,001,2021_Feb_24_0937,ComputerHuman,2020.1.3,59.98883007984415,
Sychronize.jpg,Number9.jpg,,Human,Human.xlsx,1,h,9,,,,,0,4,4,0,0,9,9,7,,,,,,,,,,,,,,,,,,,,,,,,,,,,,,,,,,,,,,,,,,,,,,,,,,,,,,,,,,,,,1665.0497673999998,None,1665.0497673999998,None,1665.5227545999996,None,1665.5227545999996,None,"['t', 'v']","[8.546335100000306, 8.858400000000074]",1665.5227545999996,None,8.858400000000074,8.546335100000306,9,False,False,False,1678.2020623999997,None,1678.2020623999997,None,1678.2020623999997,None,1678.2020623999997,None,1678.2020623999997,None,1678.2020623999997,None,1678.2020623999997,None,1678.2020623999997,None,1679.2092595999998,None,1679.2092595999998,None,1,h,,,,,,,,,,,,,,,,,,7_8,001,2021_Feb_24_0937,ComputerHuman,2020.1.3,59.98883007984415,
,,,,Human.xlsx,1,h,,,,,,0,4,4,0,,,,,,,,,,,,,,,,,,,,,,,,,,,,,,,,,,,,,,,,,,,,,,,,,,,,,,,,,,,,,,,,,,,,,,,,,,,,,,,,,,,,,,,,,,,,,,,,,,,,,,,1,h,1680.2091796,None,h,1,7.283680199999708,1681.2054074999996,None,1688.5158110999996,None,None,None,None,None,None,,,,7_8,001,2021_Feb_24_0937,ComputerHuman,2020.1.3,59.98883007984415,
Sychronize.jpg,Number10.jpg,,Computer,Computer.xlsx,1,c,10,,,,,0,5,5,1,0,0,0,9,,,,,,,,,,,,,,,,,,,,,,,,,,,,,,,,,,,,,,,,,,,,,,,,,,,,,,,,,1693.5315796,None,1693.5315796,None,1696.5811240999997,None,1696.5811240999997,None,1697.0451808999997,None,1697.0451808999997,None,"['t', 'v']","[9.615266300000258, 9.823922700000367]",1697.0451808999997,None,9.823922700000367,9.615266300000258,10,False,False,False,1710.6630879,None,1710.6630879,None,1710.6630879,None,1710.6630879,None,1710.6630879,None,1710.6630879,None,1710.6630879,None,1710.6630879,None,1711.6828025999998,None,1711.6828025999998,None,1,c,,,,,,,,,,,,,,,,,,7_8,001,2021_Feb_24_0937,ComputerHuman,2020.1.3,59.98883007984415,
Sychronize.jpg,Number8.jpg,,Computer,Computer.xlsx,1,c,8,,,,,0,5,5,1,0,1,1,4,,,,,,,,,,,,,,,,,,,,,,,,,,,,,,,,,,,,,,,,,,,,,,,,,,,,,,,,,,,,,1712.6854504999997,None,1712.6854504999997,None,1713.1816024,None,1713.1816024,None,"['v', 't']","[7.171454499999982, 8.027243500000168]",1713.1816024,None,7.171454499999982,8.027243500000168,8,False,False,False,1722.8817021999998,None,1722.8817021999998,None,1722.8817021999998,None,1722.8817021999998,None,1722.8817021999998,None,1722.8817021999998,None,1722.8817021999998,None,1722.8817021999998,None,1723.8848479999997,None,1723.8848479999997,None,1,c,,,,,,,,,,,,,,,,,,7_8,001,2021_Feb_24_0937,ComputerHuman,2020.1.3,59.98883007984415,
Sychronize.jpg,Number8.jpg,,Computer,Computer.xlsx,1,c,8,,,,,0,5,5,1,0,2,2,5,,,,,,,,,,,,,,,,,,,,,,,,,,,,,,,,,,,,,,,,,,,,,,,,,,,,,,,,,,,,,1724.9044793999997,None,1724.9044793999997,None,1725.4035836999997,None,1725.4035836999997,None,"['v', 't']","[7.569714199999908, 8.30110360000026]",1725.4035836999997,None,7.569714199999908,8.30110360000026,8,False,False,False,1736.1350241,None,1736.1350241,None,1736.1350241,None,1736.1350241,None,1736.1350241,None,1736.1350241,None,1736.1350241,None,1736.1350241,None,1737.1545855,None,1737.1545855,None,1,c,,,,,,,,,,,,,,,,,,7_8,001,2021_Feb_24_0937,ComputerHuman,2020.1.3,59.98883007984415,
Sychronize.jpg,Number6.jpg,,Computer,Computer.xlsx,1,c,6,,,,,0,5,5,1,0,3,3,1,,,,,,,,,,,,,,,,,,,,,,,,,,,,,,,,,,,,,,,,,,,,,,,,,,,,,,,,,,,,,1738.1628309999996,None,1738.1628309999996,None,1738.6540341999998,None,1738.6540341999998,None,"['t', 'v']","[5.494878599999993, 6.810761200000343]",1738.6540341999998,None,6.810761200000343,5.494878599999993,6,False,False,False,1748.1419406,None,1748.1419406,None,1748.1419406,None,1748.1419406,None,1748.1419406,None,1748.1419406,None,1748.1419406,None,1748.1419406,None,1749.1583707999998,None,1749.1583707999998,None,1,c,,,,,,,,,,,,,,,,,,7_8,001,2021_Feb_24_0937,ComputerHuman,2020.1.3,59.98883007984415,
Sychronize.jpg,Number7.jpg,,Computer,Computer.xlsx,1,c,7,,,,,0,5,5,1,0,4,4,3,,,,,,,,,,,,,,,,,,,,,,,,,,,,,,,,,,,,,,,,,,,,,,,,,,,,,,,,,,,,,1750.1758652999997,None,1750.1758652999997,None,1750.6541852999999,None,1750.6541852999999,None,"['t', 'v']","[6.7865538000000925, 6.8227937000001475]",1750.6541852999999,None,6.8227937000001475,6.7865538000000925,7,False,False,False,1762.0409565,None,1762.0409565,None,1762.0409565,None,1762.0409565,None,1762.0409565,None,1762.0409565,None,1762.0409565,None,1762.0409565,None,1763.0603714,None,1763.0603714,None,1,c,,,,,,,,,,,,,,,,,,7_8,001,2021_Feb_24_0937,ComputerHuman,2020.1.3,59.98883007984415,
Sychronize.jpg,Number9.jpg,,Computer,Computer.xlsx,1,c,9,,,,,0,5,5,1,0,5,5,7,,,,,,,,,,,,,,,,,,,,,,,,,,,,,,,,,,,,,,,,,,,,,,,,,,,,,,,,,,,,,1764.0791934,None,1764.0791934,None,1764.5586742,None,1764.5586742,None,"['v', 't']","[7.65002400000003, 9.358092899999974]",1764.5586742,None,7.65002400000003,9.358092899999974,9,False,False,False,1775.8887998,None,1775.8887998,None,1775.8887998,None,1775.8887998,None,1775.8887998,None,1775.8887998,None,1775.8887998,None,1775.8887998,None,1776.896757,None,1776.896757,None,1,c,,,,,,,,,,,,,,,,,,7_8,001,2021_Feb_24_0937,ComputerHuman,2020.1.3,59.98883007984415,
Sychronize.jpg,Number6.jpg,,Computer,Computer.xlsx,1,c,6,,,,,0,5,5,1,0,6,6,0,,,,,,,,,,,,,,,,,,,,,,,,,,,,,,,,,,,,,,,,,,,,,,,,,,,,,,,,,,,,,1777.9217666999998,None,1777.9217666999998,None,1778.3955217999996,None,1778.3955217999996,None,"['t', 'v']","[5.537179299999934, 5.968896400000176]",1778.3955217999996,None,5.968896400000176,5.537179299999934,6,False,False,False,1788.4970481,None,1788.4970481,None,1788.4970481,None,1788.4970481,None,1788.4970481,None,1788.4970481,None,1788.4970481,None,1788.4970481,None,1789.5160462,None,1789.5160462,None,1,c,,,,,,,,,,,,,,,,,,7_8,001,2021_Feb_24_0937,ComputerHuman,2020.1.3,59.98883007984415,
Sychronize.jpg,Number9.jpg,,Computer,Computer.xlsx,1,c,9,,,,,0,5,5,1,0,7,7,6,,,,,,,,,,,,,,,,,,,,,,,,,,,,,,,,,,,,,,,,,,,,,,,,,,,,,,,,,,,,,1790.5345063,None,1790.5345063,None,1791.0139584999997,None,1791.0139584999997,None,"['v', 't']","[8.465396099999907, 8.681416399999762]",1791.0139584999997,None,8.465396099999907,8.681416399999762,9,False,False,False,1801.2885945999997,None,1801.2885945999997,None,1801.2885945999997,None,1801.2885945999997,None,1801.2885945999997,None,1801.2885945999997,None,1801.2885945999997,None,1801.2885945999997,None,1802.3014647,None,1802.3014647,None,1,c,,,,,,,,,,,,,,,,,,7_8,001,2021_Feb_24_0937,ComputerHuman,2020.1.3,59.98883007984415,
Sychronize.jpg,Number10.jpg,,Computer,Computer.xlsx,1,c,10,,,,,0,5,5,1,0,8,8,8,,,,,,,,,,,,,,,,,,,,,,,,,,,,,,,,,,,,,,,,,,,,,,,,,,,,,,,,,,,,,1803.3203257999999,None,1803.3203257999999,None,1803.7998803,None,1803.7998803,None,"['v', 't']","[9.08449950000022, 9.919731700000284]",1803.7998803,None,9.08449950000022,9.919731700000284,10,False,False,False,1815.9399229,None,1815.9399229,None,1815.9399229,None,1815.9399229,None,1815.9399229,None,1815.9399229,None,1815.9399229,None,1815.9399229,None,1816.9546496999997,None,1816.9546496999997,None,1,c,,,,,,,,,,,,,,,,,,7_8,001,2021_Feb_24_0937,ComputerHuman,2020.1.3,59.98883007984415,
Sychronize.jpg,Number7.jpg,,Computer,Computer.xlsx,1,c,7,,,,,0,5,5,1,0,9,9,2,,,,,,,,,,,,,,,,,,,,,,,,,,,,,,,,,,,,,,,,,,,,,,,,,,,,,,,,,,,,,1817.9781865,None,1817.9781865,None,1818.4527518,None,1818.4527518,None,"['v', 't']","[7.072146299999986, 7.499806100000114]",1818.4527518,None,7.072146299999986,7.499806100000114,7,False,False,False,1828.3852434,None,1828.3852434,None,1828.3852434,None,1828.3852434,None,1828.3852434,None,1828.3852434,None,1828.3852434,None,1828.3852434,None,1829.3900485,None,1829.3900485,None,1,c,,,,,,,,,,,,,,,,,,7_8,001,2021_Feb_24_0937,ComputerHuman,2020.1.3,59.98883007984415,
,,,,Computer.xlsx,1,c,,,,,,0,5,5,1,,,,,,,,,,,,,,,,,,,,,,,,,,,,,,,,,,,,,,,,,,,,,,,,,,,,,,,,,,,,,,,,,,,,,,,,,,,,,,,,,,,,,,,,,,,,,,,,,,,,,,,1,c,1830.3894264,None,c,1,8.305180700000165,1831.3858026999997,None,1839.7233248999996,None,None,None,None,None,None,,,,7_8,001,2021_Feb_24_0937,ComputerHuman,2020.1.3,59.98883007984415,
Sychronize.jpg,Number9.jpg,,Human,Human.xlsx,1,h,9,,,,,0,6,6,2,0,0,0,7,,,,,,,,,,,,,,,,,,,,,,,,,,,,,,,,,,,,,,,,,,,,,,,,,,,,,,,,,1844.7610882,None,1844.7610882,None,1847.7783888,None,1847.7783888,None,1848.2425045999998,None,1848.2425045999998,None,"['v', 't']","[8.48608540000032, 8.678354300000137]",1848.2425045999998,None,8.48608540000032,8.678354300000137,9,False,False,False,1859.1949949999998,None,1859.1949949999998,None,1859.1949949999998,None,1859.1949949999998,None,1859.1949949999998,None,1859.1949949999998,None,1859.1949949999998,None,1859.1949949999998,None,1860.2346427999996,None,1860.2346427999996,None,1,h,,,,,,,,,,,,,,,,,,7_8,001,2021_Feb_24_0937,ComputerHuman,2020.1.3,59.98883007984415,
Sychronize.jpg,Number8.jpg,,Human,Human.xlsx,1,h,8,,,,,0,6,6,2,0,1,1,5,,,,,,,,,,,,,,,,,,,,,,,,,,,,,,,,,,,,,,,,,,,,,,,,,,,,,,,,,,,,,1861.2385547999997,None,1861.2385547999997,None,1861.7315098,None,1861.7315098,None,"['v', 't']","[7.08921220000002, 7.937141699999756]",1861.7315098,None,7.08921220000002,7.937141699999756,8,False,False,False,1871.8507454,None,1871.8507454,None,1871.8507454,None,1871.8507454,None,1871.8507454,None,1871.8507454,None,1871.8507454,None,1871.8507454,None,1872.8661180999998,None,1872.8661180999998,None,1,h,,,,,,,,,,,,,,,,,,7_8,001,2021_Feb_24_0937,ComputerHuman,2020.1.3,59.98883007984415,
Sychronize.jpg,Number6.jpg,,Human,Human.xlsx,1,h,6,,,,,0,6,6,2,0,2,2,1,,,,,,,,,,,,,,,,,,,,,,,,,,,,,,,,,,,,,,,,,,,,,,,,,,,,,,,,,,,,,1873.8841094999998,None,1873.8841094999998,None,1874.3632178999997,None,1874.3632178999997,None,"['t', 'v']","[5.497699999999895, 6.40947529999994]",1874.3632178999997,None,6.40947529999994,5.497699999999895,6,False,False,False,1883.7380408999998,None,1883.7380408999998,None,1883.7380408999998,None,1883.7380408999998,None,1883.7380408999998,None,1883.7380408999998,None,1883.7380408999998,None,1883.7380408999998,None,1884.7339058999996,None,1884.7339058999996,None,1,h,,,,,,,,,,,,,,,,,,7_8,001,2021_Feb_24_0937,ComputerHuman,2020.1.3,59.98883007984415,
Sychronize.jpg,Number8.jpg,,Human,Human.xlsx,1,h,8,,,,,0,6,6,2,0,3,3,4,,,,,,,,,,,,,,,,,,,,,,,,,,,,,,,,,,,,,,,,,,,,,,,,,,,,,,,,,,,,,1885.7586717,None,1885.7586717,None,1886.2318653999996,None,1886.2318653999996,None,"['t', 'v']","[7.336663600000065, 7.368877800000064]",1886.2318653999996,None,7.368877800000064,7.336663600000065,8,False,False,False,1897.8175882,None,1897.8175882,None,1897.8175882,None,1897.8175882,None,1897.8175882,None,1897.8175882,None,1897.8175882,None,1897.8175882,None,1898.8432862,None,1898.8432862,None,1,h,,,,,,,,,,,,,,,,,,7_8,001,2021_Feb_24_0937,ComputerHuman,2020.1.3,59.98883007984415,
Sychronize.jpg,Number10.jpg,,Human,Human.xlsx,1,h,10,,,,,0,6,6,2,0,4,4,9,,,,,,,,,,,,,,,,,,,,,,,,,,,,,,,,,,,,,,,,,,,,,,,,,,,,,,,,,,,,,1899.8394049999997,None,1899.8394049999997,None,1900.3194184,None,1900.3194184,None,"['v', 't']","[9.116440899999816, 9.281055399999786]",1900.3194184,None,9.116440899999816,9.281055399999786,10,False,False,False,1912.1148211,None,1912.1148211,None,1912.1148211,None,1912.1148211,None,1912.1148211,None,1912.1148211,None,1912.1148211,None,1912.1148211,None,1913.1470706,None,1913.1470706,None,1,h,,,,,,,,,,,,,,,,,,7_8,001,2021_Feb_24_0937,ComputerHuman,2020.1.3,59.98883007984415,
Sychronize.jpg,Number7.jpg,,Human,Human.xlsx,1,h,7,,,,,0,6,6,2,0,5,5,2,,,,,,,,,,,,,,,,,,,,,,,,,,,,,,,,,,,,,,,,,,,,,,,,,,,,,,,,,,,,,1914.1468065,None,1914.1468065,None,1914.6229469999998,None,1914.6229469999998,None,"['t', 'v']","[6.521246399999654, 7.761704199999713]",1914.6229469999998,None,7.761704199999713,6.521246399999654,7,False,False,False,1924.6947788999996,None,1924.6947788999996,None,1924.6947788999996,None,1924.6947788999996,None,1924.6947788999996,None,1924.6947788999996,None,1924.6947788999996,None,1924.6947788999996,None,1925.7100249999999,None,1925.7100249999999,None,1,h,,,,,,,,,,,,,,,,,,7_8,001,2021_Feb_24_0937,ComputerHuman,2020.1.3,59.98883007984415,
Sychronize.jpg,Number9.jpg,,Human,Human.xlsx,1,h,9,,,,,0,6,6,2,0,6,6,6,,,,,,,,,,,,,,,,,,,,,,,,,,,,,,,,,,,,,,,,,,,,,,,,,,,,,,,,,,,,,1926.7331440999997,None,1926.7331440999997,None,1927.2070936999999,None,1927.2070936999999,None,"['v', 't']","[8.685354199999892, 9.30963649999967]",1927.2070936999999,None,8.685354199999892,9.30963649999967,9,False,False,False,1938.4959620999998,None,1938.4959620999998,None,1938.4959620999998,None,1938.4959620999998,None,1938.4959620999998,None,1938.4959620999998,None,1938.4959620999998,None,1938.4959620999998,None,1939.4953244999997,None,1939.4953244999997,None,1,h,,,,,,,,,,,,,,,,,,7_8,001,2021_Feb_24_0937,ComputerHuman,2020.1.3,59.98883007984415,
Sychronize.jpg,Number7.jpg,,Human,Human.xlsx,1,h,7,,,,,0,6,6,2,0,7,7,3,,,,,,,,,,,,,,,,,,,,,,,,,,,,,,,,,,,,,,,,,,,,,,,,,,,,,,,,,,,,,1940.5148595,None,1940.5148595,None,1940.9942434,None,1940.9942434,None,"['t', 'v']","[6.354168400000162, 7.054485500000283]",1940.9942434,None,7.054485500000283,6.354168400000162,7,False,False,False,1951.5160931,None,1951.5160931,None,1951.5160931,None,1951.5160931,None,1951.5160931,None,1951.5160931,None,1951.5160931,None,1951.5160931,None,1952.5314163999997,None,1952.5314163999997,None,1,h,,,,,,,,,,,,,,,,,,7_8,001,2021_Feb_24_0937,ComputerHuman,2020.1.3,59.98883007984415,
Sychronize.jpg,Number10.jpg,,Human,Human.xlsx,1,h,10,,,,,0,6,6,2,0,8,8,8,,,,,,,,,,,,,,,,,,,,,,,,,,,,,,,,,,,,,,,,,,,,,,,,,,,,,,,,,,,,,1953.5562992,None,1953.5562992,None,1954.0302004999999,None,1954.0302004999999,None,"['t', 'v']","[9.554638000000068, 9.820822500000304]",1954.0302004999999,None,9.820822500000304,9.554638000000068,10,False,False,False,1967.0818406999997,None,1967.0818406999997,None,1967.0818406999997,None,1967.0818406999997,None,1967.0818406999997,None,1967.0818406999997,None,1967.0818406999997,None,1967.0818406999997,None,1968.1229371,None,1968.1229371,None,1,h,,,,,,,,,,,,,,,,,,7_8,001,2021_Feb_24_0937,ComputerHuman,2020.1.3,59.98883007984415,
Sychronize.jpg,Number6.jpg,,Human,Human.xlsx,1,h,6,,,,,0,6,6,2,0,9,9,0,,,,,,,,,,,,,,,,,,,,,,,,,,,,,,,,,,,,,,,,,,,,,,,,,,,,,,,,,,,,,1969.1087260999998,None,1969.1087260999998,None,1969.6028277,None,1969.6028277,None,"['t', 'v']","[5.770153500000106, 5.796256100000392]",1969.6028277,None,5.796256100000392,5.770153500000106,6,False,False,False,1978.7286814999998,None,1978.7286814999998,None,1978.7286814999998,None,1978.7286814999998,None,1978.7286814999998,None,1978.7286814999998,None,1978.7286814999998,None,1978.7286814999998,None,1979.7599063999996,None,1979.7599063999996,None,1,h,,,,,,,,,,,,,,,,,,7_8,001,2021_Feb_24_0937,ComputerHuman,2020.1.3,59.98883007984415,
,,,,Human.xlsx,1,h,,,,,,0,6,6,2,,,,,,,,,,,,,,,,,,,,,,,,,,,,,,,,,,,,,,,,,,,,,,,,,,,,,,,,,,,,,,,,,,,,,,,,,,,,,,,,,,,,,,,,,,,,,,,,,,,,,,,1,h,1980.7357471999999,None,h,1,2.559942200000023,1981.7328005999998,None,1984.3252383999998,None,None,None,None,None,None,,,,7_8,001,2021_Feb_24_0937,ComputerHuman,2020.1.3,59.98883007984415,
Sychronize.jpg,Number8.jpg,,Computer,Computer.xlsx,1,c,8,,,,,0,7,7,3,0,0,0,5,,,,,,,,,,,,,,,,,,,,,,,,,,,,,,,,,,,,,,,,,,,,,,,,,,,,,,,,,1989.3397740999999,None,1989.3397740999999,None,1992.3912550999999,None,1992.3912550999999,None,1992.8546585999998,None,1992.8546585999998,None,"['t', 'v']","[7.873806099999911, 8.029968299999837]",1992.8546585999998,None,8.029968299999837,7.873806099999911,8,False,False,False,2004.4007561999997,None,2004.4007561999997,None,2004.4007561999997,None,2004.4007561999997,None,2004.4007561999997,None,2004.4007561999997,None,2004.4007561999997,None,2004.4007561999997,None,2005.4308266999997,None,2005.4308266999997,None,1,c,,,,,,,,,,,,,,,,,,7_8,001,2021_Feb_24_0937,ComputerHuman,2020.1.3,59.98883007984415,
Sychronize.jpg,Number7.jpg,,Computer,Computer.xlsx,1,c,7,,,,,0,7,7,3,0,1,1,3,,,,,,,,,,,,,,,,,,,,,,,,,,,,,,,,,,,,,,,,,,,,,,,,,,,,,,,,,,,,,2006.4282239999998,None,2006.4282239999998,None,2006.9076461999998,None,2006.9076461999998,None,"['t', 'v']","[7.127703699999984, 7.397525500000029]",2006.9076461999998,None,7.397525500000029,7.127703699999984,7,False,False,False,2017.8352224999999,None,2017.8352224999999,None,2017.8352224999999,None,2017.8352224999999,None,2017.8352224999999,None,2017.8352224999999,None,2017.8352224999999,None,2017.8352224999999,None,2018.8459749999997,None,2018.8459749999997,None,1,c,,,,,,,,,,,,,,,,,,7_8,001,2021_Feb_24_0937,ComputerHuman,2020.1.3,59.98883007984415,
Sychronize.jpg,Number7.jpg,,Computer,Computer.xlsx,1,c,7,,,,,0,7,7,3,0,2,2,2,,,,,,,,,,,,,,,,,,,,,,,,,,,,,,,,,,,,,,,,,,,,,,,,,,,,,,,,,,,,,2019.8641402999997,None,2019.8641402999997,None,2020.3438680999998,None,2020.3438680999998,None,"['v', 't']","[6.2876854000001, 6.520459800000026]",2020.3438680999998,None,6.2876854000001,6.520459800000026,7,False,False,False,2028.8276081999998,None,2028.8276081999998,None,2028.8276081999998,None,2028.8276081999998,None,2028.8276081999998,None,2028.8276081999998,None,2028.8276081999998,None,2028.8276081999998,None,2029.8466750999996,None,2029.8466750999996,None,1,c,,,,,,,,,,,,,,,,,,7_8,001,2021_Feb_24_0937,ComputerHuman,2020.1.3,59.98883007984415,
Sychronize.jpg,Number8.jpg,,Computer,Computer.xlsx,1,c,8,,,,,0,7,7,3,0,3,3,4,,,,,,,,,,,,,,,,,,,,,,,,,,,,,,,,,,,,,,,,,,,,,,,,,,,,,,,,,,,,,2030.8538807,None,2030.8538807,None,2031.3669326999998,None,2031.3669326999998,None,"['v', 't']","[7.777709899999991, 7.877245700000003]",2031.3669326999998,None,7.777709899999991,7.877245700000003,8,False,False,False,2041.0642146999999,None,2041.0642146999999,None,2041.0642146999999,None,2041.0642146999999,None,2041.0642146999999,None,2041.0642146999999,None,2041.0642146999999,None,2041.0642146999999,None,2042.105247,None,2042.105247,None,1,c,,,,,,,,,,,,,,,,,,7_8,001,2021_Feb_24_0937,ComputerHuman,2020.1.3,59.98883007984415,
Sychronize.jpg,Number9.jpg,,Computer,Computer.xlsx,1,c,9,,,,,0,7,7,3,0,4,4,7,,,,,,,,,,,,,,,,,,,,,,,,,,,,,,,,,,,,,,,,,,,,,,,,,,,,,,,,,,,,,2043.1021085999996,None,2043.1021085999996,None,2043.5818909999998,None,2043.5818909999998,None,"['t', 'v']","[8.81482670000014, 9.24688389999983]",2043.5818909999998,None,9.24688389999983,8.81482670000014,9,False,False,False,2056.6103371,None,2056.6103371,None,2056.6103371,None,2056.6103371,None,2056.6103371,None,2056.6103371,None,2056.6103371,None,2056.6103371,None,2057.6391356999998,None,2057.6391356999998,None,1,c,,,,,,,,,,,,,,,,,,7_8,001,2021_Feb_24_0937,ComputerHuman,2020.1.3,59.98883007984415,
Sychronize.jpg,Number10.jpg,,Computer,Computer.xlsx,1,c,10,,,,,0,7,7,3,0,5,5,9,,,,,,,,,,,,,,,,,,,,,,,,,,,,,,,,,,,,,,,,,,,,,,,,,,,,,,,,,,,,,2058.6428085,None,2058.6428085,None,2059.1189842,None,2059.1189842,None,"['t', 'v']","[9.913394600000174, 10.413966999999957]",2059.1189842,None,10.413966999999957,9.913394600000174,10,False,False,False,2072.5711687999997,None,2072.5711687999997,None,2072.5711687999997,None,2072.5711687999997,None,2072.5711687999997,None,2072.5711687999997,None,2072.5711687999997,None,2072.5711687999997,None,2073.5896069,None,2073.5896069,None,1,c,,,,,,,,,,,,,,,,,,7_8,001,2021_Feb_24_0937,ComputerHuman,2020.1.3,59.98883007984415,
Sychronize.jpg,Number6.jpg,,Computer,Computer.xlsx,1,c,6,,,,,0,7,7,3,0,6,6,1,,,,,,,,,,,,,,,,,,,,,,,,,,,,,,,,,,,,,,,,,,,,,,,,,,,,,,,,,,,,,2074.6144608,None,2074.6144608,None,2075.0880213,None,2075.0880213,None,"['v', 't']","[5.516228200000114, 6.532164799999919]",2075.0880213,None,5.516228200000114,6.532164799999919,6,False,False,False,2083.7720427,None,2083.7720427,None,2083.7720427,None,2083.7720427,None,2083.7720427,None,2083.7720427,None,2083.7720427,None,2083.7720427,None,2084.7918885999998,None,2084.7918885999998,None,1,c,,,,,,,,,,,,,,,,,,7_8,001,2021_Feb_24_0937,ComputerHuman,2020.1.3,59.98883007984415,
Sychronize.jpg,Number6.jpg,,Computer,Computer.xlsx,1,c,6,,,,,0,7,7,3,0,7,7,0,,,,,,,,,,,,,,,,,,,,,,,,,,,,,,,,,,,,,,,,,,,,,,,,,,,,,,,,,,,,,2085.7971617999997,None,2085.7971617999997,None,2086.2735811999996,None,2086.2735811999996,None,"['v', 't']","[5.222807699999976, 5.887060399999882]",2086.2735811999996,None,5.222807699999976,5.887060399999882,6,False,False,False,2094.1071558999997,None,2094.1071558999997,None,2094.1071558999997,None,2094.1071558999997,None,2094.1071558999997,None,2094.1071558999997,None,2094.1071558999997,None,2094.1071558999997,None,2095.1279292,None,2095.1279292,None,1,c,,,,,,,,,,,,,,,,,,7_8,001,2021_Feb_24_0937,ComputerHuman,2020.1.3,59.98883007984415,
Sychronize.jpg,Number9.jpg,,Computer,Computer.xlsx,1,c,9,,,,,0,7,7,3,0,8,8,6,,,,,,,,,,,,,,,,,,,,,,,,,,,,,,,,,,,,,,,,,,,,,,,,,,,,,,,,,,,,,2096.1343021999996,None,2096.1343021999996,None,2096.6256879,None,2096.6256879,None,"['t', 'v']","[8.026789000000008, 8.67496170000004]",2096.6256879,None,8.67496170000004,8.026789000000008,9,False,False,False,2108.1047108,None,2108.1047108,None,2108.1047108,None,2108.1047108,None,2108.1047108,None,2108.1047108,None,2108.1047108,None,2108.1047108,None,2109.1134011999998,None,2109.1134011999998,None,1,c,,,,,,,,,,,,,,,,,,7_8,001,2021_Feb_24_0937,ComputerHuman,2020.1.3,59.98883007984415,
Sychronize.jpg,Number10.jpg,,Computer,Computer.xlsx,1,c,10,,,,,0,7,7,3,0,9,9,8,,,,,,,,,,,,,,,,,,,,,,,,,,,,,,,,,,,,,,,,,,,,,,,,,,,,,,,,,,,,,2110.1323945999998,None,2110.1323945999998,None,2110.6123347999996,None,2110.6123347999996,None,"['v', 't']","[9.004300200000216, 9.911976599999889]",2110.6123347999996,None,9.004300200000216,9.911976599999889,10,False,False,False,2122.4294907999997,None,2122.4294907999997,None,2122.4294907999997,None,2122.4294907999997,None,2122.4294907999997,None,2122.4294907999997,None,2122.4294907999997,None,2122.4294907999997,None,2123.4722408999996,None,2123.4722408999996,None,1,c,,,,,,,,,,,,,,,,,,7_8,001,2021_Feb_24_0937,ComputerHuman,2020.1.3,59.98883007984415,
,,,,Computer.xlsx,1,c,,,,,,0,7,7,3,,,,,,,,,,,,,,,,,,,,,,,,,,,,,,,,,,,,,,,,,,,,,,,,,,,,,,,,,,,,,,,,,,,,,,,,,,,,,,,,,,,,,,,,,,,,,,,,,,,,,,,1,c,2124.4478544,None,h,0,2.6632024999998976,2125.4453202,None,None,None,2128.1383468999998,None,"['space', 'space']",2129.1292025999996,None,"[9.739192699999876, 10.787141100000099]",,,7_8,001,2021_Feb_24_0937,ComputerHuman,2020.1.3,59.98883007984415,
Sychronize.jpg,Number7.jpg,,Computer,Computer.xlsx,2,c,7,,,,,1,0,8,5,0,0,0,2,,,,,,,,,,,,,,,,,,,,,,,,,,,,,,,,,,,,,,,,,,,,,,,,,,,,,,,,,2139.9578988999997,None,2139.9578988999997,None,2143.0069497,None,2143.0069497,None,2143.4686785999997,None,2143.4686785999997,None,"['v', 't']","[6.539694800000234, 6.710769499999969]",2143.4686785999997,None,6.539694800000234,6.710769499999969,7,False,False,False,2152.5904268,None,2152.5904268,None,2152.5904268,None,2152.5904268,None,2152.5904268,None,2152.5904268,None,2152.5904268,None,2152.5904268,None,2153.6056454,None,2153.6056454,None,2,c,,,,,,,,,,,,,,,,,,7_8,001,2021_Feb_24_0937,ComputerHuman,2020.1.3,59.98883007984415,
Sychronize.jpg,Number9.jpg,,Computer,Computer.xlsx,2,c,9,,,,,1,0,8,5,0,1,1,6,,,,,,,,,,,,,,,,,,,,,,,,,,,,,,,,,,,,,,,,,,,,,,,,,,,,,,,,,,,,,2154.6247048,None,2154.6247048,None,2155.1045861,None,2155.1045861,None,"['v', 't']","[8.083537999999862, 8.126464899999974]",2155.1045861,None,8.083537999999862,8.126464899999974,9,False,False,False,2165.3375042,None,2165.3375042,None,2165.3375042,None,2165.3375042,None,2165.3375042,None,2165.3375042,None,2165.3375042,None,2165.3375042,None,2166.3425491,None,2166.3425491,None,2,c,,,,,,,,,,,,,,,,,,7_8,001,2021_Feb_24_0937,ComputerHuman,2020.1.3,59.98883007984415,
Sychronize.jpg,Number8.jpg,,Computer,Computer.xlsx,2,c,8,,,,,1,0,8,5,0,2,2,4,,,,,,,,,,,,,,,,,,,,,,,,,,,,,,,,,,,,,,,,,,,,,,,,,,,,,,,,,,,,,2167.3606462999996,None,2167.3606462999996,None,2167.8402888,None,2167.8402888,None,"['t', 'v']","[7.459840699999859, 7.696726099999978]",2167.8402888,None,7.696726099999978,7.459840699999859,8,False,False,False,2179.7000820999997,None,2179.7000820999997,None,2179.7000820999997,None,2179.7000820999997,None,2179.7000820999997,None,2179.7000820999997,None,2179.7000820999997,None,2179.7000820999997,None,2180.7113577,None,2180.7113577,None,2,c,,,,,,,,,,,,,,,,,,7_8,001,2021_Feb_24_0937,ComputerHuman,2020.1.3,59.98883007984415,
Sychronize.jpg,Number9.jpg,,Computer,Computer.xlsx,2,c,9,,,,,1,0,8,5,0,3,3,7,,,,,,,,,,,,,,,,,,,,,,,,,,,,,,,,,,,,,,,,,,,,,,,,,,,,,,,,,,,,,2181.7302508,None,2181.7302508,None,2182.2103564999998,None,2182.2103564999998,None,"['v', 't']","[9.169831299999714, 9.237144899999748]",2182.2103564999998,None,9.169831299999714,9.237144899999748,9,False,False,False,2193.3668141,None,2193.3668141,None,2193.3668141,None,2193.3668141,None,2193.3668141,None,2193.3668141,None,2193.3668141,None,2193.3668141,None,2194.4035473,None,2194.4035473,None,2,c,,,,,,,,,,,,,,,,,,7_8,001,2021_Feb_24_0937,ComputerHuman,2020.1.3,59.98883007984415,
Sychronize.jpg,Number10.jpg,,Computer,Computer.xlsx,2,c,10,,,,,1,0,8,5,0,4,4,8,,,,,,,,,,,,,,,,,,,,,,,,,,,,,,,,,,,,,,,,,,,,,,,,,,,,,,,,,,,,,2195.3995886999996,None,2195.3995886999996,None,2195.8790013999997,None,2195.8790013999997,None,"['v', 't']","[9.553588699999636, 9.821263799999997]",2195.8790013999997,None,9.553588699999636,9.821263799999997,10,False,False,False,2208.084347,None,2208.084347,None,2208.084347,None,2208.084347,None,2208.084347,None,2208.084347,None,2208.084347,None,2208.084347,None,2209.1011839,None,2209.1011839,None,2,c,,,,,,,,,,,,,,,,,,7_8,001,2021_Feb_24_0937,ComputerHuman,2020.1.3,59.98883007984415,
Sychronize.jpg,Number6.jpg,,Computer,Computer.xlsx,2,c,6,,,,,1,0,8,5,0,5,5,0,,,,,,,,,,,,,,,,,,,,,,,,,,,,,,,,,,,,,,,,,,,,,,,,,,,,,,,,,,,,,2210.1201698,None,2210.1201698,None,2210.5986786999997,None,2210.5986786999997,None,"['v', 't']","[5.38958300000013, 5.869769200000064]",2210.5986786999997,None,5.38958300000013,5.869769200000064,6,False,False,False,2218.1921717,None,2218.1921717,None,2218.1921717,None,2218.1921717,None,2218.1921717,None,2218.1921717,None,2218.1921717,None,2218.1921717,None,2219.2025228999996,None,2219.2025228999996,None,2,c,,,,,,,,,,,,,,,,,,7_8,001,2021_Feb_24_0937,ComputerHuman,2020.1.3,59.98883007984415,
Sychronize.jpg,Number8.jpg,,Computer,Computer.xlsx,2,c,8,,,,,1,0,8,5,0,6,6,5,,,,,,,,,,,,,,,,,,,,,,,,,,,,,,,,,,,,,,,,,,,,,,,,,,,,,,,,,,,,,2220.221447,None,2220.221447,None,2220.7007721,None,2220.7007721,None,"['t', 'v']","[7.619435600000088, 8.643547500000295]",2220.7007721,None,8.643547500000295,7.619435600000088,8,False,False,False,2232.7189206,None,2232.7189206,None,2232.7189206,None,2232.7189206,None,2232.7189206,None,2232.7189206,None,2232.7189206,None,2232.7189206,None,2233.7392538999998,None,2233.7392538999998,None,2,c,,,,,,,,,,,,,,,,,,7_8,001,2021_Feb_24_0937,ComputerHuman,2020.1.3,59.98883007984415,
Sychronize.jpg,Number6.jpg,,Computer,Computer.xlsx,2,c,6,,,,,1,0,8,5,0,7,7,1,,,,,,,,,,,,,,,,,,,,,,,,,,,,,,,,,,,,,,,,,,,,,,,,,,,,,,,,,,,,,2234.7455611,None,2234.7455611,None,2235.2369919999996,None,2235.2369919999996,None,"['t', 'v']","[5.991247100000237, 6.2153957999998966]",2235.2369919999996,None,6.2153957999998966,5.991247100000237,6,False,False,False,2245.4764118999997,None,2245.4764118999997,None,2245.4764118999997,None,2245.4764118999997,None,2245.4764118999997,None,2245.4764118999997,None,2245.4764118999997,None,2245.4764118999997,None,2246.5110553,None,2246.5110553,None,2,c,,,,,,,,,,,,,,,,,,7_8,001,2021_Feb_24_0937,ComputerHuman,2020.1.3,59.98883007984415,
Sychronize.jpg,Number10.jpg,,Computer,Computer.xlsx,2,c,10,,,,,1,0,8,5,0,8,8,9,,,,,,,,,,,,,,,,,,,,,,,,,,,,,,,,,,,,,,,,,,,,,,,,,,,,,,,,,,,,,2247.5161055999997,None,2247.5161055999997,None,2247.9896716999997,None,2247.9896716999997,None,"['v', 't']","[8.835217100000136, 10.258516100000179]",2247.9896716999997,None,8.835217100000136,10.258516100000179,10,False,False,False,2260.1459726999997,None,2260.1459726999997,None,2260.1459726999997,None,2260.1459726999997,None,2260.1459726999997,None,2260.1459726999997,None,2260.1459726999997,None,2260.1459726999997,None,2261.1801938999997,None,2261.1801938999997,None,2,c,,,,,,,,,,,,,,,,,,7_8,001,2021_Feb_24_0937,ComputerHuman,2020.1.3,59.98883007984415,
Sychronize.jpg,Number7.jpg,,Computer,Computer.xlsx,2,c,7,,,,,1,0,8,5,0,9,9,3,,,,,,,,,,,,,,,,,,,,,,,,,,,,,,,,,,,,,,,,,,,,,,,,,,,,,,,,,,,,,2262.1798120999997,None,2262.1798120999997,None,2262.6592189,None,2262.6592189,None,"['v', 't']","[6.419454000000314, 7.3328770000002805]",2262.6592189,None,6.419454000000314,7.3328770000002805,7,False,False,False,2272.4538257,None,2272.4538257,None,2272.4538257,None,2272.4538257,None,2272.4538257,None,2272.4538257,None,2272.4538257,None,2272.4538257,None,2273.4624596999997,None,2273.4624596999997,None,2,c,,,,,,,,,,,,,,,,,,7_8,001,2021_Feb_24_0937,ComputerHuman,2020.1.3,59.98883007984415,
,,,,Computer.xlsx,2,c,,,,,,1,0,8,5,,,,,,,,,,,,,,,,,,,,,,,,,,,,,,,,,,,,,,,,,,,,,,,,,,,,,,,,,,,,,,,,,,,,,,,,,,,,,,,,,,,,,,,,,,,,,,,,,,,,,,,2,c,2274.4605813,None,h,0,8.209428299999672,2275.4586935999996,None,2283.7018616,None,None,None,None,None,None,,,,7_8,001,2021_Feb_24_0937,ComputerHuman,2020.1.3,59.98883007984415,
Sychronize.jpg,Number6.jpg,,Computer,Computer.xlsx,1,c,6,,,,,1,1,9,1,0,0,0,1,,,,,,,,,,,,,,,,,,,,,,,,,,,,,,,,,,,,,,,,,,,,,,,,,,,,,,,,,2288.7170975,None,2288.7170975,None,2291.7523833,None,2291.7523833,None,2292.2321484999998,None,2292.2321484999998,None,"['v', 't']","[5.895741299999827, 6.023785399999724]",2292.2321484999998,None,5.895741299999827,6.023785399999724,6,False,False,False,2300.0923266,None,2300.0923266,None,2300.0923266,None,2300.0923266,None,2300.0923266,None,2300.0923266,None,2300.0923266,None,2300.0923266,None,2301.1220722,None,2301.1220722,None,1,c,,,,,,,,,,,,,,,,,,7_8,001,2021_Feb_24_0937,ComputerHuman,2020.1.3,59.98883007984415,
Sychronize.jpg,Number9.jpg,,Computer,Computer.xlsx,1,c,9,,,,,1,1,9,1,0,1,1,6,,,,,,,,,,,,,,,,,,,,,,,,,,,,,,,,,,,,,,,,,,,,,,,,,,,,,,,,,,,,,2302.1210766,None,2302.1210766,None,2302.6202076,None,2302.6202076,None,"['v', 't']","[7.631689499999993, 9.087919399999919]",2302.6202076,None,7.631689499999993,9.087919399999919,9,False,False,False,2314.0092894,None,2314.0092894,None,2314.0092894,None,2314.0092894,None,2314.0092894,None,2314.0092894,None,2314.0092894,None,2314.0092894,None,2315.0225231,None,2315.0225231,None,1,c,,,,,,,,,,,,,,,,,,7_8,001,2021_Feb_24_0937,ComputerHuman,2020.1.3,59.98883007984415,
Sychronize.jpg,Number7.jpg,,Computer,Computer.xlsx,1,c,7,,,,,1,1,9,1,0,2,2,3,,,,,,,,,,,,,,,,,,,,,,,,,,,,,,,,,,,,,,,,,,,,,,,,,,,,,,,,,,,,,2316.0406617,None,2316.0406617,None,2316.5201413,None,2316.5201413,None,"['v', 't']","[6.975893100000121, 7.358647700000347]",2316.5201413,None,6.975893100000121,7.358647700000347,7,False,False,False,2326.2936228,None,2326.2936228,None,2326.2936228,None,2326.2936228,None,2326.2936228,None,2326.2936228,None,2326.2936228,None,2326.2936228,None,2327.3074239999996,None,2327.3074239999996,None,1,c,,,,,,,,,,,,,,,,,,7_8,001,2021_Feb_24_0937,ComputerHuman,2020.1.3,59.98883007984415,
Sychronize.jpg,Number10.jpg,,Computer,Computer.xlsx,1,c,10,,,,,1,1,9,1,0,3,3,8,,,,,,,,,,,,,,,,,,,,,,,,,,,,,,,,,,,,,,,,,,,,,,,,,,,,,,,,,,,,,2328.3321686,None,2328.3321686,None,2328.8059178999997,None,2328.8059178999997,None,"['v', 't']","[9.597323299999971, 9.814418500000102]",2328.8059178999997,None,9.597323299999971,9.814418500000102,10,False,False,False,2341.0117771,None,2341.0117771,None,2341.0117771,None,2341.0117771,None,2341.0117771,None,2341.0117771,None,2341.0117771,None,2341.0117771,None,2342.0271212999996,None,2342.0271212999996,None,1,c,,,,,,,,,,,,,,,,,,7_8,001,2021_Feb_24_0937,ComputerHuman,2020.1.3,59.98883007984415,
Sychronize.jpg,Number6.jpg,,Computer,Computer.xlsx,1,c,6,,,,,1,1,9,1,0,4,4,0,,,,,,,,,,,,,,,,,,,,,,,,,,,,,,,,,,,,,,,,,,,,,,,,,,,,,,,,,,,,,2343.0454698,None,2343.0454698,None,2343.5255001,None,2343.5255001,None,"['v', 't']","[5.786968200000047, 5.966698300000189]",2343.5255001,None,5.786968200000047,5.966698300000189,6,False,False,False,2351.3923612999997,None,2351.3923612999997,None,2351.3923612999997,None,2351.3923612999997,None,2351.3923612999997,None,2351.3923612999997,None,2351.3923612999997,None,2351.3923612999997,None,2352.4125495,None,2352.4125495,None,1,c,,,,,,,,,,,,,,,,,,7_8,001,2021_Feb_24_0937,ComputerHuman,2020.1.3,59.98883007984415,
Sychronize.jpg,Number7.jpg,,Computer,Computer.xlsx,1,c,7,,,,,1,1,9,1,0,5,5,2,,,,,,,,,,,,,,,,,,,,,,,,,,,,,,,,,,,,,,,,,,,,,,,,,,,,,,,,,,,,,2353.4371690999997,None,2353.4371690999997,None,2353.9096344,None,2353.9096344,None,"['t', 'v']","[6.554901299999983, 7.174569399999655]",2353.9096344,None,7.174569399999655,6.554901299999983,7,False,False,False,2364.8852174,None,2364.8852174,None,2364.8852174,None,2364.8852174,None,2364.8852174,None,2364.8852174,None,2364.8852174,None,2364.8852174,None,2365.8986517999997,None,2365.8986517999997,None,1,c,,,,,,,,,,,,,,,,,,7_8,001,2021_Feb_24_0937,ComputerHuman,2020.1.3,59.98883007984415,
Sychronize.jpg,Number9.jpg,,Computer,Computer.xlsx,1,c,9,,,,,1,1,9,1,0,6,6,7,,,,,,,,,,,,,,,,,,,,,,,,,,,,,,,,,,,,,,,,,,,,,,,,,,,,,,,,,,,,,2366.9240078,None,2366.9240078,None,2367.4157774,None,2367.4157774,None,"['v', 't']","[8.961018500000137, 9.379917700000078]",2367.4157774,None,8.961018500000137,9.379917700000078,9,False,False,False,2378.9362081,None,2378.9362081,None,2378.9362081,None,2378.9362081,None,2378.9362081,None,2378.9362081,None,2378.9362081,None,2378.9362081,None,2379.9518912,None,2379.9518912,None,1,c,,,,,,,,,,,,,,,,,,7_8,001,2021_Feb_24_0937,ComputerHuman,2020.1.3,59.98883007984415,
Sychronize.jpg,Number8.jpg,,Computer,Computer.xlsx,1,c,8,,,,,1,1,9,1,0,7,7,5,,,,,,,,,,,,,,,,,,,,,,,,,,,,,,,,,,,,,,,,,,,,,,,,,,,,,,,,,,,,,2380.9698387,None,2380.9698387,None,2381.4498602,None,2381.4498602,None,"['v', 't']","[7.642196299999796, 8.92622289999963]",2381.4498602,None,7.642196299999796,8.92622289999963,8,False,False,False,2392.1081808999998,None,2392.1081808999998,None,2392.1081808999998,None,2392.1081808999998,None,2392.1081808999998,None,2392.1081808999998,None,2392.1081808999998,None,2392.1081808999998,None,2393.1203209,None,2393.1203209,None,1,c,,,,,,,,,,,,,,,,,,7_8,001,2021_Feb_24_0937,ComputerHuman,2020.1.3,59.98883007984415,
Sychronize.jpg,Number8.jpg,,Computer,Computer.xlsx,1,c,8,,,,,1,1,9,1,0,8,8,4,,,,,,,,,,,,,,,,,,,,,,,,,,,,,,,,,,,,,,,,,,,,,,,,,,,,,,,,,,,,,2394.1416412,None,2394.1416412,None,2394.6193538999996,None,2394.6193538999996,None,"['t', 'v']","[7.964347199999793, 8.772909199999958]",2394.6193538999996,None,8.772909199999958,7.964347199999793,8,False,False,False,2406.4920241,None,2406.4920241,None,2406.4920241,None,2406.4920241,None,2406.4920241,None,2406.4920241,None,2406.4920241,None,2406.4920241,None,2407.5073813,None,2407.5073813,None,1,c,,,,,,,,,,,,,,,,,,7_8,001,2021_Feb_24_0937,ComputerHuman,2020.1.3,59.98883007984415,
Sychronize.jpg,Number10.jpg,,Computer,Computer.xlsx,1,c,10,,,,,1,1,9,1,0,9,9,9,,,,,,,,,,,,,,,,,,,,,,,,,,,,,,,,,,,,,,,,,,,,,,,,,,,,,,,,,,,,,2408.5319296,None,2408.5319296,None,2409.0056317999997,None,2409.0056317999997,None,"['t', 'v']","[8.006163300000026, 8.610372000000098]",2409.0056317999997,None,8.610372000000098,8.006163300000026,10,False,False,False,2421.1772785,None,2421.1772785,None,2421.1772785,None,2421.1772785,None,2421.1772785,None,2421.1772785,None,2421.1772785,None,2421.1772785,None,2422.1936631,None,2422.1936631,None,1,c,,,,,,,,,,,,,,,,,,7_8,001,2021_Feb_24_0937,ComputerHuman,2020.1.3,59.98883007984415,
,,,,Computer.xlsx,1,c,,,,,,1,1,9,1,,,,,,,,,,,,,,,,,,,,,,,,,,,,,,,,,,,,,,,,,,,,,,,,,,,,,,,,,,,,,,,,,,,,,,,,,,,,,,,,,,,,,,,,,,,,,,,,,,,,,,,1,c,2423.1918059,None,c,1,1.6151128999999855,2424.188667,None,2425.8314775999997,None,None,None,None,None,None,,,,7_8,001,2021_Feb_24_0937,ComputerHuman,2020.1.3,59.98883007984415,
Sychronize.jpg,Number6.jpg,,Human,Human.xlsx,2,h,6,,,,,1,2,10,6,0,0,0,0,,,,,,,,,,,,,,,,,,,,,,,,,,,,,,,,,,,,,,,,,,,,,,,,,,,,,,,,,2430.8449446,None,2430.8449446,None,2433.8967211,None,2433.8967211,None,2434.3607988,None,2434.3607988,None,"['t', 'v']","[5.443476099999771, 5.487442600000122]",2434.3607988,None,5.487442600000122,5.443476099999771,6,False,False,False,2444.1362342999996,None,2444.1362342999996,None,2444.1362342999996,None,2444.1362342999996,None,2444.1362342999996,None,2444.1362342999996,None,2444.1362342999996,None,2444.1362342999996,None,2445.1696568999996,None,2445.1696568999996,None,2,h,,,,,,,,,,,,,,,,,,7_8,001,2021_Feb_24_0937,ComputerHuman,2020.1.3,59.98883007984415,
Sychronize.jpg,Number7.jpg,,Human,Human.xlsx,2,h,7,,,,,1,2,10,6,0,1,1,3,,,,,,,,,,,,,,,,,,,,,,,,,,,,,,,,,,,,,,,,,,,,,,,,,,,,,,,,,,,,,2446.1668738,None,2446.1668738,None,2446.6466989,None,2446.6466989,None,"['t', 'v']","[6.4850218999999925, 6.605606599999646]",2446.6466989,None,6.605606599999646,6.4850218999999925,7,False,False,False,2456.5867627999996,None,2456.5867627999996,None,2456.5867627999996,None,2456.5867627999996,None,2456.5867627999996,None,2456.5867627999996,None,2456.5867627999996,None,2456.5867627999996,None,2457.6234547999998,None,2457.6234547999998,None,2,h,,,,,,,,,,,,,,,,,,7_8,001,2021_Feb_24_0937,ComputerHuman,2020.1.3,59.98883007984415,
Sychronize.jpg,Number10.jpg,,Human,Human.xlsx,2,h,10,,,,,1,2,10,6,0,2,2,9,,,,,,,,,,,,,,,,,,,,,,,,,,,,,,,,,,,,,,,,,,,,,,,,,,,,,,,,,,,,,2458.6188281,None,2458.6188281,None,2459.0994926,None,2459.0994926,None,"['v', 't']","[9.395472700000028, 9.676710300000195]",2459.0994926,None,9.395472700000028,9.676710300000195,10,False,False,False,2470.3586406,None,2470.3586406,None,2470.3586406,None,2470.3586406,None,2470.3586406,None,2470.3586406,None,2470.3586406,None,2470.3586406,None,2471.3891743,None,2471.3891743,None,2,h,,,,,,,,,,,,,,,,,,7_8,001,2021_Feb_24_0937,ComputerHuman,2020.1.3,59.98883007984415,
Sychronize.jpg,Number8.jpg,,Human,Human.xlsx,2,h,8,,,,,1,2,10,6,0,3,3,4,,,,,,,,,,,,,,,,,,,,,,,,,,,,,,,,,,,,,,,,,,,,,,,,,,,,,,,,,,,,,2472.3955395999997,None,2472.3955395999997,None,2472.8689818999997,None,2472.8689818999997,None,"['v', 't']","[8.630682100000286, 8.87776410000015]",2472.8689818999997,None,8.630682100000286,8.87776410000015,8,False,False,False,2484.2713148999997,None,2484.2713148999997,None,2484.2713148999997,None,2484.2713148999997,None,2484.2713148999997,None,2484.2713148999997,None,2484.2713148999997,None,2484.2713148999997,None,2485.2942632,None,2485.2942632,None,2,h,,,,,,,,,,,,,,,,,,7_8,001,2021_Feb_24_0937,ComputerHuman,2020.1.3,59.98883007984415,
Sychronize.jpg,Number8.jpg,,Human,Human.xlsx,2,h,8,,,,,1,2,10,6,0,4,4,5,,,,,,,,,,,,,,,,,,,,,,,,,,,,,,,,,,,,,,,,,,,,,,,,,,,,,,,,,,,,,2486.291081,None,2486.291081,None,2486.7698047,None,2486.7698047,None,"['v', 't']","[7.830020299999887, 8.15788590000011]",2486.7698047,None,7.830020299999887,8.15788590000011,8,False,False,False,2496.7790788999996,None,2496.7790788999996,None,2496.7790788999996,None,2496.7790788999996,None,2496.7790788999996,None,2496.7790788999996,None,2496.7790788999996,None,2496.7790788999996,None,2497.7919745,None,2497.7919745,None,2,h,,,,,,,,,,,,,,,,,,7_8,001,2021_Feb_24_0937,ComputerHuman,2020.1.3,59.98883007984415,
Sychronize.jpg,Number9.jpg,,Human,Human.xlsx,2,h,9,,,,,1,2,10,6,0,5,5,6,,,,,,,,,,,,,,,,,,,,,,,,,,,,,,,,,,,,,,,,,,,,,,,,,,,,,,,,,,,,,2498.8170440999997,None,2498.8170440999997,None,2499.2904071999997,None,2499.2904071999997,None,"['t', 'v']","[8.640121800000088, 9.081484799999998]",2499.2904071999997,None,9.081484799999998,8.640121800000088,9,False,False,False,2512.0296444,None,2512.0296444,None,2512.0296444,None,2512.0296444,None,2512.0296444,None,2512.0296444,None,2512.0296444,None,2512.0296444,None,2513.0439711999998,None,2513.0439711999998,None,2,h,,,,,,,,,,,,,,,,,,7_8,001,2021_Feb_24_0937,ComputerHuman,2020.1.3,59.98883007984415,
Sychronize.jpg,Number6.jpg,,Human,Human.xlsx,2,h,6,,,,,1,2,10,6,0,6,6,1,,,,,,,,,,,,,,,,,,,,,,,,,,,,,,,,,,,,,,,,,,,,,,,,,,,,,,,,,,,,,2514.0711205,None,2514.0711205,None,2514.543737,None,2514.543737,None,"['t', 'v']","[5.915965000000142, 6.083545100000265]",2514.543737,None,6.083545100000265,5.915965000000142,6,False,False,False,2524.5039196999996,None,2524.5039196999996,None,2524.5039196999996,None,2524.5039196999996,None,2524.5039196999996,None,2524.5039196999996,None,2524.5039196999996,None,2524.5039196999996,None,2525.5333112,None,2525.5333112,None,2,h,,,,,,,,,,,,,,,,,,7_8,001,2021_Feb_24_0937,ComputerHuman,2020.1.3,59.98883007984415,
Sychronize.jpg,Number7.jpg,,Human,Human.xlsx,2,h,7,,,,,1,2,10,6,0,7,7,2,,,,,,,,,,,,,,,,,,,,,,,,,,,,,,,,,,,,,,,,,,,,,,,,,,,,,,,,,,,,,2526.5331698,None,2526.5331698,None,2527.0125856,None,2527.0125856,None,"['v', 't']","[7.014917400000286, 7.171173000000181]",2527.0125856,None,7.014917400000286,7.171173000000181,7,False,False,False,2536.5195604,None,2536.5195604,None,2536.5195604,None,2536.5195604,None,2536.5195604,None,2536.5195604,None,2536.5195604,None,2536.5195604,None,2537.5550491999998,None,2537.5550491999998,None,2,h,,,,,,,,,,,,,,,,,,7_8,001,2021_Feb_24_0937,ComputerHuman,2020.1.3,59.98883007984415,
Sychronize.jpg,Number10.jpg,,Human,Human.xlsx,2,h,10,,,,,1,2,10,6,0,8,8,8,,,,,,,,,,,,,,,,,,,,,,,,,,,,,,,,,,,,,,,,,,,,,,,,,,,,,,,,,,,,,2538.5631396,None,2538.5631396,None,2539.0316702,None,2539.0316702,None,"['t', 'v']","[9.803323099999943, 10.30440039999985]",2539.0316702,None,10.30440039999985,9.803323099999943,10,False,False,False,2552.1667594,None,2552.1667594,None,2552.1667594,None,2552.1667594,None,2552.1667594,None,2552.1667594,None,2552.1667594,None,2552.1667594,None,2553.1702212,None,2553.1702212,None,2,h,,,,,,,,,,,,,,,,,,7_8,001,2021_Feb_24_0937,ComputerHuman,2020.1.3,59.98883007984415,
Sychronize.jpg,Number9.jpg,,Human,Human.xlsx,2,h,9,,,,,1,2,10,6,0,9,9,7,,,,,,,,,,,,,,,,,,,,,,,,,,,,,,,,,,,,,,,,,,,,,,,,,,,,,,,,,,,,,2554.1927707,None,2554.1927707,None,2554.6682001,None,2554.6682001,None,"['t', 'v']","[8.371904000000086, 9.223841799999718]",2554.6682001,None,9.223841799999718,8.371904000000086,9,False,False,False,2567.4316765,None,2567.4316765,None,2567.4316765,None,2567.4316765,None,2567.4316765,None,2567.4316765,None,2567.4316765,None,2567.4316765,None,2568.4388193,None,2568.4388193,None,2,h,,,,,,,,,,,,,,,,,,7_8,001,2021_Feb_24_0937,ComputerHuman,2020.1.3,59.98883007984415,
,,,,Human.xlsx,2,h,,,,,,1,2,10,6,,,,,,,,,,,,,,,,,,,,,,,,,,,,,,,,,,,,,,,,,,,,,,,,,,,,,,,,,,,,,,,,,,,,,,,,,,,,,,,,,,,,,,,,,,,,,,,,,,,,,,,2,h,2569.4379848,None,h,1,5.161363499999879,2570.4348443999997,None,2575.6213636999996,None,None,None,None,None,None,,,,7_8,001,2021_Feb_24_0937,ComputerHuman,2020.1.3,59.98883007984415,
Sychronize.jpg,Number7.jpg,,Human,Human.xlsx,2,h,7,,,,,1,3,11,4,0,0,0,3,,,,,,,,,,,,,,,,,,,,,,,,,,,,,,,,,,,,,,,,,,,,,,,,,,,,,,,,,2580.6613651,None,2580.6613651,None,2583.6774974,None,2583.6774974,None,2584.1768921999997,None,2584.1768921999997,None,"['v', 't']","[6.682988999999907, 6.92708679999987]",2584.1768921999997,None,6.682988999999907,6.92708679999987,7,False,False,False,2592.9515803,None,2592.9515803,None,2592.9515803,None,2592.9515803,None,2592.9515803,None,2592.9515803,None,2592.9515803,None,2592.9515803,None,2593.9809456,None,2593.9809456,None,2,h,,,,,,,,,,,,,,,,,,7_8,001,2021_Feb_24_0937,ComputerHuman,2020.1.3,59.98883007984415,
Sychronize.jpg,Number8.jpg,,Human,Human.xlsx,2,h,8,,,,,1,3,11,4,0,1,1,4,,,,,,,,,,,,,,,,,,,,,,,,,,,,,,,,,,,,,,,,,,,,,,,,,,,,,,,,,,,,,2594.9869675,None,2594.9869675,None,2595.4585187999996,None,2595.4585187999996,None,"['v', 't']","[7.524569000000156, 7.941368499999953]",2595.4585187999996,None,7.524569000000156,7.941368499999953,8,False,False,False,2605.5106087,None,2605.5106087,None,2605.5106087,None,2605.5106087,None,2605.5106087,None,2605.5106087,None,2605.5106087,None,2605.5106087,None,2606.529845,None,2606.529845,None,2,h,,,,,,,,,,,,,,,,,,7_8,001,2021_Feb_24_0937,ComputerHuman,2020.1.3,59.98883007984415,
Sychronize.jpg,Number6.jpg,,Human,Human.xlsx,2,h,6,,,,,1,3,11,4,0,2,2,1,,,,,,,,,,,,,,,,,,,,,,,,,,,,,,,,,,,,,,,,,,,,,,,,,,,,,,,,,,,,,2607.5384469,None,2607.5384469,None,2608.02897,None,2608.02897,None,"['v', 't']","[5.226269199999933, 5.6867246000001614]",2608.02897,None,5.226269199999933,5.6867246000001614,6,False,False,False,2615.5165932,None,2615.5165932,None,2615.5165932,None,2615.5165932,None,2615.5165932,None,2615.5165932,None,2615.5165932,None,2615.5165932,None,2616.5318506,None,2616.5318506,None,2,h,,,,,,,,,,,,,,,,,,7_8,001,2021_Feb_24_0937,ComputerHuman,2020.1.3,59.98883007984415,
Sychronize.jpg,Number9.jpg,,Human,Human.xlsx,2,h,9,,,,,1,3,11,4,0,3,3,6,,,,,,,,,,,,,,,,,,,,,,,,,,,,,,,,,,,,,,,,,,,,,,,,,,,,,,,,,,,,,2617.5589327999996,None,2617.5589327999996,None,2618.0313383,None,2618.0313383,None,"['v', 't']","[6.780573800000184, 8.11261820000027]",2618.0313383,None,6.780573800000184,8.11261820000027,9,False,False,False,2628.0022252999997,None,2628.0022252999997,None,2628.0022252999997,None,2628.0022252999997,None,2628.0022252999997,None,2628.0022252999997,None,2628.0022252999997,None,2628.0022252999997,None,2629.0186356,None,2629.0186356,None,2,h,,,,,,,,,,,,,,,,,,7_8,001,2021_Feb_24_0937,ComputerHuman,2020.1.3,59.98883007984415,
Sychronize.jpg,Number7.jpg,,Human,Human.xlsx,2,h,7,,,,,1,3,11,4,0,4,4,2,,,,,,,,,,,,,,,,,,,,,,,,,,,,,,,,,,,,,,,,,,,,,,,,,,,,,,,,,,,,,2630.0373467,None,2630.0373467,None,2630.5173557999997,None,2630.5173557999997,None,"['t', 'v']","[6.218351900000016, 6.5386582000001]",2630.5173557999997,None,6.5386582000001,6.218351900000016,7,False,False,False,2641.3434699,None,2641.3434699,None,2641.3434699,None,2641.3434699,None,2641.3434699,None,2641.3434699,None,2641.3434699,None,2641.3434699,None,2642.3545142999997,None,2642.3545142999997,None,2,h,,,,,,,,,,,,,,,,,,7_8,001,2021_Feb_24_0937,ComputerHuman,2020.1.3,59.98883007984415,
Sychronize.jpg,Number9.jpg,,Human,Human.xlsx,2,h,9,,,,,1,3,11,4,0,5,5,7,,,,,,,,,,,,,,,,,,,,,,,,,,,,,,,,,,,,,,,,,,,,,,,,,,,,,,,,,,,,,2643.378187,None,2643.378187,None,2643.8529135,None,2643.8529135,None,['v'],[8.886707600000136],2643.8529135,None,8.886707600000136,13,9,False,False,False,2656.8879926,None,2656.8879926,None,2656.8879926,None,2656.8879926,None,2656.8879926,None,2656.8879926,None,2656.8879926,None,2656.8879926,None,2657.8911328,None,2657.8911328,None,2,h,,,,,,,,,,,,,,,,,,7_8,001,2021_Feb_24_0937,ComputerHuman,2020.1.3,59.98883007984415,
Sychronize.jpg,Number6.jpg,,Human,Human.xlsx,2,h,6,,,,,1,3,11,4,0,6,6,0,,,,,,,,,,,,,,,,,,,,,,,,,,,,,,,,,,,,,,,,,,,,,,,,,,,,,,,,,,,,,2658.9148876,None,2658.9148876,None,2659.4091095,None,2659.4091095,None,"['t', 'v']","[5.173465699999724, 7.030235599999742]",2659.4091095,None,7.030235599999742,5.173465699999724,6,False,False,False,2668.3387979999998,None,2668.3387979999998,None,2668.3387979999998,None,2668.3387979999998,None,2668.3387979999998,None,2668.3387979999998,None,2668.3387979999998,None,2668.3387979999998,None,2669.3433913999997,None,2669.3433913999997,None,2,h,,,,,,,,,,,,,,,,,,7_8,001,2021_Feb_24_0937,ComputerHuman,2020.1.3,59.98883007984415,
Sychronize.jpg,Number8.jpg,,Human,Human.xlsx,2,h,8,,,,,1,3,11,4,0,7,7,5,,,,,,,,,,,,,,,,,,,,,,,,,,,,,,,,,,,,,,,,,,,,,,,,,,,,,,,,,,,,,2670.3691799999997,None,2670.3691799999997,None,2670.8403455999996,None,2670.8403455999996,None,"['t', 'v']","[7.211686200000258, 7.627611299999899]",2670.8403455999996,None,7.627611299999899,7.211686200000258,8,False,False,False,2682.2145948999996,None,2682.2145948999996,None,2682.2145948999996,None,2682.2145948999996,None,2682.2145948999996,None,2682.2145948999996,None,2682.2145948999996,None,2682.2145948999996,None,2683.2296119,None,2683.2296119,None,2,h,,,,,,,,,,,,,,,,,,7_8,001,2021_Feb_24_0937,ComputerHuman,2020.1.3,59.98883007984415,
Sychronize.jpg,Number10.jpg,,Human,Human.xlsx,2,h,10,,,,,1,3,11,4,0,8,8,9,,,,,,,,,,,,,,,,,,,,,,,,,,,,,,,,,,,,,,,,,,,,,,,,,,,,,,,,,,,,,2684.2545757,None,2684.2545757,None,2684.7278168,None,2684.7278168,None,"['t', 'v']","[9.432310199999847, 9.495207599999958]",2684.7278168,None,9.495207599999958,9.432310199999847,10,False,False,False,2698.1729938,None,2698.1729938,None,2698.1729938,None,2698.1729938,None,2698.1729938,None,2698.1729938,None,2698.1729938,None,2698.1729938,None,2699.2023089,None,2699.2023089,None,2,h,,,,,,,,,,,,,,,,,,7_8,001,2021_Feb_24_0937,ComputerHuman,2020.1.3,59.98883007984415,
Sychronize.jpg,Number10.jpg,,Human,Human.xlsx,2,h,10,,,,,1,3,11,4,0,9,9,8,,,,,,,,,,,,,,,,,,,,,,,,,,,,,,,,,,,,,,,,,,,,,,,,,,,,,,,,,,,,,2700.2044911999997,None,2700.2044911999997,None,2700.681323,None,2700.681323,None,"['t', 'v']","[9.874617199999648, 10.130651299999954]",2700.681323,None,10.130651299999954,9.874617199999648,10,False,False,False,2714.3780171,None,2714.3780171,None,2714.3780171,None,2714.3780171,None,2714.3780171,None,2714.3780171,None,2714.3780171,None,2714.3780171,None,2715.4051683999996,None,2715.4051683999996,None,2,h,,,,,,,,,,,,,,,,,,7_8,001,2021_Feb_24_0937,ComputerHuman,2020.1.3,59.98883007984415,
,,,,Human.xlsx,2,h,,,,,,1,3,11,4,,,,,,,,,,,,,,,,,,,,,,,,,,,,,,,,,,,,,,,,,,,,,,,,,,,,,,,,,,,,,,,,,,,,,,,,,,,,,,,,,,,,,,,,,,,,,,,,,,,,,,,2,h,2716.3843798999997,None,c,0,5.478487800000039,2717.3814088999998,None,None,None,2722.8905833999997,None,"['space', 'space']",2723.8825319999996,None,"[7.836550299999999, 19.40137649999997]",,,7_8,001,2021_Feb_24_0937,ComputerHuman,2020.1.3,59.98883007984415,
Sychronize.jpg,Number9.jpg,,Computer,Computer.xlsx,2,c,9,,,,,1,4,12,7,0,0,0,7,,,,,,,,,,,,,,,,,,,,,,,,,,,,,,,,,,,,,,,,,,,,,,,,,,,,,,,,,2743.3130717999998,None,2743.3130717999998,None,2746.3594736,None,2746.3594736,None,2746.8237251,None,2746.8237251,None,"['v', 't']","[7.991995099999713, 8.939929099999972]",2746.8237251,None,7.991995099999713,8.939929099999972,9,False,False,False,2758.2203348,None,2758.2203348,None,2758.2203348,None,2758.2203348,None,2758.2203348,None,2758.2203348,None,2758.2203348,None,2758.2203348,None,2759.228041,None,2759.228041,None,2,c,,,,,,,,,,,,,,,,,,7_8,001,2021_Feb_24_0937,ComputerHuman,2020.1.3,59.98883007984415,
Sychronize.jpg,Number7.jpg,,Computer,Computer.xlsx,2,c,7,,,,,1,4,12,7,0,1,1,3,,,,,,,,,,,,,,,,,,,,,,,,,,,,,,,,,,,,,,,,,,,,,,,,,,,,,,,,,,,,,2760.2464651,None,2760.2464651,None,2760.7268667999997,None,2760.7268667999997,None,"['t', 'v']","[6.633231799999976, 6.852970899999946]",2760.7268667999997,None,6.852970899999946,6.633231799999976,7,False,False,False,2772.1063550999997,None,2772.1063550999997,None,2772.1063550999997,None,2772.1063550999997,None,2772.1063550999997,None,2772.1063550999997,None,2772.1063550999997,None,2772.1063550999997,None,2773.1133277,None,2773.1133277,None,2,c,,,,,,,,,,,,,,,,,,7_8,001,2021_Feb_24_0937,ComputerHuman,2020.1.3,59.98883007984415,
Sychronize.jpg,Number9.jpg,,Computer,Computer.xlsx,2,c,9,,,,,1,4,12,7,0,2,2,6,,,,,,,,,,,,,,,,,,,,,,,,,,,,,,,,,,,,,,,,,,,,,,,,,,,,,,,,,,,,,2774.1325534999996,None,2774.1325534999996,None,2774.6127419,None,2774.6127419,None,"['v', 't']","[8.787013099999967, 8.839060599999812]",2774.6127419,None,8.787013099999967,8.839060599999812,9,False,False,False,2785.5545411999997,None,2785.5545411999997,None,2785.5545411999997,None,2785.5545411999997,None,2785.5545411999997,None,2785.5545411999997,None,2785.5545411999997,None,2785.5545411999997,None,2786.5701857999998,None,2786.5701857999998,None,2,c,,,,,,,,,,,,,,,,,,7_8,001,2021_Feb_24_0937,ComputerHuman,2020.1.3,59.98883007984415,
Sychronize.jpg,Number7.jpg,,Computer,Computer.xlsx,2,c,7,,,,,1,4,12,7,0,3,3,2,,,,,,,,,,,,,,,,,,,,,,,,,,,,,,,,,,,,,,,,,,,,,,,,,,,,,,,,,,,,,2787.5737603999996,None,2787.5737603999996,None,2788.0486787,None,2788.0486787,None,"['v', 't']","[6.739301000000069, 7.0635637999998835]",2788.0486787,None,6.739301000000069,7.0635637999998835,7,False,False,False,2797.0930316,None,2797.0930316,None,2797.0930316,None,2797.0930316,None,2797.0930316,None,2797.0930316,None,2797.0930316,None,2797.0930316,None,2798.1243206,None,2798.1243206,None,2,c,,,,,,,,,,,,,,,,,,7_8,001,2021_Feb_24_0937,ComputerHuman,2020.1.3,59.98883007984415,
Sychronize.jpg,Number8.jpg,,Computer,Computer.xlsx,2,c,8,,,,,1,4,12,7,0,4,4,4,,,,,,,,,,,,,,,,,,,,,,,,,,,,,,,,,,,,,,,,,,,,,,,,,,,,,,,,,,,,,2799.1210096,None,2799.1210096,None,2799.6009927,None,2799.6009927,None,"['t', 'v']","[7.174653699999908, 7.295382700000118]",2799.6009927,None,7.295382700000118,7.174653699999908,8,False,False,False,2810.9706914999997,None,2810.9706914999997,None,2810.9706914999997,None,2810.9706914999997,None,2810.9706914999997,None,2810.9706914999997,None,2810.9706914999997,None,2810.9706914999997,None,2811.9881484,None,2811.9881484,None,2,c,,,,,,,,,,,,,,,,,,7_8,001,2021_Feb_24_0937,ComputerHuman,2020.1.3,59.98883007984415,
Sychronize.jpg,Number10.jpg,,Computer,Computer.xlsx,2,c,10,,,,,1,4,12,7,0,5,5,8,,,,,,,,,,,,,,,,,,,,,,,,,,,,,,,,,,,,,,,,,,,,,,,,,,,,,,,,,,,,,2813.0077198999998,None,2813.0077198999998,None,2813.4870947,None,2813.4870947,None,"['v', 't']","[9.084181100000023, 10.325181000000157]",2813.4870947,None,9.084181100000023,10.325181000000157,10,False,False,False,2825.5890790999997,None,2825.5890790999997,None,2825.5890790999997,None,2825.5890790999997,None,2825.5890790999997,None,2825.5890790999997,None,2825.5890790999997,None,2825.5890790999997,None,2826.6076693,None,2826.6076693,None,2,c,,,,,,,,,,,,,,,,,,7_8,001,2021_Feb_24_0937,ComputerHuman,2020.1.3,59.98883007984415,
Sychronize.jpg,Number6.jpg,,Computer,Computer.xlsx,2,c,6,,,,,1,4,12,7,0,6,6,1,,,,,,,,,,,,,,,,,,,,,,,,,,,,,,,,,,,,,,,,,,,,,,,,,,,,,,,,,,,,,2827.6273161999998,None,2827.6273161999998,None,2828.1073776999997,None,2828.1073776999997,None,"['v', 't']","[5.404376799999682, 5.572086799999852]",2828.1073776999997,None,5.404376799999682,5.572086799999852,6,False,False,False,2835.2473975,None,2835.2473975,None,2835.2473975,None,2835.2473975,None,2835.2473975,None,2835.2473975,None,2835.2473975,None,2835.2473975,None,2836.259499,None,2836.259499,None,2,c,,,,,,,,,,,,,,,,,,7_8,001,2021_Feb_24_0937,ComputerHuman,2020.1.3,59.98883007984415,
Sychronize.jpg,Number6.jpg,,Computer,Computer.xlsx,2,c,6,,,,,1,4,12,7,0,7,7,0,,,,,,,,,,,,,,,,,,,,,,,,,,,,,,,,,,,,,,,,,,,,,,,,,,,,,,,,,,,,,2837.2793437,None,2837.2793437,None,2837.7592514999997,None,2837.7592514999997,None,"['v', 't']","[4.982992700000068, 5.852052899999762]",2837.7592514999997,None,4.982992700000068,5.852052899999762,6,False,False,False,2845.702362,None,2845.702362,None,2845.702362,None,2845.702362,None,2845.702362,None,2845.702362,None,2845.702362,None,2845.702362,None,2846.7118004,None,2846.7118004,None,2,c,,,,,,,,,,,,,,,,,,7_8,001,2021_Feb_24_0937,ComputerHuman,2020.1.3,59.98883007984415,
Sychronize.jpg,Number10.jpg,,Computer,Computer.xlsx,2,c,10,,,,,1,4,12,7,0,8,8,9,,,,,,,,,,,,,,,,,,,,,,,,,,,,,,,,,,,,,,,,,,,,,,,,,,,,,,,,,,,,,2847.7307686999998,None,2847.7307686999998,None,2848.2122818,None,2848.2122818,None,"['v', 't']","[8.845523299999968, 8.972254799999973]",2848.2122818,None,8.845523299999968,8.972254799999973,10,False,False,False,2859.3690948,None,2859.3690948,None,2859.3690948,None,2859.3690948,None,2859.3690948,None,2859.3690948,None,2859.3690948,None,2859.3690948,None,2860.3810641,None,2860.3810641,None,2,c,,,,,,,,,,,,,,,,,,7_8,001,2021_Feb_24_0937,ComputerHuman,2020.1.3,59.98883007984415,
Sychronize.jpg,Number8.jpg,,Computer,Computer.xlsx,2,c,8,,,,,1,4,12,7,0,9,9,5,,,,,,,,,,,,,,,,,,,,,,,,,,,,,,,,,,,,,,,,,,,,,,,,,,,,,,,,,,,,,2861.3894224,None,2861.3894224,None,2861.8791689,None,2861.8791689,None,"['v', 't']","[6.920333600000049, 7.360081100000116]",2861.8791689,None,6.920333600000049,7.360081100000116,8,False,False,False,2871.5900957,None,2871.5900957,None,2871.5900957,None,2871.5900957,None,2871.5900957,None,2871.5900957,None,2871.5900957,None,2871.5900957,None,2872.6014373999997,None,2872.6014373999997,None,2,c,,,,,,,,,,,,,,,,,,7_8,001,2021_Feb_24_0937,ComputerHuman,2020.1.3,59.98883007984415,
,,,,Computer.xlsx,2,c,,,,,,1,4,12,7,,,,,,,,,,,,,,,,,,,,,,,,,,,,,,,,,,,,,,,,,,,,,,,,,,,,,,,,,,,,,,,,,,,,,,,,,,,,,,,,,,,,,,,,,,,,,,,,,,,,,,,2,c,2873.5981512999997,None,h,0,1.362958300000173,2874.5965357,None,2875.9894953,None,None,None,None,None,None,,,,7_8,001,2021_Feb_24_0937,ComputerHuman,2020.1.3,59.98883007984415,
Sychronize.jpg,Number8.jpg,,Human,Human.xlsx,1,h,8,,,,,1,5,13,2,0,0,0,4,,,,,,,,,,,,,,,,,,,,,,,,,,,,,,,,,,,,,,,,,,,,,,,,,,,,,,,,,2881.0035869,None,2881.0035869,None,2884.0552063,None,2884.0552063,None,2884.5187739999997,None,2884.5187739999997,None,"['v', 't']","[7.264345300000059, 7.868506700000125]",2884.5187739999997,None,7.264345300000059,7.868506700000125,8,False,False,False,2894.003146,None,2894.003146,None,2894.003146,None,2894.003146,None,2894.003146,None,2894.003146,None,2894.003146,None,2894.003146,None,2895.0222903999997,None,2895.0222903999997,None,1,h,,,,,,,,,,,,,,,,,,7_8,001,2021_Feb_24_0937,ComputerHuman,2020.1.3,59.98883007984415,
Sychronize.jpg,Number9.jpg,,Human,Human.xlsx,1,h,9,,,,,1,5,13,2,0,1,1,7,,,,,,,,,,,,,,,,,,,,,,,,,,,,,,,,,,,,,,,,,,,,,,,,,,,,,,,,,,,,,2896.041007,None,2896.041007,None,2896.5193578999997,None,2896.5193578999997,None,"['t', 'v']","[8.5359212999997, 8.908629399999882]",2896.5193578999997,None,8.908629399999882,8.5359212999997,9,False,False,False,2909.0775523999996,None,2909.0775523999996,None,2909.0775523999996,None,2909.0775523999996,None,2909.0775523999996,None,2909.0775523999996,None,2909.0775523999996,None,2909.0775523999996,None,2910.0743684,None,2910.0743684,None,1,h,,,,,,,,,,,,,,,,,,7_8,001,2021_Feb_24_0937,ComputerHuman,2020.1.3,59.98883007984415,
Sychronize.jpg,Number7.jpg,,Human,Human.xlsx,1,h,7,,,,,1,5,13,2,0,2,2,3,,,,,,,,,,,,,,,,,,,,,,,,,,,,,,,,,,,,,,,,,,,,,,,,,,,,,,,,,,,,,2911.0941549,None,2911.0941549,None,2911.5725257999998,None,2911.5725257999998,None,"['v', 't']","[6.426148900000044, 6.710985199999868]",2911.5725257999998,None,6.426148900000044,6.710985199999868,7,False,False,False,2919.8740144999997,None,2919.8740144999997,None,2919.8740144999997,None,2919.8740144999997,None,2919.8740144999997,None,2919.8740144999997,None,2919.8740144999997,None,2919.8740144999997,None,2920.8964652,None,2920.8964652,None,1,h,,,,,,,,,,,,,,,,,,7_8,001,2021_Feb_24_0937,ComputerHuman,2020.1.3,59.98883007984415,
Sychronize.jpg,Number6.jpg,,Human,Human.xlsx,1,h,6,,,,,1,5,13,2,0,3,3,1,,,,,,,,,,,,,,,,,,,,,,,,,,,,,,,,,,,,,,,,,,,,,,,,,,,,,,,,,,,,,2921.8963599999997,None,2921.8963599999997,None,2922.3954297,None,2922.3954297,None,"['t', 'v']","[5.819573000000219, 6.211045800000193]",2922.3954297,None,6.211045800000193,5.819573000000219,6,False,False,False,2932.1635401999997,None,2932.1635401999997,None,2932.1635401999997,None,2932.1635401999997,None,2932.1635401999997,None,2932.1635401999997,None,2932.1635401999997,None,2932.1635401999997,None,2933.179067,None,2933.179067,None,1,h,,,,,,,,,,,,,,,,,,7_8,001,2021_Feb_24_0937,ComputerHuman,2020.1.3,59.98883007984415,
Sychronize.jpg,Number9.jpg,,Human,Human.xlsx,1,h,9,,,,,1,5,13,2,0,4,4,6,,,,,,,,,,,,,,,,,,,,,,,,,,,,,,,,,,,,,,,,,,,,,,,,,,,,,,,,,,,,,2934.2036227999997,None,2934.2036227999997,None,2934.6786066,None,2934.6786066,None,"['v', 't']","[7.571960099999615, 8.027928199999678]",2934.6786066,None,7.571960099999615,8.027928199999678,9,False,False,False,2945.0114994,None,2945.0114994,None,2945.0114994,None,2945.0114994,None,2945.0114994,None,2945.0114994,None,2945.0114994,None,2945.0114994,None,2946.0150541999997,None,2946.0150541999997,None,1,h,,,,,,,,,,,,,,,,,,7_8,001,2021_Feb_24_0937,ComputerHuman,2020.1.3,59.98883007984415,
Sychronize.jpg,Number10.jpg,,Human,Human.xlsx,1,h,10,,,,,1,5,13,2,0,5,5,8,,,,,,,,,,,,,,,,,,,,,,,,,,,,,,,,,,,,,,,,,,,,,,,,,,,,,,,,,,,,,2947.0348492,None,2947.0348492,None,2947.5143848999996,None,2947.5143848999996,None,"['t', 'v']","[8.073200100000122, 9.199945399999706]",2947.5143848999996,None,9.199945399999706,8.073200100000122,10,False,False,False,2959.4594316,None,2959.4594316,None,2959.4594316,None,2959.4594316,None,2959.4594316,None,2959.4594316,None,2959.4594316,None,2959.4594316,None,2960.4680596999997,None,2960.4680596999997,None,1,h,,,,,,,,,,,,,,,,,,7_8,001,2021_Feb_24_0937,ComputerHuman,2020.1.3,59.98883007984415,
Sychronize.jpg,Number8.jpg,,Human,Human.xlsx,1,h,8,,,,,1,5,13,2,0,6,6,5,,,,,,,,,,,,,,,,,,,,,,,,,,,,,,,,,,,,,,,,,,,,,,,,,,,,,,,,,,,,,2961.4881800999997,None,2961.4881800999997,None,2961.9675761,None,2961.9675761,None,"['v', 't']","[6.838366899999983, 6.974384300000111]",2961.9675761,None,6.838366899999983,6.974384300000111,8,False,False,False,2971.3555410999998,None,2971.3555410999998,None,2971.3555410999998,None,2971.3555410999998,None,2971.3555410999998,None,2971.3555410999998,None,2971.3555410999998,None,2971.3555410999998,None,2972.3894627,None,2972.3894627,None,1,h,,,,,,,,,,,,,,,,,,7_8,001,2021_Feb_24_0937,ComputerHuman,2020.1.3,59.98883007984415,
