Sychronize,NumberImage,NumberPr,Partner,Condition,TuringResponsePlayer,CorrectTuringReply,Number,trials.thisRepN,trials.thisTrialN,trials.thisN,trials.thisIndex,Block.thisRepN,Block.thisTrialN,Block.thisN,Block.thisIndex,trials_loop.thisRepN,trials_loop.thisTrialN,trials_loop.thisN,trials_loop.thisIndex,textLeft.started,textLeft.stopped,textRight.started,textRight.stopped,key_resp_Istr.keys,key_resp_Istr.rt,key_resp_Istr.started,key_resp_Istr.stopped,SychroLeftPr.started,SychroLeftPr.stopped,SychroRightPr.started,SychroRightPr.stopped,NumberLeftPr.started,NumberLeftPr.stopped,NumberRightPr.started,NumberRightPr.stopped,CrossLeftPr.started,CrossLeftPr.stopped,CrossRightPr.started,CrossRightPr.stopped,key_respPr.keys,key_respPr.rt,key_respPr.started,key_respPr.stopped,RTLeftPr,RTRightPr,CompPr,SychronizedRTsPr,SychronizedRTsLeftCPr,SychronizedRTsRightCPr,FeedbackLeftLeftPr.started,FeedbackLeftLeftPr.stopped,FeedbackLeftRightPr.started,FeedbackLeftRightPr.stopped,FeedbackRightLeftPr.started,FeedbackRightLeftPr.stopped,FeedbackRightRightPr.started,FeedbackRightRightPr.stopped,textLeftLeftPr.started,textLeftLeftPr.stopped,textLeftRightPr.started,textLeftRightPr.stopped,textRightLeftPr.started,textRightLeftPr.stopped,textRightRightPr.started,textRightRightPr.stopped,CreditLeftPr.started,CreditLeftPr.stopped,CreditRightPr.started,CreditRightPr.stopped,text_StartExp.started,text_StartExp.stopped,key_startExp.keys,key_startExp.rt,key_startExp.started,key_startExp.stopped,SychroLeft.started,SychroLeft.stopped,SychroRight.started,SychroRight.stopped,NumberLeft.started,NumberLeft.stopped,NumberRight.started,NumberRight.stopped,CrossLeft.started,CrossLeft.stopped,CrossRight.started,CrossRight.stopped,key_resp.keys,key_resp.rt,key_resp.started,key_resp.stopped,RTLeft,RTRight,Comp,SychronizedRTs,SychronizedRTsLeftC,SychronizedRTsRightC,FeedbackLeftLeft.started,FeedbackLeftLeft.stopped,FeedbackLeftRight.started,FeedbackLeftRight.stopped,FeedbackRightLeft.started,FeedbackRightLeft.stopped,FeedbackRightRight.started,FeedbackRightRight.stopped,textLeftLeft.started,textLeftLeft.stopped,textLeftRight.started,textLeftRight.stopped,textRightLeft.started,textRightLeft.stopped,textRightRight.started,textRightRight.stopped,CreditLeft.started,CreditLeft.stopped,CreditRight.started,CreditRight.stopped,TuringResponsePlayer,CorrectTuringReply,Turingtext.started,Turingtext.stopped,key_resp_2.keys,key_resp_2.corr,key_resp_2.rt,key_resp_2.started,key_resp_2.stopped,BlockText.started,BlockText.stopped,text_Pause.started,text_Pause.stopped,key_respPause.keys,key_respPause.started,key_respPause.stopped,key_respPause.rt,EndText.started,EndText.stopped,participant,session,date,expName,psychopyVersion,frameRate,
,,,,,,,,,,,,,,,,,,,,16.110363700000562,None,16.110363700000562,None,"['v', 'v', 't']","[651.5451885000002, 653.2504736000001, 655.3225653999998]",17.070183100000577,None,,,,,,,,,,,,,,,,,,,,,,,,,,,,,,,,,,,,,,,,,,,,,,,,,,,,,,,,,,,,,,,,,,,,,,,,,,,,,,,,,,,,,,,,,,,,,,,,,,,,,,,,,,,,,,9_10,001,2021_Feb_24_1129,ComputerHuman,2020.1.3,59.76879041132983,
Sychronize.jpg,Number6.jpg,6,Human,,,,,0,0,0,0,,,,,,,,,,,,,,,,,672.4485148000003,None,672.4485148000003,None,675.4899724000006,None,675.4899724000006,None,675.9526696000003,None,675.9526696000003,None,"['v', 't']","[4.644086700000116, 6.387955799999872]",675.9526696000003,None,4.644086700000116,6.387955799999872,6,False,False,False,684.1042493000004,None,684.1042493000004,None,684.1042493000004,None,684.1042493000004,None,684.1042493000004,None,684.1042493000004,None,684.1042493000004,None,684.1042493000004,None,685.1082921000007,None,685.1082921000007,None,,,,,,,,,,,,,,,,,,,,,,,,,,,,,,,,,,,,,,,,,,,,,,,,,,,,,,,,,,,,,,,,,,,,9_10,001,2021_Feb_24_1129,ComputerHuman,2020.1.3,59.76879041132983,
Sychronize.jpg,Number9.jpg,9,Human,,,,,0,1,1,3,,,,,,,,,,,,,,,,,,,,,686.1270626000005,None,686.1270626000005,None,686.6077702000002,None,686.6077702000002,None,"['v', 't']","[9.057017799999812, 10.080647199999476]",686.6077702000002,None,9.057017799999812,10.080647199999476,9,False,False,False,698.9629211000001,None,698.9629211000001,None,698.9629211000001,None,698.9629211000001,None,698.9629211000001,None,698.9629211000001,None,698.9629211000001,None,698.9629211000001,None,699.9777165000005,None,699.9777165000005,None,,,,,,,,,,,,,,,,,,,,,,,,,,,,,,,,,,,,,,,,,,,,,,,,,,,,,,,,,,,,,,,,,,,,9_10,001,2021_Feb_24_1129,ComputerHuman,2020.1.3,59.76879041132983,
Sychronize.jpg,Number10.jpg,10,Computer,,,,,0,2,2,4,,,,,,,,,,,,,,,,,,,,,700.9967829000007,None,700.9967829000007,None,701.4755415,None,701.4755415,None,"['t', 'v']","[10.297217599999385, 11.24115619999975]",701.4755415,None,11.24115619999975,10.297217599999385,10,False,False,False,716.1783341999999,None,716.1783341999999,None,716.1783341999999,None,716.1783341999999,None,716.1783341999999,None,716.1783341999999,None,716.1783341999999,None,716.1783341999999,None,717.2177791000004,None,717.2177791000004,None,,,,,,,,,,,,,,,,,,,,,,,,,,,,,,,,,,,,,,,,,,,,,,,,,,,,,,,,,,,,,,,,,,,,9_10,001,2021_Feb_24_1129,ComputerHuman,2020.1.3,59.76879041132983,
Sychronize.jpg,Number6.jpg,6,Human,,,,,0,3,3,5,,,,,,,,,,,,,,,,,,,,,718.2005256000002,None,718.2005256000002,None,718.6802324999999,None,718.6802324999999,None,"['t', 'v']","[6.468330600000627, 6.83274320000055]",718.6802324999999,None,6.83274320000055,6.468330600000627,6,False,False,False,729.2751615000006,None,729.2751615000006,None,729.2751615000006,None,729.2751615000006,None,729.2751615000006,None,729.2751615000006,None,729.2751615000006,None,729.2751615000006,None,730.2838656000004,None,730.2838656000004,None,,,,,,,,,,,,,,,,,,,,,,,,,,,,,,,,,,,,,,,,,,,,,,,,,,,,,,,,,,,,,,,,,,,,9_10,001,2021_Feb_24_1129,ComputerHuman,2020.1.3,59.76879041132983,
Sychronize.jpg,Number7.jpg,7,Computer,,,,,0,4,4,1,,,,,,,,,,,,,,,,,,,,,731.3094652999998,None,731.3094652999998,None,731.7830686000007,None,731.7830686000007,None,"['t', 'v']","[6.8013246999998955, 7.949862199999188]",731.7830686000007,None,7.949862199999188,6.8013246999998955,7,False,False,False,742.2710137000004,None,742.2710137000004,None,742.2710137000004,None,742.2710137000004,None,742.2710137000004,None,742.2710137000004,None,742.2710137000004,None,742.2710137000004,None,743.2878552000011,None,743.2878552000011,None,,,,,,,,,,,,,,,,,,,,,,,,,,,,,,,,,,,,,,,,,,,,,,,,,,,,,,,,,,,,,,,,,,,,9_10,001,2021_Feb_24_1129,ComputerHuman,2020.1.3,59.76879041132983,
Sychronize.jpg,Number8.jpg,8,Computer,,,,,0,5,5,2,,,,,,,,,,,,,,,,,,,,,744.3119534999996,None,744.3119534999996,None,744.7855621000008,None,744.7855621000008,None,"['t', 'v']","[8.32351799999924, 9.599498599998697]",744.7855621000008,None,9.599498599998697,8.32351799999924,8,False,False,False,757.1432611999999,None,757.1432611999999,None,757.1432611999999,None,757.1432611999999,None,757.1432611999999,None,757.1432611999999,None,757.1432611999999,None,757.1432611999999,None,758.1562266999999,None,758.1562266999999,None,,,,,,,,,,,,,,,,,,,,,,,,,,,,,,,,,,,,,,,,,,,,,,,,,,,,,,,,,,,,,,,,,,,,9_10,001,2021_Feb_24_1129,ComputerHuman,2020.1.3,59.76879041132983,
,,,,,,,,,,,,,,,,,,,,,,,,,,,,,,,,,,,,,,,,,,,,,,,,,,,,,,,,,,,,,,,,,,,,,,759.1738386000006,None,"['space', 'space']","[114.32791580000048, 117.45198770000025]",760.1687498000001,None,,,,,,,,,,,,,,,,,,,,,,,,,,,,,,,,,,,,,,,,,,,,,,,,,,,,,,,,,,,,,,9_10,001,2021_Feb_24_1129,ComputerHuman,2020.1.3,59.76879041132983,
Sychronize.jpg,Number8.jpg,,Computer,Computer.xlsx,1,c,8,,,,,0,0,0,1,0,0,0,4,,,,,,,,,,,,,,,,,,,,,,,,,,,,,,,,,,,,,,,,,,,,,,,,,,,,,,,,,877.6662960000003,None,877.6662960000003,None,880.6830543000005,None,880.6830543000005,None,881.1633960000008,None,881.1633960000008,None,"['t', 'v']","[6.649141500000042, 8.717030499999964]",881.1633960000008,None,8.717030499999964,6.649141500000042,8,False,False,False,893.5046415000006,None,893.5046415000006,None,893.5046415000006,None,893.5046415000006,None,893.5046415000006,None,893.5046415000006,None,893.5046415000006,None,893.5046415000006,None,894.5179631000001,None,894.5179631000001,None,1,c,,,,,,,,,,,,,,,,,,9_10,001,2021_Feb_24_1129,ComputerHuman,2020.1.3,59.76879041132983,
Sychronize.jpg,Number10.jpg,,Computer,Computer.xlsx,1,c,10,,,,,0,0,0,1,0,1,1,8,,,,,,,,,,,,,,,,,,,,,,,,,,,,,,,,,,,,,,,,,,,,,,,,,,,,,,,,,,,,,895.5358721000002,None,895.5358721000002,None,896.0160363999994,None,896.0160363999994,None,"['v', 't']","[8.420501200000217, 10.016360200001145]",896.0160363999994,None,8.420501200000217,10.016360200001145,10,False,False,False,908.2919393000002,None,908.2919393000002,None,908.2919393000002,None,908.2919393000002,None,908.2919393000002,None,908.2919393000002,None,908.2919393000002,None,908.2919393000002,None,909.3045186999998,None,909.3045186999998,None,1,c,,,,,,,,,,,,,,,,,,9_10,001,2021_Feb_24_1129,ComputerHuman,2020.1.3,59.76879041132983,
Sychronize.jpg,Number9.jpg,,Computer,Computer.xlsx,1,c,9,,,,,0,0,0,1,0,2,2,6,,,,,,,,,,,,,,,,,,,,,,,,,,,,,,,,,,,,,,,,,,,,,,,,,,,,,,,,,,,,,910.3271866999994,None,910.3271866999994,None,910.802722200001,None,910.802722200001,None,"['t', 'v']","[9.017787099999623, 10.717714500000511]",910.802722200001,None,10.717714500000511,9.017787099999623,9,False,False,False,924.2139333999994,None,924.2139333999994,None,924.2139333999994,None,924.2139333999994,None,924.2139333999994,None,924.2139333999994,None,924.2139333999994,None,924.2139333999994,None,925.2432374000009,None,925.2432374000009,None,1,c,,,,,,,,,,,,,,,,,,9_10,001,2021_Feb_24_1129,ComputerHuman,2020.1.3,59.76879041132983,
Sychronize.jpg,Number7.jpg,,Computer,Computer.xlsx,1,c,7,,,,,0,0,0,1,0,3,3,2,,,,,,,,,,,,,,,,,,,,,,,,,,,,,,,,,,,,,,,,,,,,,,,,,,,,,,,,,,,,,926.2481828999998,None,926.2481828999998,None,926.7437569000003,None,926.7437569000003,None,"['t', 'v']","[6.8650200000010955, 7.928650200001357]",926.7437569000003,None,7.928650200001357,6.8650200000010955,7,False,False,False,937.5003779000008,None,937.5003779000008,None,937.5003779000008,None,937.5003779000008,None,937.5003779000008,None,937.5003779000008,None,937.5003779000008,None,937.5003779000008,None,938.5293064999996,None,938.5293064999996,None,1,c,,,,,,,,,,,,,,,,,,9_10,001,2021_Feb_24_1129,ComputerHuman,2020.1.3,59.76879041132983,
Sychronize.jpg,Number6.jpg,,Computer,Computer.xlsx,1,c,6,,,,,0,0,0,1,0,4,4,1,,,,,,,,,,,,,,,,,,,,,,,,,,,,,,,,,,,,,,,,,,,,,,,,,,,,,,,,,,,,,939.5288124999997,None,939.5288124999997,None,940.008252300001,None,940.008252300001,None,"['v', 't']","[6.27611700000125, 6.444368700000268]",940.008252300001,None,6.27611700000125,6.444368700000268,6,False,False,False,948.4306201999998,None,948.4306201999998,None,948.4306201999998,None,948.4306201999998,None,948.4306201999998,None,948.4306201999998,None,948.4306201999998,None,948.4306201999998,None,949.4445588000008,None,949.4445588000008,None,1,c,,,,,,,,,,,,,,,,,,9_10,001,2021_Feb_24_1129,ComputerHuman,2020.1.3,59.76879041132983,
Sychronize.jpg,Number8.jpg,,Computer,Computer.xlsx,1,c,8,,,,,0,0,0,1,0,5,5,5,,,,,,,,,,,,,,,,,,,,,,,,,,,,,,,,,,,,,,,,,,,,,,,,,,,,,,,,,,,,,950.4639577000007,None,950.4639577000007,None,950.9438070000006,None,950.9438070000006,None,"['t', 'v']","[7.892619100000957, 8.281313400000727]",950.9438070000006,None,8.281313400000727,7.892619100000957,8,False,False,False,962.8436646,None,962.8436646,None,962.8436646,None,962.8436646,None,962.8436646,None,962.8436646,None,962.8436646,None,962.8436646,None,963.8484092000008,None,963.8484092000008,None,1,c,,,,,,,,,,,,,,,,,,9_10,001,2021_Feb_24_1129,ComputerHuman,2020.1.3,59.76879041132983,
Sychronize.jpg,Number6.jpg,,Computer,Computer.xlsx,1,c,6,,,,,0,0,0,1,0,6,6,0,,,,,,,,,,,,,,,,,,,,,,,,,,,,,,,,,,,,,,,,,,,,,,,,,,,,,,,,,,,,,964.8717595000007,None,964.8717595000007,None,965.3469111000004,None,965.3469111000004,None,"['v', 't']","[6.513596200000393, 6.661179300001095]",965.3469111000004,None,6.513596200000393,6.661179300001095,6,False,False,False,973.8050988000005,None,973.8050988000005,None,973.8050988000005,None,973.8050988000005,None,973.8050988000005,None,973.8050988000005,None,973.8050988000005,None,973.8050988000005,None,974.8175968000005,None,974.8175968000005,None,1,c,,,,,,,,,,,,,,,,,,9_10,001,2021_Feb_24_1129,ComputerHuman,2020.1.3,59.76879041132983,
Sychronize.jpg,Number9.jpg,,Computer,Computer.xlsx,1,c,9,,,,,0,0,0,1,0,7,7,7,,,,,,,,,,,,,,,,,,,,,,,,,,,,,,,,,,,,,,,,,,,,,,,,,,,,,,,,,,,,,975.8358821000011,None,975.8358821000011,None,976.3159000000005,None,976.3159000000005,None,"['v', 't']","[8.675088800000594, 9.055141099999673]",976.3159000000005,None,8.675088800000594,9.055141099999673,9,False,False,False,987.033905700001,None,987.033905700001,None,987.033905700001,None,987.033905700001,None,987.033905700001,None,987.033905700001,None,987.033905700001,None,987.033905700001,None,988.0535682,None,988.0535682,None,1,c,,,,,,,,,,,,,,,,,,9_10,001,2021_Feb_24_1129,ComputerHuman,2020.1.3,59.76879041132983,
Sychronize.jpg,Number7.jpg,,Computer,Computer.xlsx,1,c,7,,,,,0,0,0,1,0,8,8,3,,,,,,,,,,,,,,,,,,,,,,,,,,,,,,,,,,,,,,,,,,,,,,,,,,,,,,,,,,,,,989.0772186000004,None,989.0772186000004,None,989.5505275999994,None,989.5505275999994,None,"['t', 'v']","[6.62584330000027, 7.7739892000008695]",989.5505275999994,None,7.7739892000008695,6.62584330000027,7,False,False,False,1000.4980072000008,None,1000.4980072000008,None,1000.4980072000008,None,1000.4980072000008,None,1000.4980072000008,None,1000.4980072000008,None,1000.4980072000008,None,1000.4980072000008,None,1001.5062060000009,None,1001.5062060000009,None,1,c,,,,,,,,,,,,,,,,,,9_10,001,2021_Feb_24_1129,ComputerHuman,2020.1.3,59.76879041132983,
Sychronize.jpg,Number10.jpg,,Computer,Computer.xlsx,1,c,10,,,,,0,0,0,1,0,9,9,9,,,,,,,,,,,,,,,,,,,,,,,,,,,,,,,,,,,,,,,,,,,,,,,,,,,,,,,,,,,,,1002.5246754999998,None,1002.5246754999998,None,1003.0042836000002,None,1003.0042836000002,None,"['t', 'v']","[9.607326900000771, 10.828120000000126]",1003.0042836000002,None,10.828120000000126,9.607326900000771,10,False,False,False,1017.1548463000008,None,1017.1548463000008,None,1017.1548463000008,None,1017.1548463000008,None,1017.1548463000008,None,1017.1548463000008,None,1017.1548463000008,None,1017.1548463000008,None,1018.1595850000003,None,1018.1595850000003,None,1,c,,,,,,,,,,,,,,,,,,9_10,001,2021_Feb_24_1129,ComputerHuman,2020.1.3,59.76879041132983,
,,,,Computer.xlsx,1,c,,,,,,0,0,0,1,,,,,,,,,,,,,,,,,,,,,,,,,,,,,,,,,,,,,,,,,,,,,,,,,,,,,,,,,,,,,,,,,,,,,,,,,,,,,,,,,,,,,,,,,,,,,,,,,,,,,,,1,c,1019.1576969999996,None,h,0,4.605765199999951,1020.1544043000004,None,1024.8127300000006,None,None,None,None,None,None,,,,9_10,001,2021_Feb_24_1129,ComputerHuman,2020.1.3,59.76879041132983,
Sychronize.jpg,Number6.jpg,,Human,Human.xlsx,1,h,6,,,,,0,1,1,2,0,0,0,1,,,,,,,,,,,,,,,,,,,,,,,,,,,,,,,,,,,,,,,,,,,,,,,,,,,,,,,,,1029.8161078000003,None,1029.8161078000003,None,1032.8655984000006,None,1032.8655984000006,None,1033.3273547,None,1033.3273547,None,"['v', 't']","[6.417077300000528, 6.447375300000203]",1033.3273547,None,6.417077300000528,6.447375300000203,6,False,False,False,1041.859581900001,None,1041.859581900001,None,1041.859581900001,None,1041.859581900001,None,1041.859581900001,None,1041.859581900001,None,1041.859581900001,None,1041.859581900001,None,1042.8648540999993,None,1042.8648540999993,None,1,h,,,,,,,,,,,,,,,,,,9_10,001,2021_Feb_24_1129,ComputerHuman,2020.1.3,59.76879041132983,
Sychronize.jpg,Number7.jpg,,Human,Human.xlsx,1,h,7,,,,,0,1,1,2,0,1,1,2,,,,,,,,,,,,,,,,,,,,,,,,,,,,,,,,,,,,,,,,,,,,,,,,,,,,,,,,,,,,,1043.8825867999994,None,1043.8825867999994,None,1044.3626734,None,1044.3626734,None,"['t', 'v']","[6.336962700001095, 7.601590800000849]",1044.3626734,None,7.601590800000849,6.336962700001095,7,False,False,False,1054.4691255999996,None,1054.4691255999996,None,1054.4691255999996,None,1054.4691255999996,None,1054.4691255999996,None,1054.4691255999996,None,1054.4691255999996,None,1054.4691255999996,None,1055.4839825000008,None,1055.4839825000008,None,1,h,,,,,,,,,,,,,,,,,,9_10,001,2021_Feb_24_1129,ComputerHuman,2020.1.3,59.76879041132983,
Sychronize.jpg,Number10.jpg,,Human,Human.xlsx,1,h,10,,,,,0,1,1,2,0,2,2,9,,,,,,,,,,,,,,,,,,,,,,,,,,,,,,,,,,,,,,,,,,,,,,,,,,,,,,,,,,,,,1056.508730300001,None,1056.508730300001,None,1056.9818729999997,None,1056.9818729999997,None,"['t', 'v']","[10.354191599999467, 11.28197739999996]",1056.9818729999997,None,11.28197739999996,10.354191599999467,10,False,False,False,1070.7703857999995,None,1070.7703857999995,None,1070.7703857999995,None,1070.7703857999995,None,1070.7703857999995,None,1070.7703857999995,None,1070.7703857999995,None,1070.7703857999995,None,1071.7863303000004,None,1071.7863303000004,None,1,h,,,,,,,,,,,,,,,,,,9_10,001,2021_Feb_24_1129,ComputerHuman,2020.1.3,59.76879041132983,
Sychronize.jpg,Number8.jpg,,Human,Human.xlsx,1,h,8,,,,,0,1,1,2,0,3,3,5,,,,,,,,,,,,,,,,,,,,,,,,,,,,,,,,,,,,,,,,,,,,,,,,,,,,,,,,,,,,,1072.8048577,None,1072.8048577,None,1073.2838323999995,None,1073.2838323999995,None,"['t', 'v']","[7.663307000000714, 7.968716700001096]",1073.2838323999995,None,7.968716700001096,7.663307000000714,8,False,False,False,1085.5117218000005,None,1085.5117218000005,None,1085.5117218000005,None,1085.5117218000005,None,1085.5117218000005,None,1085.5117218000005,None,1085.5117218000005,None,1085.5117218000005,None,1086.523279,None,1086.523279,None,1,h,,,,,,,,,,,,,,,,,,9_10,001,2021_Feb_24_1129,ComputerHuman,2020.1.3,59.76879041132983,
Sychronize.jpg,Number10.jpg,,Human,Human.xlsx,1,h,10,,,,,0,1,1,2,0,4,4,8,,,,,,,,,,,,,,,,,,,,,,,,,,,,,,,,,,,,,,,,,,,,,,,,,,,,,,,,,,,,,1087.5467156000004,None,1087.5467156000004,None,1088.0214628000003,None,1088.0214628000003,None,"['v', 't']","[8.506543999999849, 9.994754600000306]",1088.0214628000003,None,8.506543999999849,9.994754600000306,10,False,False,False,1100.4799954,None,1100.4799954,None,1100.4799954,None,1100.4799954,None,1100.4799954,None,1100.4799954,None,1100.4799954,None,1100.4799954,None,1101.4933658,None,1101.4933658,None,1,h,,,,,,,,,,,,,,,,,,9_10,001,2021_Feb_24_1129,ComputerHuman,2020.1.3,59.76879041132983,
Sychronize.jpg,Number7.jpg,,Human,Human.xlsx,1,h,7,,,,,0,1,1,2,0,5,5,3,,,,,,,,,,,,,,,,,,,,,,,,,,,,,,,,,,,,,,,,,,,,,,,,,,,,,,,,,,,,,1102.5177200000007,None,1102.5177200000007,None,1102.9897768,None,1102.9897768,None,"['v', 't']","[7.198825500001476, 7.207026900001438]",1102.9897768,None,7.198825500001476,7.207026900001438,7,False,False,False,1112.1751806000002,None,1112.1751806000002,None,1112.1751806000002,None,1112.1751806000002,None,1112.1751806000002,None,1112.1751806000002,None,1112.1751806000002,None,1112.1751806000002,None,1113.214561400001,None,1113.214561400001,None,1,h,,,,,,,,,,,,,,,,,,9_10,001,2021_Feb_24_1129,ComputerHuman,2020.1.3,59.76879041132983,
Sychronize.jpg,Number8.jpg,,Human,Human.xlsx,1,h,8,,,,,0,1,1,2,0,6,6,4,,,,,,,,,,,,,,,,,,,,,,,,,,,,,,,,,,,,,,,,,,,,,,,,,,,,,,,,,,,,,1114.196755,None,1114.196755,None,1114.6756118000003,None,1114.6756118000003,None,"['v', 't']","[7.657075899998745, 7.815061499999501]",1114.6756118000003,None,7.657075899998745,7.815061499999501,8,False,False,False,1124.8843317,None,1124.8843317,None,1124.8843317,None,1124.8843317,None,1124.8843317,None,1124.8843317,None,1124.8843317,None,1124.8843317,None,1125.8973244,None,1125.8973244,None,1,h,,,,,,,,,,,,,,,,,,9_10,001,2021_Feb_24_1129,ComputerHuman,2020.1.3,59.76879041132983,
Sychronize.jpg,Number6.jpg,,Human,Human.xlsx,1,h,6,,,,,0,1,1,2,0,7,7,0,,,,,,,,,,,,,,,,,,,,,,,,,,,,,,,,,,,,,,,,,,,,,,,,,,,,,,,,,,,,,1126.9166814999999,None,1126.9166814999999,None,1127.396150900001,None,1127.396150900001,None,"['t', 'v']","[5.714905500000896, 6.3040456000017]",1127.396150900001,None,6.3040456000017,5.714905500000896,6,False,False,False,1136.6476367000005,None,1136.6476367000005,None,1136.6476367000005,None,1136.6476367000005,None,1136.6476367000005,None,1136.6476367000005,None,1136.6476367000005,None,1136.6476367000005,None,1137.6670915999994,None,1137.6670915999994,None,1,h,,,,,,,,,,,,,,,,,,9_10,001,2021_Feb_24_1129,ComputerHuman,2020.1.3,59.76879041132983,
Sychronize.jpg,Number9.jpg,,Human,Human.xlsx,1,h,9,,,,,0,1,1,2,0,8,8,6,,,,,,,,,,,,,,,,,,,,,,,,,,,,,,,,,,,,,,,,,,,,,,,,,,,,,,,,,,,,,1138.6908505000001,None,1138.6908505000001,None,1139.1655734999995,None,1139.1655734999995,None,"['v', 't']","[8.514193599999999, 8.734902199999851]",1139.1655734999995,None,8.514193599999999,8.734902199999851,9,False,False,False,1149.9878051999995,None,1149.9878051999995,None,1149.9878051999995,None,1149.9878051999995,None,1149.9878051999995,None,1149.9878051999995,None,1149.9878051999995,None,1149.9878051999995,None,1151.0255148999995,None,1151.0255148999995,None,1,h,,,,,,,,,,,,,,,,,,9_10,001,2021_Feb_24_1129,ComputerHuman,2020.1.3,59.76879041132983,
Sychronize.jpg,Number9.jpg,,Human,Human.xlsx,1,h,9,,,,,0,1,1,2,0,9,9,7,,,,,,,,,,,,,,,,,,,,,,,,,,,,,,,,,,,,,,,,,,,,,,,,,,,,,,,,,,,,,1152.0215667000002,None,1152.0215667000002,None,1152.5262389999998,None,1152.5262389999998,None,"['v', 't']","[8.80043459999979, 8.901096899999175]",1152.5262389999998,None,8.80043459999979,8.901096899999175,9,False,False,False,1163.1246894999995,None,1163.1246894999995,None,1163.1246894999995,None,1163.1246894999995,None,1163.1246894999995,None,1163.1246894999995,None,1163.1246894999995,None,1163.1246894999995,None,1164.1582943000003,None,1164.1582943000003,None,1,h,,,,,,,,,,,,,,,,,,9_10,001,2021_Feb_24_1129,ComputerHuman,2020.1.3,59.76879041132983,
,,,,Human.xlsx,1,h,,,,,,0,1,1,2,,,,,,,,,,,,,,,,,,,,,,,,,,,,,,,,,,,,,,,,,,,,,,,,,,,,,,,,,,,,,,,,,,,,,,,,,,,,,,,,,,,,,,,,,,,,,,,,,,,,,,,1,h,1165.1376066000003,None,h,1,3.7018870000010793,1166.1342312999996,None,1169.8919493000003,None,None,None,None,None,None,,,,9_10,001,2021_Feb_24_1129,ComputerHuman,2020.1.3,59.76879041132983,
Sychronize.jpg,Number9.jpg,,Human,Human.xlsx,2,h,9,,,,,0,2,2,6,0,0,0,7,,,,,,,,,,,,,,,,,,,,,,,,,,,,,,,,,,,,,,,,,,,,,,,,,,,,,,,,,1174.9100874000005,None,1174.9100874000005,None,1177.9268051000008,None,1177.9268051000008,None,1178.4080516000004,None,1178.4080516000004,None,"['v', 't']","[8.608114900000146, 9.116230300000097]",1178.4080516000004,None,8.608114900000146,9.116230300000097,9,False,False,False,1189.2583466000006,None,1189.2583466000006,None,1189.2583466000006,None,1189.2583466000006,None,1189.2583466000006,None,1189.2583466000006,None,1189.2583466000006,None,1189.2583466000006,None,1190.2766022000005,None,1190.2766022000005,None,2,h,,,,,,,,,,,,,,,,,,9_10,001,2021_Feb_24_1129,ComputerHuman,2020.1.3,59.76879041132983,
Sychronize.jpg,Number6.jpg,,Human,Human.xlsx,2,h,6,,,,,0,2,2,6,0,1,1,0,,,,,,,,,,,,,,,,,,,,,,,,,,,,,,,,,,,,,,,,,,,,,,,,,,,,,,,,,,,,,1191.3068750000011,None,1191.3068750000011,None,1191.7758091000005,None,1191.7758091000005,None,"['v', 't']","[6.068505400000504, 6.236156900000424]",1191.7758091000005,None,6.068505400000504,6.236156900000424,6,False,False,False,1199.9374603999995,None,1199.9374603999995,None,1199.9374603999995,None,1199.9374603999995,None,1199.9374603999995,None,1199.9374603999995,None,1199.9374603999995,None,1199.9374603999995,None,1200.946245600001,None,1200.946245600001,None,2,h,,,,,,,,,,,,,,,,,,9_10,001,2021_Feb_24_1129,ComputerHuman,2020.1.3,59.76879041132983,
Sychronize.jpg,Number10.jpg,,Human,Human.xlsx,2,h,10,,,,,0,2,2,6,0,2,2,9,,,,,,,,,,,,,,,,,,,,,,,,,,,,,,,,,,,,,,,,,,,,,,,,,,,,,,,,,,,,,1201.9695593999995,None,1201.9695593999995,None,1202.4452924000007,None,1202.4452924000007,None,"['v', 't']","[9.471071299998584, 10.554692099998647]",1202.4452924000007,None,9.471071299998584,10.554692099998647,10,False,False,False,1214.9963660000003,None,1214.9963660000003,None,1214.9963660000003,None,1214.9963660000003,None,1214.9963660000003,None,1214.9963660000003,None,1214.9963660000003,None,1214.9963660000003,None,1216.0161435,None,1216.0161435,None,2,h,,,,,,,,,,,,,,,,,,9_10,001,2021_Feb_24_1129,ComputerHuman,2020.1.3,59.76879041132983,
Sychronize.jpg,Number7.jpg,,Human,Human.xlsx,2,h,7,,,,,0,2,2,6,0,3,3,2,,,,,,,,,,,,,,,,,,,,,,,,,,,,,,,,,,,,,,,,,,,,,,,,,,,,,,,,,,,,,1217.017935500001,None,1217.017935500001,None,1217.4981825000004,None,1217.4981825000004,None,"['t', 'v']","[7.034069100000124, 7.122394699999859]",1217.4981825000004,None,7.122394699999859,7.034069100000124,7,False,False,False,1229.1541291000003,None,1229.1541291000003,None,1229.1541291000003,None,1229.1541291000003,None,1229.1541291000003,None,1229.1541291000003,None,1229.1541291000003,None,1229.1541291000003,None,1230.1898284999997,None,1230.1898284999997,None,2,h,,,,,,,,,,,,,,,,,,9_10,001,2021_Feb_24_1129,ComputerHuman,2020.1.3,59.76879041132983,
Sychronize.jpg,Number7.jpg,,Human,Human.xlsx,2,h,7,,,,,0,2,2,6,0,4,4,3,,,,,,,,,,,,,,,,,,,,,,,,,,,,,,,,,,,,,,,,,,,,,,,,,,,,,,,,,,,,,1231.1900338000005,None,1231.1900338000005,None,1231.6660456,None,1231.6660456,None,"['v', 't']","[6.61369840000043, 7.038192199999685]",1231.6660456,None,6.61369840000043,7.038192199999685,7,False,False,False,1240.3544993999994,None,1240.3544993999994,None,1240.3544993999994,None,1240.3544993999994,None,1240.3544993999994,None,1240.3544993999994,None,1240.3544993999994,None,1240.3544993999994,None,1241.3718147999998,None,1241.3718147999998,None,2,h,,,,,,,,,,,,,,,,,,9_10,001,2021_Feb_24_1129,ComputerHuman,2020.1.3,59.76879041132983,
Sychronize.jpg,Number6.jpg,,Human,Human.xlsx,2,h,6,,,,,0,2,2,6,0,5,5,1,,,,,,,,,,,,,,,,,,,,,,,,,,,,,,,,,,,,,,,,,,,,,,,,,,,,,,,,,,,,,1242.3893742999999,None,1242.3893742999999,None,1242.8697834999994,None,1242.8697834999994,None,"['v', 't']","[6.19053299999905, 6.374436699999933]",1242.8697834999994,None,6.19053299999905,6.374436699999933,6,False,False,False,1251.4250585,None,1251.4250585,None,1251.4250585,None,1251.4250585,None,1251.4250585,None,1251.4250585,None,1251.4250585,None,1251.4250585,None,1252.4402187999995,None,1252.4402187999995,None,2,h,,,,,,,,,,,,,,,,,,9_10,001,2021_Feb_24_1129,ComputerHuman,2020.1.3,59.76879041132983,
Sychronize.jpg,Number8.jpg,,Human,Human.xlsx,2,h,8,,,,,0,2,2,6,0,6,6,5,,,,,,,,,,,,,,,,,,,,,,,,,,,,,,,,,,,,,,,,,,,,,,,,,,,,,,,,,,,,,1253.4587620000011,None,1253.4587620000011,None,1253.938991,None,1253.938991,None,"['t', 'v']","[7.609058699999878, 7.953372200001468]",1253.938991,None,7.953372200001468,7.609058699999878,8,False,False,False,1265.7742852000001,None,1265.7742852000001,None,1265.7742852000001,None,1265.7742852000001,None,1265.7742852000001,None,1265.7742852000001,None,1265.7742852000001,None,1265.7742852000001,None,1266.776472800001,None,1266.776472800001,None,2,h,,,,,,,,,,,,,,,,,,9_10,001,2021_Feb_24_1129,ComputerHuman,2020.1.3,59.76879041132983,
Sychronize.jpg,Number8.jpg,,Human,Human.xlsx,2,h,8,,,,,0,2,2,6,0,7,7,4,,,,,,,,,,,,,,,,,,,,,,,,,,,,,,,,,,,,,,,,,,,,,,,,,,,,,,,,,,,,,1267.7981541,None,1267.7981541,None,1268.2747814999993,None,1268.2747814999993,None,"['v', 't']","[7.6614818000016385, 7.909581500000058]",1268.2747814999993,None,7.6614818000016385,7.909581500000058,8,False,False,False,1278.2628078000007,None,1278.2628078000007,None,1278.2628078000007,None,1278.2628078000007,None,1278.2628078000007,None,1278.2628078000007,None,1278.2628078000007,None,1278.2628078000007,None,1279.2972304000004,None,1279.2972304000004,None,2,h,,,,,,,,,,,,,,,,,,9_10,001,2021_Feb_24_1129,ComputerHuman,2020.1.3,59.76879041132983,
Sychronize.jpg,Number10.jpg,,Human,Human.xlsx,2,h,10,,,,,0,2,2,6,0,8,8,8,,,,,,,,,,,,,,,,,,,,,,,,,,,,,,,,,,,,,,,,,,,,,,,,,,,,,,,,,,,,,1280.3041877999995,None,1280.3041877999995,None,1280.7773404000009,None,1280.7773404000009,None,"['v', 't']","[9.55464639999991, 10.379467200000363]",1280.7773404000009,None,9.55464639999991,10.379467200000363,10,False,False,False,1293.5647149999995,None,1293.5647149999995,None,1293.5647149999995,None,1293.5647149999995,None,1293.5647149999995,None,1293.5647149999995,None,1293.5647149999995,None,1293.5647149999995,None,1294.5657944000004,None,1294.5657944000004,None,2,h,,,,,,,,,,,,,,,,,,9_10,001,2021_Feb_24_1129,ComputerHuman,2020.1.3,59.76879041132983,
Sychronize.jpg,Number9.jpg,,Human,Human.xlsx,2,h,9,,,,,0,2,2,6,0,9,9,6,,,,,,,,,,,,,,,,,,,,,,,,,,,,,,,,,,,,,,,,,,,,,,,,,,,,,,,,,,,,,1295.588643600001,None,1295.588643600001,None,1296.0637202000007,None,1296.0637202000007,None,"['t', 'v']","[8.784432200000083, 9.096702599999844]",1296.0637202000007,None,9.096702599999844,8.784432200000083,9,False,False,False,1309.1581374000007,None,1309.1581374000007,None,1309.1581374000007,None,1309.1581374000007,None,1309.1581374000007,None,1309.1581374000007,None,1309.1581374000007,None,1309.1581374000007,None,1310.1674639000003,None,1310.1674639000003,None,2,h,,,,,,,,,,,,,,,,,,9_10,001,2021_Feb_24_1129,ComputerHuman,2020.1.3,59.76879041132983,
,,,,Human.xlsx,2,h,,,,,,0,2,2,6,,,,,,,,,,,,,,,,,,,,,,,,,,,,,,,,,,,,,,,,,,,,,,,,,,,,,,,,,,,,,,,,,,,,,,,,,,,,,,,,,,,,,,,,,,,,,,,,,,,,,,,2,h,1311.167070800001,None,h,1,6.63260210000044,1312.163323400001,None,1318.822174,None,None,None,None,None,None,,,,9_10,001,2021_Feb_24_1129,ComputerHuman,2020.1.3,59.76879041132983,
Sychronize.jpg,Number6.jpg,,Computer,Computer.xlsx,1,c,6,,,,,0,3,3,3,0,0,0,1,,,,,,,,,,,,,,,,,,,,,,,,,,,,,,,,,,,,,,,,,,,,,,,,,,,,,,,,,1323.8384854000005,None,1323.8384854000005,None,1326.8901106000003,None,1326.8901106000003,None,1327.3535868999998,None,1327.3535868999998,None,"['v', 't']","[5.766336100001354, 5.854684800000541]",1327.3535868999998,None,5.766336100001354,5.854684800000541,6,False,False,False,1335.0803568000001,None,1335.0803568000001,None,1335.0803568000001,None,1335.0803568000001,None,1335.0803568000001,None,1335.0803568000001,None,1335.0803568000001,None,1335.0803568000001,None,1336.1108453999996,None,1336.1108453999996,None,1,c,,,,,,,,,,,,,,,,,,9_10,001,2021_Feb_24_1129,ComputerHuman,2020.1.3,59.76879041132983,
Sychronize.jpg,Number8.jpg,,Computer,Computer.xlsx,1,c,8,,,,,0,3,3,3,0,1,1,5,,,,,,,,,,,,,,,,,,,,,,,,,,,,,,,,,,,,,,,,,,,,,,,,,,,,,,,,,,,,,1337.1194755999995,None,1337.1194755999995,None,1337.5891428000004,None,1337.5891428000004,None,"['v', 't']","[7.685248800000409, 8.674768200000472]",1337.5891428000004,None,7.685248800000409,8.674768200000472,8,False,False,False,1347.810791500001,None,1347.810791500001,None,1347.810791500001,None,1347.810791500001,None,1347.810791500001,None,1347.810791500001,None,1347.810791500001,None,1347.810791500001,None,1348.8255106999995,None,1348.8255106999995,None,1,c,,,,,,,,,,,,,,,,,,9_10,001,2021_Feb_24_1129,ComputerHuman,2020.1.3,59.76879041132983,
Sychronize.jpg,Number7.jpg,,Computer,Computer.xlsx,1,c,7,,,,,0,3,3,3,0,2,2,3,,,,,,,,,,,,,,,,,,,,,,,,,,,,,,,,,,,,,,,,,,,,,,,,,,,,,,,,,,,,,1349.8547260000005,None,1349.8547260000005,None,1350.3247922,None,1350.3247922,None,"['v', 't']","[7.427304600001662, 7.471356800000649]",1350.3247922,None,7.427304600001662,7.471356800000649,7,False,False,False,1359.4843802999994,None,1359.4843802999994,None,1359.4843802999994,None,1359.4843802999994,None,1359.4843802999994,None,1359.4843802999994,None,1359.4843802999994,None,1359.4843802999994,None,1360.4946114999993,None,1360.4946114999993,None,1,c,,,,,,,,,,,,,,,,,,9_10,001,2021_Feb_24_1129,ComputerHuman,2020.1.3,59.76879041132983,
Sychronize.jpg,Number7.jpg,,Computer,Computer.xlsx,1,c,7,,,,,0,3,3,3,0,3,3,2,,,,,,,,,,,,,,,,,,,,,,,,,,,,,,,,,,,,,,,,,,,,,,,,,,,,,,,,,,,,,1361.5134024999998,None,1361.5134024999998,None,1362.0142504000005,None,1362.0142504000005,None,"['t', 'v']","[6.993532000000414, 7.013939799999207]",1362.0142504000005,None,7.013939799999207,6.993532000000414,7,False,False,False,1373.1788274,None,1373.1788274,None,1373.1788274,None,1373.1788274,None,1373.1788274,None,1373.1788274,None,1373.1788274,None,1373.1788274,None,1374.2155312000004,None,1374.2155312000004,None,1,c,,,,,,,,,,,,,,,,,,9_10,001,2021_Feb_24_1129,ComputerHuman,2020.1.3,59.76879041132983,
Sychronize.jpg,Number8.jpg,,Computer,Computer.xlsx,1,c,8,,,,,0,3,3,3,0,4,4,4,,,,,,,,,,,,,,,,,,,,,,,,,,,,,,,,,,,,,,,,,,,,,,,,,,,,,,,,,,,,,1375.2196279999998,None,1375.2196279999998,None,1375.6961256000004,None,1375.6961256000004,None,"['v', 't']","[8.079889799999364, 9.1559871999998]",1375.6961256000004,None,8.079889799999364,9.1559871999998,8,False,False,False,1386.5355577,None,1386.5355577,None,1386.5355577,None,1386.5355577,None,1386.5355577,None,1386.5355577,None,1386.5355577,None,1386.5355577,None,1387.5510645999993,None,1387.5510645999993,None,1,c,,,,,,,,,,,,,,,,,,9_10,001,2021_Feb_24_1129,ComputerHuman,2020.1.3,59.76879041132983,
Sychronize.jpg,Number10.jpg,,Computer,Computer.xlsx,1,c,10,,,,,0,3,3,3,0,5,5,8,,,,,,,,,,,,,,,,,,,,,,,,,,,,,,,,,,,,,,,,,,,,,,,,,,,,,,,,,,,,,1388.5695053000009,None,1388.5695053000009,None,1389.068357700001,None,1389.068357700001,None,"['v', 't']","[9.023725199998808, 11.083651799999643]",1389.068357700001,None,9.023725199998808,11.083651799999643,10,False,False,False,1402.3502787000007,None,1402.3502787000007,None,1402.3502787000007,None,1402.3502787000007,None,1402.3502787000007,None,1402.3502787000007,None,1402.3502787000007,None,1402.3502787000007,None,1403.3695056000006,None,1403.3695056000006,None,1,c,,,,,,,,,,,,,,,,,,9_10,001,2021_Feb_24_1129,ComputerHuman,2020.1.3,59.76879041132983,
Sychronize.jpg,Number9.jpg,,Computer,Computer.xlsx,1,c,9,,,,,0,3,3,3,0,6,6,7,,,,,,,,,,,,,,,,,,,,,,,,,,,,,,,,,,,,,,,,,,,,,,,,,,,,,,,,,,,,,1404.3788761000005,None,1404.3788761000005,None,1404.8691448,None,1404.8691448,None,"['v', 't']","[9.41498749999846, 10.178652699998565]",1404.8691448,None,9.41498749999846,10.178652699998565,9,False,False,False,1417.3283411000002,None,1417.3283411000002,None,1417.3283411000002,None,1417.3283411000002,None,1417.3283411000002,None,1417.3283411000002,None,1417.3283411000002,None,1417.3283411000002,None,1418.3395112999997,None,1418.3395112999997,None,1,c,,,,,,,,,,,,,,,,,,9_10,001,2021_Feb_24_1129,ComputerHuman,2020.1.3,59.76879041132983,
Sychronize.jpg,Number9.jpg,,Computer,Computer.xlsx,1,c,9,,,,,0,3,3,3,0,7,7,6,,,,,,,,,,,,,,,,,,,,,,,,,,,,,,,,,,,,,,,,,,,,,,,,,,,,,,,,,,,,,1419.3592366000003,None,1419.3592366000003,None,1419.8387687000004,None,1419.8387687000004,None,"['v', 't']","[9.397497699999803, 9.684928700000455]",1419.8387687000004,None,9.397497699999803,9.684928700000455,9,False,False,False,1432.0102866999996,None,1432.0102866999996,None,1432.0102866999996,None,1432.0102866999996,None,1432.0102866999996,None,1432.0102866999996,None,1432.0102866999996,None,1432.0102866999996,None,1433.0271788,None,1433.0271788,None,1,c,,,,,,,,,,,,,,,,,,9_10,001,2021_Feb_24_1129,ComputerHuman,2020.1.3,59.76879041132983,
Sychronize.jpg,Number6.jpg,,Computer,Computer.xlsx,1,c,6,,,,,0,3,3,3,0,8,8,0,,,,,,,,,,,,,,,,,,,,,,,,,,,,,,,,,,,,,,,,,,,,,,,,,,,,,,,,,,,,,1434.0562342000003,None,1434.0562342000003,None,1434.5427532000003,None,1434.5427532000003,None,"['t', 'v']","[5.777202999999645, 6.14519029999974]",1434.5427532000003,None,6.14519029999974,5.777202999999645,6,False,False,False,1444.5097935000003,None,1444.5097935000003,None,1444.5097935000003,None,1444.5097935000003,None,1444.5097935000003,None,1444.5097935000003,None,1444.5097935000003,None,1444.5097935000003,None,1445.5490203,None,1445.5490203,None,1,c,,,,,,,,,,,,,,,,,,9_10,001,2021_Feb_24_1129,ComputerHuman,2020.1.3,59.76879041132983,
Sychronize.jpg,Number10.jpg,,Computer,Computer.xlsx,1,c,10,,,,,0,3,3,3,0,9,9,9,,,,,,,,,,,,,,,,,,,,,,,,,,,,,,,,,,,,,,,,,,,,,,,,,,,,,,,,,,,,,1446.547273000001,None,1446.547273000001,None,1447.0276425000002,None,1447.0276425000002,None,"['t', 'v']","[9.036335099999633, 9.064404400000058]",1447.0276425000002,None,9.064404400000058,9.036335099999633,10,False,False,False,1459.9866498000001,None,1459.9866498000001,None,1459.9866498000001,None,1459.9866498000001,None,1459.9866498000001,None,1459.9866498000001,None,1459.9866498000001,None,1459.9866498000001,None,1460.9997149,None,1460.9997149,None,1,c,,,,,,,,,,,,,,,,,,9_10,001,2021_Feb_24_1129,ComputerHuman,2020.1.3,59.76879041132983,
,,,,Computer.xlsx,1,c,,,,,,0,3,3,3,,,,,,,,,,,,,,,,,,,,,,,,,,,,,,,,,,,,,,,,,,,,,,,,,,,,,,,,,,,,,,,,,,,,,,,,,,,,,,,,,,,,,,,,,,,,,,,,,,,,,,,1,c,1461.9980189999997,None,c,1,2.805798199999117,1462.994206800001,None,None,None,1465.8418618999995,None,"['space', 'space']",1466.8281718999997,None,"[4.811846800001149, 6.362090700000408]",,,9_10,001,2021_Feb_24_1129,ComputerHuman,2020.1.3,59.76879041132983,
Sychronize.jpg,Number6.jpg,,Human,Human.xlsx,1,h,6,,,,,0,4,4,0,0,0,0,0,,,,,,,,,,,,,,,,,,,,,,,,,,,,,,,,,,,,,,,,,,,,,,,,,,,,,,,,,1473.2373109999999,None,1473.2373109999999,None,1476.2704757000001,None,1476.2704757000001,None,1476.7351062000007,None,1476.7351062000007,None,"['t', 'v']","[5.448431700000583, 6.244760100000349]",1476.7351062000007,None,6.244760100000349,5.448431700000583,6,False,False,False,1486.1784010000001,None,1486.1784010000001,None,1486.1784010000001,None,1486.1784010000001,None,1486.1784010000001,None,1486.1784010000001,None,1486.1784010000001,None,1486.1784010000001,None,1487.1867802999996,None,1487.1867802999996,None,1,h,,,,,,,,,,,,,,,,,,9_10,001,2021_Feb_24_1129,ComputerHuman,2020.1.3,59.76879041132983,
Sychronize.jpg,Number8.jpg,,Human,Human.xlsx,1,h,8,,,,,0,4,4,0,0,1,1,4,,,,,,,,,,,,,,,,,,,,,,,,,,,,,,,,,,,,,,,,,,,,,,,,,,,,,,,,,,,,,1488.2108799999996,None,1488.2108799999996,None,1488.684621200001,None,1488.684621200001,None,"['t', 'v']","[7.398123700000724, 8.033901000000697]",1488.684621200001,None,8.033901000000697,7.398123700000724,8,False,False,False,1499.9328367000007,None,1499.9328367000007,None,1499.9328367000007,None,1499.9328367000007,None,1499.9328367000007,None,1499.9328367000007,None,1499.9328367000007,None,1499.9328367000007,None,1500.940587,None,1500.940587,None,1,h,,,,,,,,,,,,,,,,,,9_10,001,2021_Feb_24_1129,ComputerHuman,2020.1.3,59.76879041132983,
Sychronize.jpg,Number8.jpg,,Human,Human.xlsx,1,h,8,,,,,0,4,4,0,0,2,2,5,,,,,,,,,,,,,,,,,,,,,,,,,,,,,,,,,,,,,,,,,,,,,,,,,,,,,,,,,,,,,1501.9606007000011,None,1501.9606007000011,None,1502.4601838999997,None,1502.4601838999997,None,"['t', 'v']","[7.671340599999894, 8.335667400000602]",1502.4601838999997,None,8.335667400000602,7.671340599999894,8,False,False,False,1514.0773514000002,None,1514.0773514000002,None,1514.0773514000002,None,1514.0773514000002,None,1514.0773514000002,None,1514.0773514000002,None,1514.0773514000002,None,1514.0773514000002,None,1515.0941587999996,None,1515.0941587999996,None,1,h,,,,,,,,,,,,,,,,,,9_10,001,2021_Feb_24_1129,ComputerHuman,2020.1.3,59.76879041132983,
Sychronize.jpg,Number7.jpg,,Human,Human.xlsx,1,h,7,,,,,0,4,4,0,0,3,3,3,,,,,,,,,,,,,,,,,,,,,,,,,,,,,,,,,,,,,,,,,,,,,,,,,,,,,,,,,,,,,1516.1118649999999,None,1516.1118649999999,None,1516.5913876000004,None,1516.5913876000004,None,"['v', 't']","[6.504503000000113, 6.844375700000455]",1516.5913876000004,None,6.504503000000113,6.844375700000455,7,False,False,False,1525.1085697000008,None,1525.1085697000008,None,1525.1085697000008,None,1525.1085697000008,None,1525.1085697000008,None,1525.1085697000008,None,1525.1085697000008,None,1525.1085697000008,None,1526.1278656999993,None,1526.1278656999993,None,1,h,,,,,,,,,,,,,,,,,,9_10,001,2021_Feb_24_1129,ComputerHuman,2020.1.3,59.76879041132983,
Sychronize.jpg,Number9.jpg,,Human,Human.xlsx,1,h,9,,,,,0,4,4,0,0,4,4,7,,,,,,,,,,,,,,,,,,,,,,,,,,,,,,,,,,,,,,,,,,,,,,,,,,,,,,,,,,,,,1527.1357381000007,None,1527.1357381000007,None,1527.6257808,None,1527.6257808,None,"['t', 'v']","[8.222258599998895, 9.274132700000337]",1527.6257808,None,9.274132700000337,8.222258599998895,9,False,False,False,1539.2779639999999,None,1539.2779639999999,None,1539.2779639999999,None,1539.2779639999999,None,1539.2779639999999,None,1539.2779639999999,None,1539.2779639999999,None,1539.2779639999999,None,1540.2808926999996,None,1540.2808926999996,None,1,h,,,,,,,,,,,,,,,,,,9_10,001,2021_Feb_24_1129,ComputerHuman,2020.1.3,59.76879041132983,
Sychronize.jpg,Number7.jpg,,Human,Human.xlsx,1,h,7,,,,,0,4,4,0,0,5,5,2,,,,,,,,,,,,,,,,,,,,,,,,,,,,,,,,,,,,,,,,,,,,,,,,,,,,,,,,,,,,,1541.3044450000007,None,1541.3044450000007,None,1541.7800744999995,None,1541.7800744999995,None,"['v', 't']","[6.639896599999702, 8.211614499999996]",1541.7800744999995,None,6.639896599999702,8.211614499999996,7,False,False,False,1551.5882355000003,None,1551.5882355000003,None,1551.5882355000003,None,1551.5882355000003,None,1551.5882355000003,None,1551.5882355000003,None,1551.5882355000003,None,1551.5882355000003,None,1552.5830859999996,None,1552.5830859999996,None,1,h,,,,,,,,,,,,,,,,,,9_10,001,2021_Feb_24_1129,ComputerHuman,2020.1.3,59.76879041132983,
Sychronize.jpg,Number6.jpg,,Human,Human.xlsx,1,h,6,,,,,0,4,4,0,0,6,6,1,,,,,,,,,,,,,,,,,,,,,,,,,,,,,,,,,,,,,,,,,,,,,,,,,,,,,,,,,,,,,1553.6022953000002,None,1553.6022953000002,None,1554.0826437999995,None,1554.0826437999995,None,"['t', 'v']","[6.001252699999895, 6.5094241999995575]",1554.0826437999995,None,6.5094241999995575,6.001252699999895,6,False,False,False,1564.583133000001,None,1564.583133000001,None,1564.583133000001,None,1564.583133000001,None,1564.583133000001,None,1564.583133000001,None,1564.583133000001,None,1564.583133000001,None,1565.6023871000007,None,1565.6023871000007,None,1,h,,,,,,,,,,,,,,,,,,9_10,001,2021_Feb_24_1129,ComputerHuman,2020.1.3,59.76879041132983,
Sychronize.jpg,Number10.jpg,,Human,Human.xlsx,1,h,10,,,,,0,4,4,0,0,7,7,9,,,,,,,,,,,,,,,,,,,,,,,,,,,,,,,,,,,,,,,,,,,,,,,,,,,,,,,,,,,,,1566.6285440000001,None,1566.6285440000001,None,1567.1018212000008,None,1567.1018212000008,None,"['v', 't']","[10.222869799999899, 10.353811300001325]",1567.1018212000008,None,10.222869799999899,10.353811300001325,10,False,False,False,1579.5378823,None,1579.5378823,None,1579.5378823,None,1579.5378823,None,1579.5378823,None,1579.5378823,None,1579.5378823,None,1579.5378823,None,1580.5779893000008,None,1580.5779893000008,None,1,h,,,,,,,,,,,,,,,,,,9_10,001,2021_Feb_24_1129,ComputerHuman,2020.1.3,59.76879041132983,
Sychronize.jpg,Number9.jpg,,Human,Human.xlsx,1,h,9,,,,,0,4,4,0,0,8,8,6,,,,,,,,,,,,,,,,,,,,,,,,,,,,,,,,,,,,,,,,,,,,,,,,,,,,,,,,,,,,,1581.5818270000009,None,1581.5818270000009,None,1582.0547975,None,1582.0547975,None,"['v', 't']","[9.040905900001235, 9.828870400000596]",1582.0547975,None,9.040905900001235,9.828870400000596,9,False,False,False,1593.7939797999998,None,1593.7939797999998,None,1593.7939797999998,None,1593.7939797999998,None,1593.7939797999998,None,1593.7939797999998,None,1593.7939797999998,None,1593.7939797999998,None,1594.8094797000003,None,1594.8094797000003,None,1,h,,,,,,,,,,,,,,,,,,9_10,001,2021_Feb_24_1129,ComputerHuman,2020.1.3,59.76879041132983,
Sychronize.jpg,Number10.jpg,,Human,Human.xlsx,1,h,10,,,,,0,4,4,0,0,9,9,8,,,,,,,,,,,,,,,,,,,,,,,,,,,,,,,,,,,,,,,,,,,,,,,,,,,,,,,,,,,,,1595.8279592000008,None,1595.8279592000008,None,1596.307493700001,None,1596.307493700001,None,"['v', 't']","[9.704421000000366, 11.251908100000946]",1596.307493700001,None,9.704421000000366,11.251908100000946,10,False,False,False,1609.6803747000004,None,1609.6803747000004,None,1609.6803747000004,None,1609.6803747000004,None,1609.6803747000004,None,1609.6803747000004,None,1609.6803747000004,None,1609.6803747000004,None,1610.694875600001,None,1610.694875600001,None,1,h,,,,,,,,,,,,,,,,,,9_10,001,2021_Feb_24_1129,ComputerHuman,2020.1.3,59.76879041132983,
,,,,Human.xlsx,1,h,,,,,,0,4,4,0,,,,,,,,,,,,,,,,,,,,,,,,,,,,,,,,,,,,,,,,,,,,,,,,,,,,,,,,,,,,,,,,,,,,,,,,,,,,,,,,,,,,,,,,,,,,,,,,,,,,,,,1,h,1611.6941159000007,None,h,1,1.8525616000006266,1612.6911095999994,None,1614.5801818999998,None,None,None,None,None,None,,,,9_10,001,2021_Feb_24_1129,ComputerHuman,2020.1.3,59.76879041132983,
Sychronize.jpg,Number10.jpg,,Human,Human.xlsx,2,h,10,,,,,0,5,5,4,0,0,0,9,,,,,,,,,,,,,,,,,,,,,,,,,,,,,,,,,,,,,,,,,,,,,,,,,,,,,,,,,1619.5983912000002,None,1619.5983912000002,None,1622.6329085000007,None,1622.6329085000007,None,1623.1131978000003,None,1623.1131978000003,None,"['v', 't']","[10.06660759999977, 10.746498200000133]",1623.1131978000003,None,10.06660759999977,10.746498200000133,10,False,False,False,1636.1860208999997,None,1636.1860208999997,None,1636.1860208999997,None,1636.1860208999997,None,1636.1860208999997,None,1636.1860208999997,None,1636.1860208999997,None,1636.1860208999997,None,1637.2001563000003,None,1637.2001563000003,None,2,h,,,,,,,,,,,,,,,,,,9_10,001,2021_Feb_24_1129,ComputerHuman,2020.1.3,59.76879041132983,
Sychronize.jpg,Number8.jpg,,Human,Human.xlsx,2,h,8,,,,,0,5,5,4,0,1,1,5,,,,,,,,,,,,,,,,,,,,,,,,,,,,,,,,,,,,,,,,,,,,,,,,,,,,,,,,,,,,,1638.2189865999999,None,1638.2189865999999,None,1638.6993864999995,None,1638.6993864999995,None,"['v', 't']","[7.46822659999998, 8.338837500001318]",1638.6993864999995,None,7.46822659999998,8.338837500001318,8,False,False,False,1648.8855391000006,None,1648.8855391000006,None,1648.8855391000006,None,1648.8855391000006,None,1648.8855391000006,None,1648.8855391000006,None,1648.8855391000006,None,1648.8855391000006,None,1649.9030809999995,None,1649.9030809999995,None,2,h,,,,,,,,,,,,,,,,,,9_10,001,2021_Feb_24_1129,ComputerHuman,2020.1.3,59.76879041132983,
Sychronize.jpg,Number10.jpg,,Human,Human.xlsx,2,h,10,,,,,0,5,5,4,0,2,2,8,,,,,,,,,,,,,,,,,,,,,,,,,,,,,,,,,,,,,,,,,,,,,,,,,,,,,,,,,,,,,1650.9224765000008,None,1650.9224765000008,None,1651.4026134000005,None,1651.4026134000005,None,"['t', 'v']","[9.441243299999769, 10.456951199999821]",1651.4026134000005,None,10.456951199999821,9.441243299999769,10,False,False,False,1664.9596744,None,1664.9596744,None,1664.9596744,None,1664.9596744,None,1664.9596744,None,1664.9596744,None,1664.9596744,None,1664.9596744,None,1665.9744031,None,1665.9744031,None,2,h,,,,,,,,,,,,,,,,,,9_10,001,2021_Feb_24_1129,ComputerHuman,2020.1.3,59.76879041132983,
Sychronize.jpg,Number6.jpg,,Human,Human.xlsx,2,h,6,,,,,0,5,5,4,0,3,3,0,,,,,,,,,,,,,,,,,,,,,,,,,,,,,,,,,,,,,,,,,,,,,,,,,,,,,,,,,,,,,1666.9924027000006,None,1666.9924027000006,None,1667.4719546999995,None,1667.4719546999995,None,"['t', 'v']","[5.571408200001315, 6.479589399999895]",1667.4719546999995,None,6.479589399999895,5.571408200001315,6,False,False,False,1677.0449330000001,None,1677.0449330000001,None,1677.0449330000001,None,1677.0449330000001,None,1677.0449330000001,None,1677.0449330000001,None,1677.0449330000001,None,1677.0449330000001,None,1678.0596211000002,None,1678.0596211000002,None,2,h,,,,,,,,,,,,,,,,,,9_10,001,2021_Feb_24_1129,ComputerHuman,2020.1.3,59.76879041132983,
Sychronize.jpg,Number8.jpg,,Human,Human.xlsx,2,h,8,,,,,0,5,5,4,0,4,4,4,,,,,,,,,,,,,,,,,,,,,,,,,,,,,,,,,,,,,,,,,,,,,,,,,,,,,,,,,,,,,1679.0775543999998,None,1679.0775543999998,None,1679.5576888999994,None,1679.5576888999994,None,"['t', 'v']","[7.742053100000703, 7.82885669999996]",1679.5576888999994,None,7.82885669999996,7.742053100000703,8,False,False,False,1691.4421047000005,None,1691.4421047000005,None,1691.4421047000005,None,1691.4421047000005,None,1691.4421047000005,None,1691.4421047000005,None,1691.4421047000005,None,1691.4421047000005,None,1692.4806244000001,None,1692.4806244000001,None,2,h,,,,,,,,,,,,,,,,,,9_10,001,2021_Feb_24_1129,ComputerHuman,2020.1.3,59.76879041132983,
Sychronize.jpg,Number6.jpg,,Human,Human.xlsx,2,h,6,,,,,0,5,5,4,0,5,5,1,,,,,,,,,,,,,,,,,,,,,,,,,,,,,,,,,,,,,,,,,,,,,,,,,,,,,,,,,,,,,1693.464525100001,None,1693.464525100001,None,1693.9438519000005,None,1693.9438519000005,None,"['t', 'v']","[5.327889000000141, 6.031349700000646]",1693.9438519000005,None,6.031349700000646,5.327889000000141,6,False,False,False,1703.6851514,None,1703.6851514,None,1703.6851514,None,1703.6851514,None,1703.6851514,None,1703.6851514,None,1703.6851514,None,1703.6851514,None,1704.6969658999997,None,1704.6969658999997,None,2,h,,,,,,,,,,,,,,,,,,9_10,001,2021_Feb_24_1129,ComputerHuman,2020.1.3,59.76879041132983,
Sychronize.jpg,Number7.jpg,,Human,Human.xlsx,2,h,7,,,,,0,5,5,4,0,6,6,3,,,,,,,,,,,,,,,,,,,,,,,,,,,,,,,,,,,,,,,,,,,,,,,,,,,,,,,,,,,,,1705.7162522000008,None,1705.7162522000008,None,1706.1961944999994,None,1706.1961944999994,None,"['t', 'v']","[6.907586199999059, 7.791615099999035]",1706.1961944999994,None,7.791615099999035,6.907586199999059,7,False,False,False,1717.4650585000009,None,1717.4650585000009,None,1717.4650585000009,None,1717.4650585000009,None,1717.4650585000009,None,1717.4650585000009,None,1717.4650585000009,None,1717.4650585000009,None,1718.4678577000004,None,1718.4678577000004,None,2,h,,,,,,,,,,,,,,,,,,9_10,001,2021_Feb_24_1129,ComputerHuman,2020.1.3,59.76879041132983,
Sychronize.jpg,Number9.jpg,,Human,Human.xlsx,2,h,9,,,,,0,5,5,4,0,7,7,6,,,,,,,,,,,,,,,,,,,,,,,,,,,,,,,,,,,,,,,,,,,,,,,,,,,,,,,,,,,,,1719.4916767000004,None,1719.4916767000004,None,1719.9658064999994,None,1719.9658064999994,None,"['t', 'v']","[9.213448900000003, 9.663976300000286]",1719.9658064999994,None,9.663976300000286,9.213448900000003,9,False,False,False,1733.2173367999994,None,1733.2173367999994,None,1733.2173367999994,None,1733.2173367999994,None,1733.2173367999994,None,1733.2173367999994,None,1733.2173367999994,None,1733.2173367999994,None,1734.2378218000003,None,1734.2378218000003,None,2,h,,,,,,,,,,,,,,,,,,9_10,001,2021_Feb_24_1129,ComputerHuman,2020.1.3,59.76879041132983,
Sychronize.jpg,Number7.jpg,,Human,Human.xlsx,2,h,7,,,,,0,5,5,4,0,8,8,2,,,,,,,,,,,,,,,,,,,,,,,,,,,,,,,,,,,,,,,,,,,,,,,,,,,,,,,,,,,,,1735.2392800999996,None,1735.2392800999996,None,1735.7397472000002,None,1735.7397472000002,None,"['t', 'v']","[7.1637239000010595, 7.4237062000011065]",1735.7397472000002,None,7.4237062000011065,7.1637239000010595,7,False,False,False,1747.061978300001,None,1747.061978300001,None,1747.061978300001,None,1747.061978300001,None,1747.061978300001,None,1747.061978300001,None,1747.061978300001,None,1747.061978300001,None,1748.0953875000005,None,1748.0953875000005,None,2,h,,,,,,,,,,,,,,,,,,9_10,001,2021_Feb_24_1129,ComputerHuman,2020.1.3,59.76879041132983,
Sychronize.jpg,Number9.jpg,,Human,Human.xlsx,2,h,9,,,,,0,5,5,4,0,9,9,7,,,,,,,,,,,,,,,,,,,,,,,,,,,,,,,,,,,,,,,,,,,,,,,,,,,,,,,,,,,,,1749.0920047000009,None,1749.0920047000009,None,1749.5720895000004,None,1749.5720895000004,None,"['v', 't']","[9.171616400000858, 10.01442550000138]",1749.5720895000004,None,9.171616400000858,10.01442550000138,9,False,False,False,1762.0116647999994,None,1762.0116647999994,None,1762.0116647999994,None,1762.0116647999994,None,1762.0116647999994,None,1762.0116647999994,None,1762.0116647999994,None,1762.0116647999994,None,1763.0105704000007,None,1763.0105704000007,None,2,h,,,,,,,,,,,,,,,,,,9_10,001,2021_Feb_24_1129,ComputerHuman,2020.1.3,59.76879041132983,
,,,,Human.xlsx,2,h,,,,,,0,5,5,4,,,,,,,,,,,,,,,,,,,,,,,,,,,,,,,,,,,,,,,,,,,,,,,,,,,,,,,,,,,,,,,,,,,,,,,,,,,,,,,,,,,,,,,,,,,,,,,,,,,,,,,2,h,1764.0085513000004,None,c,0,7.490265200000067,1765.0052091999996,None,1772.5323123999997,None,None,None,None,None,None,,,,9_10,001,2021_Feb_24_1129,ComputerHuman,2020.1.3,59.76879041132983,
Sychronize.jpg,Number6.jpg,,Computer,Computer.xlsx,2,c,6,,,,,0,6,6,5,0,0,0,0,,,,,,,,,,,,,,,,,,,,,,,,,,,,,,,,,,,,,,,,,,,,,,,,,,,,,,,,,1777.5464729999994,None,1777.5464729999994,None,1780.580997600001,None,1780.580997600001,None,1781.0632553000005,None,1781.0632553000005,None,"['t', 'v']","[5.784887800000433, 6.7115723000006255]",1781.0632553000005,None,6.7115723000006255,5.784887800000433,6,False,False,False,1791.3248785999995,None,1791.3248785999995,None,1791.3248785999995,None,1791.3248785999995,None,1791.3248785999995,None,1791.3248785999995,None,1791.3248785999995,None,1791.3248785999995,None,1792.3514755000006,None,1792.3514755000006,None,2,c,,,,,,,,,,,,,,,,,,9_10,001,2021_Feb_24_1129,ComputerHuman,2020.1.3,59.76879041132983,
Sychronize.jpg,Number9.jpg,,Computer,Computer.xlsx,2,c,9,,,,,0,6,6,5,0,1,1,6,,,,,,,,,,,,,,,,,,,,,,,,,,,,,,,,,,,,,,,,,,,,,,,,,,,,,,,,,,,,,1793.3512230000006,None,1793.3512230000006,None,1793.8310683000009,None,1793.8310683000009,None,"['t', 'v']","[8.82022009999855, 9.380017299999963]",1793.8310683000009,None,9.380017299999963,8.82022009999855,9,False,False,False,1806.7156679999998,None,1806.7156679999998,None,1806.7156679999998,None,1806.7156679999998,None,1806.7156679999998,None,1806.7156679999998,None,1806.7156679999998,None,1806.7156679999998,None,1807.736483400001,None,1807.736483400001,None,2,c,,,,,,,,,,,,,,,,,,9_10,001,2021_Feb_24_1129,ComputerHuman,2020.1.3,59.76879041132983,
Sychronize.jpg,Number8.jpg,,Computer,Computer.xlsx,2,c,8,,,,,0,6,6,5,0,2,2,5,,,,,,,,,,,,,,,,,,,,,,,,,,,,,,,,,,,,,,,,,,,,,,,,,,,,,,,,,,,,,1808.760948600001,None,1808.760948600001,None,1809.2338124000007,None,1809.2338124000007,None,"['v', 't']","[7.9098409000016545, 8.053774700001668]",1809.2338124000007,None,7.9098409000016545,8.053774700001668,8,False,False,False,1819.668599900001,None,1819.668599900001,None,1819.668599900001,None,1819.668599900001,None,1819.668599900001,None,1819.668599900001,None,1819.668599900001,None,1819.668599900001,None,1820.711214,None,1820.711214,None,2,c,,,,,,,,,,,,,,,,,,9_10,001,2021_Feb_24_1129,ComputerHuman,2020.1.3,59.76879041132983,
Sychronize.jpg,Number6.jpg,,Computer,Computer.xlsx,2,c,6,,,,,0,6,6,5,0,3,3,1,,,,,,,,,,,,,,,,,,,,,,,,,,,,,,,,,,,,,,,,,,,,,,,,,,,,,,,,,,,,,1821.707260100001,None,1821.707260100001,None,1822.1865329000002,None,1822.1865329000002,None,['v'],[5.8408945000010135],1822.1865329000002,None,5.8408945000010135,13,6,False,False,False,1835.2214474000002,None,1835.2214474000002,None,1835.2214474000002,None,1835.2214474000002,None,1835.2214474000002,None,1835.2214474000002,None,1835.2214474000002,None,1835.2214474000002,None,1836.2235702999997,None,1836.2235702999997,None,2,c,,,,,,,,,,,,,,,,,,9_10,001,2021_Feb_24_1129,ComputerHuman,2020.1.3,59.76879041132983,
Sychronize.jpg,Number9.jpg,,Computer,Computer.xlsx,2,c,9,,,,,0,6,6,5,0,4,4,7,,,,,,,,,,,,,,,,,,,,,,,,,,,,,,,,,,,,,,,,,,,,,,,,,,,,,,,,,,,,,1837.2433217000007,None,1837.2433217000007,None,1837.7231851999995,None,1837.7231851999995,None,"['v', 't']","[9.732022800000777, 9.748131000000285]",1837.7231851999995,None,9.732022800000777,9.748131000000285,9,False,False,False,1849.0759905999994,None,1849.0759905999994,None,1849.0759905999994,None,1849.0759905999994,None,1849.0759905999994,None,1849.0759905999994,None,1849.0759905999994,None,1849.0759905999994,None,1850.0952320999995,None,1850.0952320999995,None,2,c,,,,,,,,,,,,,,,,,,9_10,001,2021_Feb_24_1129,ComputerHuman,2020.1.3,59.76879041132983,
Sychronize.jpg,Number7.jpg,,Computer,Computer.xlsx,2,c,7,,,,,0,6,6,5,0,5,5,2,,,,,,,,,,,,,,,,,,,,,,,,,,,,,,,,,,,,,,,,,,,,,,,,,,,,,,,,,,,,,1851.1128189,None,1851.1128189,None,1851.5924127000008,None,1851.5924127000008,None,"['t', 'v']","[6.945530900000449, 7.283187600000019]",1851.5924127000008,None,7.283187600000019,6.945530900000449,7,False,False,False,1862.3933972000004,None,1862.3933972000004,None,1862.3933972000004,None,1862.3933972000004,None,1862.3933972000004,None,1862.3933972000004,None,1862.3933972000004,None,1862.3933972000004,None,1863.4323302000003,None,1863.4323302000003,None,2,c,,,,,,,,,,,,,,,,,,9_10,001,2021_Feb_24_1129,ComputerHuman,2020.1.3,59.76879041132983,
Sychronize.jpg,Number10.jpg,,Computer,Computer.xlsx,2,c,10,,,,,0,6,6,5,0,6,6,8,,,,,,,,,,,,,,,,,,,,,,,,,,,,,,,,,,,,,,,,,,,,,,,,,,,,,,,,,,,,,1864.4156188000006,None,1864.4156188000006,None,1864.8951415000001,None,1864.8951415000001,None,"['t', 'v']","[9.320590299999822, 9.92826519999835]",1864.8951415000001,None,9.92826519999835,9.320590299999822,10,False,False,False,1878.3337375,None,1878.3337375,None,1878.3337375,None,1878.3337375,None,1878.3337375,None,1878.3337375,None,1878.3337375,None,1878.3337375,None,1879.3492895999998,None,1879.3492895999998,None,2,c,,,,,,,,,,,,,,,,,,9_10,001,2021_Feb_24_1129,ComputerHuman,2020.1.3,59.76879041132983,
Sychronize.jpg,Number10.jpg,,Computer,Computer.xlsx,2,c,10,,,,,0,6,6,5,0,7,7,9,,,,,,,,,,,,,,,,,,,,,,,,,,,,,,,,,,,,,,,,,,,,,,,,,,,,,,,,,,,,,1880.3684395999999,None,1880.3684395999999,None,1880.8470860000007,None,1880.8470860000007,None,"['v', 't']","[10.244239800000287, 10.820225600000413]",1880.8470860000007,None,10.244239800000287,10.820225600000413,10,False,False,False,1893.9922899000003,None,1893.9922899000003,None,1893.9922899000003,None,1893.9922899000003,None,1893.9922899000003,None,1893.9922899000003,None,1893.9922899000003,None,1893.9922899000003,None,1895.003043900001,None,1895.003043900001,None,2,c,,,,,,,,,,,,,,,,,,9_10,001,2021_Feb_24_1129,ComputerHuman,2020.1.3,59.76879041132983,
Sychronize.jpg,Number7.jpg,,Computer,Computer.xlsx,2,c,7,,,,,0,6,6,5,0,8,8,3,,,,,,,,,,,,,,,,,,,,,,,,,,,,,,,,,,,,,,,,,,,,,,,,,,,,,,,,,,,,,1896.0269524000005,None,1896.0269524000005,None,1896.5014985999996,None,1896.5014985999996,None,"['t', 'v']","[7.09230000000025, 7.274484100000336]",1896.5014985999996,None,7.274484100000336,7.09230000000025,7,False,False,False,1907.4864513000002,None,1907.4864513000002,None,1907.4864513000002,None,1907.4864513000002,None,1907.4864513000002,None,1907.4864513000002,None,1907.4864513000002,None,1907.4864513000002,None,1908.527973700001,None,1908.527973700001,None,2,c,,,,,,,,,,,,,,,,,,9_10,001,2021_Feb_24_1129,ComputerHuman,2020.1.3,59.76879041132983,
Sychronize.jpg,Number8.jpg,,Computer,Computer.xlsx,2,c,8,,,,,0,6,6,5,0,9,9,4,,,,,,,,,,,,,,,,,,,,,,,,,,,,,,,,,,,,,,,,,,,,,,,,,,,,,,,,,,,,,1909.5246763000005,None,1909.5246763000005,None,1910.004882100001,None,1910.004882100001,None,"['t', 'v']","[7.530261899999459, 8.758386299999984]",1910.004882100001,None,8.758386299999984,7.530261899999459,8,False,False,False,1921.0104543999996,None,1921.0104543999996,None,1921.0104543999996,None,1921.0104543999996,None,1921.0104543999996,None,1921.0104543999996,None,1921.0104543999996,None,1921.0104543999996,None,1922.0246978000005,None,1922.0246978000005,None,2,c,,,,,,,,,,,,,,,,,,9_10,001,2021_Feb_24_1129,ComputerHuman,2020.1.3,59.76879041132983,
,,,,Computer.xlsx,2,c,,,,,,0,6,6,5,,,,,,,,,,,,,,,,,,,,,,,,,,,,,,,,,,,,,,,,,,,,,,,,,,,,,,,,,,,,,,,,,,,,,,,,,,,,,,,,,,,,,,,,,,,,,,,,,,,,,,,2,c,1923.0237411000007,None,h,0,2.967209999998886,1924.0200047999997,None,1927.0141193999998,None,None,None,None,None,None,,,,9_10,001,2021_Feb_24_1129,ComputerHuman,2020.1.3,59.76879041132983,
Sychronize.jpg,Number7.jpg,,Computer,Computer.xlsx,2,c,7,,,,,0,7,7,7,0,0,0,2,,,,,,,,,,,,,,,,,,,,,,,,,,,,,,,,,,,,,,,,,,,,,,,,,,,,,,,,,1932.0268392999997,None,1932.0268392999997,None,1935.0628915000007,None,1935.0628915000007,None,1935.5427826000005,None,1935.5427826000005,None,"['v', 't']","[7.21265780000067, 7.536729699999341]",1935.5427826000005,None,7.21265780000067,7.536729699999341,7,False,False,False,1945.0318063999994,None,1945.0318063999994,None,1945.0318063999994,None,1945.0318063999994,None,1945.0318063999994,None,1945.0318063999994,None,1945.0318063999994,None,1945.0318063999994,None,1946.0464896000003,None,1946.0464896000003,None,2,c,,,,,,,,,,,,,,,,,,9_10,001,2021_Feb_24_1129,ComputerHuman,2020.1.3,59.76879041132983,
Sychronize.jpg,Number9.jpg,,Computer,Computer.xlsx,2,c,9,,,,,0,7,7,7,0,1,1,6,,,,,,,,,,,,,,,,,,,,,,,,,,,,,,,,,,,,,,,,,,,,,,,,,,,,,,,,,,,,,1947.0720317000005,None,1947.0720317000005,None,1947.543718,None,1947.543718,None,"['v', 't']","[8.95155530000011, 9.727553000000626]",1947.543718,None,8.95155530000011,9.727553000000626,9,False,False,False,1959.1735462000006,None,1959.1735462000006,None,1959.1735462000006,None,1959.1735462000006,None,1959.1735462000006,None,1959.1735462000006,None,1959.1735462000006,None,1959.1735462000006,None,1960.1823042999995,None,1960.1823042999995,None,2,c,,,,,,,,,,,,,,,,,,9_10,001,2021_Feb_24_1129,ComputerHuman,2020.1.3,59.76879041132983,
Sychronize.jpg,Number7.jpg,,Computer,Computer.xlsx,2,c,7,,,,,0,7,7,7,0,2,2,3,,,,,,,,,,,,,,,,,,,,,,,,,,,,,,,,,,,,,,,,,,,,,,,,,,,,,,,,,,,,,1961.2081561000005,None,1961.2081561000005,None,1961.6813616999998,None,1961.6813616999998,None,"['t', 'v']","[7.217551399999138, 7.386136199998873]",1961.6813616999998,None,7.386136199998873,7.217551399999138,7,False,False,False,1972.8651823999999,None,1972.8651823999999,None,1972.8651823999999,None,1972.8651823999999,None,1972.8651823999999,None,1972.8651823999999,None,1972.8651823999999,None,1972.8651823999999,None,1973.8896636,None,1973.8896636,None,2,c,,,,,,,,,,,,,,,,,,9_10,001,2021_Feb_24_1129,ComputerHuman,2020.1.3,59.76879041132983,
Sychronize.jpg,Number8.jpg,,Computer,Computer.xlsx,2,c,8,,,,,0,7,7,7,0,3,3,5,,,,,,,,,,,,,,,,,,,,,,,,,,,,,,,,,,,,,,,,,,,,,,,,,,,,,,,,,,,,,1974.8935864000005,None,1974.8935864000005,None,1975.3680467999993,None,1975.3680467999993,None,"['t', 'v']","[7.671114400000079, 8.427382400001079]",1975.3680467999993,None,8.427382400001079,7.671114400000079,8,False,False,False,1987.2116283999994,None,1987.2116283999994,None,1987.2116283999994,None,1987.2116283999994,None,1987.2116283999994,None,1987.2116283999994,None,1987.2116283999994,None,1987.2116283999994,None,1988.2224162000011,None,1988.2224162000011,None,2,c,,,,,,,,,,,,,,,,,,9_10,001,2021_Feb_24_1129,ComputerHuman,2020.1.3,59.76879041132983,
Sychronize.jpg,Number8.jpg,,Computer,Computer.xlsx,2,c,8,,,,,0,7,7,7,0,4,4,4,,,,,,,,,,,,,,,,,,,,,,,,,,,,,,,,,,,,,,,,,,,,,,,,,,,,,,,,,,,,,1989.2433876000005,None,1989.2433876000005,None,1989.7210086999994,None,1989.7210086999994,None,"['v', 't']","[7.833833500000765, 7.8581178000004]",1989.7210086999994,None,7.833833500000765,7.8581178000004,8,False,False,False,1999.2214075000002,None,1999.2214075000002,None,1999.2214075000002,None,1999.2214075000002,None,1999.2214075000002,None,1999.2214075000002,None,1999.2214075000002,None,1999.2214075000002,None,2000.2410356999999,None,2000.2410356999999,None,2,c,,,,,,,,,,,,,,,,,,9_10,001,2021_Feb_24_1129,ComputerHuman,2020.1.3,59.76879041132983,
Sychronize.jpg,Number10.jpg,,Computer,Computer.xlsx,2,c,10,,,,,0,7,7,7,0,5,5,8,,,,,,,,,,,,,,,,,,,,,,,,,,,,,,,,,,,,,,,,,,,,,,,,,,,,,,,,,,,,,2001.2428828000002,None,2001.2428828000002,None,2001.7227625000005,None,2001.7227625000005,None,"['v', 't']","[9.20439830000032, 9.676229599999715]",2001.7227625000005,None,9.20439830000032,9.676229599999715,10,False,False,False,2013.1131269000007,None,2013.1131269000007,None,2013.1131269000007,None,2013.1131269000007,None,2013.1131269000007,None,2013.1131269000007,None,2013.1131269000007,None,2013.1131269000007,None,2014.1262823000006,None,2014.1262823000006,None,2,c,,,,,,,,,,,,,,,,,,9_10,001,2021_Feb_24_1129,ComputerHuman,2020.1.3,59.76879041132983,
Sychronize.jpg,Number10.jpg,,Computer,Computer.xlsx,2,c,10,,,,,0,7,7,7,0,6,6,9,,,,,,,,,,,,,,,,,,,,,,,,,,,,,,,,,,,,,,,,,,,,,,,,,,,,,,,,,,,,,2015.1493397000004,None,2015.1493397000004,None,2015.6262271999994,None,2015.6262271999994,None,"['v', 't']","[9.905095999998593, 10.280256099998951]",2015.6262271999994,None,9.905095999998593,10.280256099998951,10,False,False,False,2028.2063516999997,None,2028.2063516999997,None,2028.2063516999997,None,2028.2063516999997,None,2028.2063516999997,None,2028.2063516999997,None,2028.2063516999997,None,2028.2063516999997,None,2029.2353962000007,None,2029.2353962000007,None,2,c,,,,,,,,,,,,,,,,,,9_10,001,2021_Feb_24_1129,ComputerHuman,2020.1.3,59.76879041132983,
Sychronize.jpg,Number6.jpg,,Computer,Computer.xlsx,2,c,6,,,,,0,7,7,7,0,7,7,1,,,,,,,,,,,,,,,,,,,,,,,,,,,,,,,,,,,,,,,,,,,,,,,,,,,,,,,,,,,,,2030.2376594999996,None,2030.2376594999996,None,2030.7119446000006,None,2030.7119446000006,None,"['t', 'v']","[5.403500399999757, 6.307190199999241]",2030.7119446000006,None,6.307190199999241,5.403500399999757,6,False,False,False,2040.2507651000005,None,2040.2507651000005,None,2040.2507651000005,None,2040.2507651000005,None,2040.2507651000005,None,2040.2507651000005,None,2040.2507651000005,None,2040.2507651000005,None,2041.2653636999994,None,2041.2653636999994,None,2,c,,,,,,,,,,,,,,,,,,9_10,001,2021_Feb_24_1129,ComputerHuman,2020.1.3,59.76879041132983,
Sychronize.jpg,Number9.jpg,,Computer,Computer.xlsx,2,c,9,,,,,0,7,7,7,0,8,8,7,,,,,,,,,,,,,,,,,,,,,,,,,,,,,,,,,,,,,,,,,,,,,,,,,,,,,,,,,,,,,2042.284933,None,2042.284933,None,2042.7643142999996,None,2042.7643142999996,None,"['t', 'v']","[8.995075399998314, 9.579035999999178]",2042.7643142999996,None,9.579035999999178,8.995075399998314,9,False,False,False,2055.7651383,None,2055.7651383,None,2055.7651383,None,2055.7651383,None,2055.7651383,None,2055.7651383,None,2055.7651383,None,2055.7651383,None,2056.788197500001,None,2056.788197500001,None,2,c,,,,,,,,,,,,,,,,,,9_10,001,2021_Feb_24_1129,ComputerHuman,2020.1.3,59.76879041132983,
Sychronize.jpg,Number6.jpg,,Computer,Computer.xlsx,2,c,6,,,,,0,7,7,7,0,9,9,0,,,,,,,,,,,,,,,,,,,,,,,,,,,,,,,,,,,,,,,,,,,,,,,,,,,,,,,,,,,,,2057.788010200001,None,2057.788010200001,None,2058.267383200001,None,2058.267383200001,None,"['v', 't']","[6.007737300000372, 7.19981160000134]",2058.267383200001,None,6.007737300000372,7.19981160000134,6,False,False,False,2067.0678194,None,2067.0678194,None,2067.0678194,None,2067.0678194,None,2067.0678194,None,2067.0678194,None,2067.0678194,None,2067.0678194,None,2068.087300100001,None,2068.087300100001,None,2,c,,,,,,,,,,,,,,,,,,9_10,001,2021_Feb_24_1129,ComputerHuman,2020.1.3,59.76879041132983,
,,,,Computer.xlsx,2,c,,,,,,0,7,7,7,,,,,,,,,,,,,,,,,,,,,,,,,,,,,,,,,,,,,,,,,,,,,,,,,,,,,,,,,,,,,,,,,,,,,,,,,,,,,,,,,,,,,,,,,,,,,,,,,,,,,,,2,c,2069.0701978000006,None,h,0,2.360796900000423,2070.0663725000004,None,None,None,2072.459489400001,None,"['space', 'space']",2073.4510696000007,None,"[2.4997229000000516, 10.188267100000303]",,,9_10,001,2021_Feb_24_1129,ComputerHuman,2020.1.3,59.76879041132983,
Sychronize.jpg,Number9.jpg,,Human,Human.xlsx,2,h,9,,,,,1,0,8,6,0,0,0,6,,,,,,,,,,,,,,,,,,,,,,,,,,,,,,,,,,,,,,,,,,,,,,,,,,,,,,,,,2083.6935891000003,None,2083.6935891000003,None,2086.726601200001,None,2086.726601200001,None,2087.190351600001,None,2087.190351600001,None,"['t', 'v']","[8.556728600000497, 9.136284300000625]",2087.190351600001,None,9.136284300000625,8.556728600000497,9,False,False,False,2099.775056200001,None,2099.775056200001,None,2099.775056200001,None,2099.775056200001,None,2099.775056200001,None,2099.775056200001,None,2099.775056200001,None,2099.775056200001,None,2100.7937078000004,None,2100.7937078000004,None,2,h,,,,,,,,,,,,,,,,,,9_10,001,2021_Feb_24_1129,ComputerHuman,2020.1.3,59.76879041132983,
Sychronize.jpg,Number8.jpg,,Human,Human.xlsx,2,h,8,,,,,1,0,8,6,0,1,1,5,,,,,,,,,,,,,,,,,,,,,,,,,,,,,,,,,,,,,,,,,,,,,,,,,,,,,,,,,,,,,2101.8210135,None,2101.8210135,None,2102.3115179999995,None,2102.3115179999995,None,"['t', 'v']","[7.44765279999956, 7.696002700000463]",2102.3115179999995,None,7.696002700000463,7.44765279999956,8,False,False,False,2113.9698990000006,None,2113.9698990000006,None,2113.9698990000006,None,2113.9698990000006,None,2113.9698990000006,None,2113.9698990000006,None,2113.9698990000006,None,2113.9698990000006,None,2115.0001905,None,2115.0001905,None,2,h,,,,,,,,,,,,,,,,,,9_10,001,2021_Feb_24_1129,ComputerHuman,2020.1.3,59.76879041132983,
Sychronize.jpg,Number7.jpg,,Human,Human.xlsx,2,h,7,,,,,1,0,8,6,0,2,2,3,,,,,,,,,,,,,,,,,,,,,,,,,,,,,,,,,,,,,,,,,,,,,,,,,,,,,,,,,,,,,2116.0057590000006,None,2116.0057590000006,None,2116.4794981000005,None,2116.4794981000005,None,"['t', 'v']","[6.496032500001093, 7.395741899999848]",2116.4794981000005,None,7.395741899999848,6.496032500001093,7,False,False,False,2127.6509693,None,2127.6509693,None,2127.6509693,None,2127.6509693,None,2127.6509693,None,2127.6509693,None,2127.6509693,None,2127.6509693,None,2128.666326900001,None,2128.666326900001,None,2,h,,,,,,,,,,,,,,,,,,9_10,001,2021_Feb_24_1129,ComputerHuman,2020.1.3,59.76879041132983,
Sychronize.jpg,Number6.jpg,,Human,Human.xlsx,2,h,6,,,,,1,0,8,6,0,3,3,1,,,,,,,,,,,,,,,,,,,,,,,,,,,,,,,,,,,,,,,,,,,,,,,,,,,,,,,,,,,,,2129.685881300001,None,2129.685881300001,None,2130.1641372000004,None,2130.1641372000004,None,"['t', 'v']","[5.239083700000265, 6.2511204999991605]",2130.1641372000004,None,6.2511204999991605,5.239083700000265,6,False,False,False,2139.3370366999998,None,2139.3370366999998,None,2139.3370366999998,None,2139.3370366999998,None,2139.3370366999998,None,2139.3370366999998,None,2139.3370366999998,None,2139.3370366999998,None,2140.3525149000006,None,2140.3525149000006,None,2,h,,,,,,,,,,,,,,,,,,9_10,001,2021_Feb_24_1129,ComputerHuman,2020.1.3,59.76879041132983,
Sychronize.jpg,Number10.jpg,,Human,Human.xlsx,2,h,10,,,,,1,0,8,6,0,4,4,9,,,,,,,,,,,,,,,,,,,,,,,,,,,,,,,,,,,,,,,,,,,,,,,,,,,,,,,,,,,,,2141.3756980999997,None,2141.3756980999997,None,2141.8512751000007,None,2141.8512751000007,None,"['t', 'v']","[9.443922000000384, 10.206256700001177]",2141.8512751000007,None,10.206256700001177,9.443922000000384,10,False,False,False,2155.375402300001,None,2155.375402300001,None,2155.375402300001,None,2155.375402300001,None,2155.375402300001,None,2155.375402300001,None,2155.375402300001,None,2155.375402300001,None,2156.388736,None,2156.388736,None,2,h,,,,,,,,,,,,,,,,,,9_10,001,2021_Feb_24_1129,ComputerHuman,2020.1.3,59.76879041132983,
Sychronize.jpg,Number8.jpg,,Human,Human.xlsx,2,h,8,,,,,1,0,8,6,0,5,5,4,,,,,,,,,,,,,,,,,,,,,,,,,,,,,,,,,,,,,,,,,,,,,,,,,,,,,,,,,,,,,2157.4125563000007,None,2157.4125563000007,None,2157.8862031,None,2157.8862031,None,"['t', 'v']","[7.493073599998752, 8.425044399999024]",2157.8862031,None,8.425044399999024,7.493073599998752,8,False,False,False,2169.6917855,None,2169.6917855,None,2169.6917855,None,2169.6917855,None,2169.6917855,None,2169.6917855,None,2169.6917855,None,2169.6917855,None,2170.7078807000007,None,2170.7078807000007,None,2,h,,,,,,,,,,,,,,,,,,9_10,001,2021_Feb_24_1129,ComputerHuman,2020.1.3,59.76879041132983,
Sychronize.jpg,Number9.jpg,,Human,Human.xlsx,2,h,9,,,,,1,0,8,6,0,6,6,7,,,,,,,,,,,,,,,,,,,,,,,,,,,,,,,,,,,,,,,,,,,,,,,,,,,,,,,,,,,,,2171.734601000001,None,2171.734601000001,None,2172.207118200001,None,2172.207118200001,None,"['t', 'v']","[8.431371399999989, 9.331665299998349]",2172.207118200001,None,9.331665299998349,8.431371399999989,9,False,False,False,2183.9683933999995,None,2183.9683933999995,None,2183.9683933999995,None,2183.9683933999995,None,2183.9683933999995,None,2183.9683933999995,None,2183.9683933999995,None,2183.9683933999995,None,2184.9791097999996,None,2184.9791097999996,None,2,h,,,,,,,,,,,,,,,,,,9_10,001,2021_Feb_24_1129,ComputerHuman,2020.1.3,59.76879041132983,
Sychronize.jpg,Number7.jpg,,Human,Human.xlsx,2,h,7,,,,,1,0,8,6,0,7,7,2,,,,,,,,,,,,,,,,,,,,,,,,,,,,,,,,,,,,,,,,,,,,,,,,,,,,,,,,,,,,,2185.995659700001,None,2185.995659700001,None,2186.4770559,None,2186.4770559,None,"['t', 'v']","[6.721058000000994, 7.050293199999942]",2186.4770559,None,7.050293199999942,6.721058000000994,7,False,False,False,2197.2320437000008,None,2197.2320437000008,None,2197.2320437000008,None,2197.2320437000008,None,2197.2320437000008,None,2197.2320437000008,None,2197.2320437000008,None,2197.2320437000008,None,2198.2470157,None,2198.2470157,None,2,h,,,,,,,,,,,,,,,,,,9_10,001,2021_Feb_24_1129,ComputerHuman,2020.1.3,59.76879041132983,
Sychronize.jpg,Number10.jpg,,Human,Human.xlsx,2,h,10,,,,,1,0,8,6,0,8,8,8,,,,,,,,,,,,,,,,,,,,,,,,,,,,,,,,,,,,,,,,,,,,,,,,,,,,,,,,,,,,,2199.272745000001,None,2199.272745000001,None,2199.7461206,None,2199.7461206,None,"['v', 't']","[9.177048900000955, 10.121150000000853]",2199.7461206,None,9.177048900000955,10.121150000000853,10,False,False,False,2211.5359266000005,None,2211.5359266000005,None,2211.5359266000005,None,2211.5359266000005,None,2211.5359266000005,None,2211.5359266000005,None,2211.5359266000005,None,2211.5359266000005,None,2212.5497836000004,None,2212.5497836000004,None,2,h,,,,,,,,,,,,,,,,,,9_10,001,2021_Feb_24_1129,ComputerHuman,2020.1.3,59.76879041132983,
Sychronize.jpg,Number6.jpg,,Human,Human.xlsx,2,h,6,,,,,1,0,8,6,0,9,9,0,,,,,,,,,,,,,,,,,,,,,,,,,,,,,,,,,,,,,,,,,,,,,,,,,,,,,,,,,,,,,2213.5695879000004,None,2213.5695879000004,None,2214.0492060000006,None,2214.0492060000006,None,"['v', 't']","[5.700663000001441, 6.262027600001602]",2214.0492060000006,None,5.700663000001441,6.262027600001602,6,False,False,False,2221.9066608000003,None,2221.9066608000003,None,2221.9066608000003,None,2221.9066608000003,None,2221.9066608000003,None,2221.9066608000003,None,2221.9066608000003,None,2221.9066608000003,None,2222.9025487999997,None,2222.9025487999997,None,2,h,,,,,,,,,,,,,,,,,,9_10,001,2021_Feb_24_1129,ComputerHuman,2020.1.3,59.76879041132983,
,,,,Human.xlsx,2,h,,,,,,1,0,8,6,,,,,,,,,,,,,,,,,,,,,,,,,,,,,,,,,,,,,,,,,,,,,,,,,,,,,,,,,,,,,,,,,,,,,,,,,,,,,,,,,,,,,,,,,,,,,,,,,,,,,,,2,h,2223.9015252,None,c,0,1.941000200000417,2224.8979291000005,None,2226.872632400001,None,None,None,None,None,None,,,,9_10,001,2021_Feb_24_1129,ComputerHuman,2020.1.3,59.76879041132983,
Sychronize.jpg,Number7.jpg,,Human,Human.xlsx,1,h,7,,,,,1,1,9,2,0,0,0,2,,,,,,,,,,,,,,,,,,,,,,,,,,,,,,,,,,,,,,,,,,,,,,,,,,,,,,,,,2231.9066355999994,None,2231.9066355999994,None,2234.9237746999997,None,2234.9237746999997,None,2235.4033317000003,None,2235.4033317000003,None,"['t', 'v']","[6.3597957999991195, 7.092288099998768]",2235.4033317000003,None,7.092288099998768,6.3597957999991195,7,False,False,False,2245.1273076000007,None,2245.1273076000007,None,2245.1273076000007,None,2245.1273076000007,None,2245.1273076000007,None,2245.1273076000007,None,2245.1273076000007,None,2245.1273076000007,None,2246.140775500001,None,2246.140775500001,None,1,h,,,,,,,,,,,,,,,,,,9_10,001,2021_Feb_24_1129,ComputerHuman,2020.1.3,59.76879041132983,
Sychronize.jpg,Number8.jpg,,Human,Human.xlsx,1,h,8,,,,,1,1,9,2,0,1,1,5,,,,,,,,,,,,,,,,,,,,,,,,,,,,,,,,,,,,,,,,,,,,,,,,,,,,,,,,,,,,,2247.1596727000006,None,2247.1596727000006,None,2247.639032600001,None,2247.639032600001,None,"['t', 'v']","[7.544118099998741, 8.020245499999874]",2247.639032600001,None,8.020245499999874,7.544118099998741,8,False,False,False,2259.2053062999994,None,2259.2053062999994,None,2259.2053062999994,None,2259.2053062999994,None,2259.2053062999994,None,2259.2053062999994,None,2259.2053062999994,None,2259.2053062999994,None,2260.209692900001,None,2260.209692900001,None,1,h,,,,,,,,,,,,,,,,,,9_10,001,2021_Feb_24_1129,ComputerHuman,2020.1.3,59.76879041132983,
Sychronize.jpg,Number9.jpg,,Human,Human.xlsx,1,h,9,,,,,1,1,9,2,0,2,2,7,,,,,,,,,,,,,,,,,,,,,,,,,,,,,,,,,,,,,,,,,,,,,,,,,,,,,,,,,,,,,2261.2290772000006,None,2261.2290772000006,None,2261.7073835,None,2261.7073835,None,"['t', 'v']","[8.991560300000856, 9.265895599999567]",2261.7073835,None,9.265895599999567,8.991560300000856,9,False,False,False,2274.9102133000006,None,2274.9102133000006,None,2274.9102133000006,None,2274.9102133000006,None,2274.9102133000006,None,2274.9102133000006,None,2274.9102133000006,None,2274.9102133000006,None,2275.9300501999996,None,2275.9300501999996,None,1,h,,,,,,,,,,,,,,,,,,9_10,001,2021_Feb_24_1129,ComputerHuman,2020.1.3,59.76879041132983,
Sychronize.jpg,Number6.jpg,,Human,Human.xlsx,1,h,6,,,,,1,1,9,2,0,3,3,1,,,,,,,,,,,,,,,,,,,,,,,,,,,,,,,,,,,,,,,,,,,,,,,,,,,,,,,,,,,,,2276.9426777,None,2276.9426777,None,2277.4270757999993,None,2277.4270757999993,None,"['t', 'v']","[6.0821183000007295, 6.544023000000379]",2277.4270757999993,None,6.544023000000379,6.0821183000007295,6,False,False,False,2287.0456798999994,None,2287.0456798999994,None,2287.0456798999994,None,2287.0456798999994,None,2287.0456798999994,None,2287.0456798999994,None,2287.0456798999994,None,2287.0456798999994,None,2288.0651706,None,2288.0651706,None,1,h,,,,,,,,,,,,,,,,,,9_10,001,2021_Feb_24_1129,ComputerHuman,2020.1.3,59.76879041132983,
Sychronize.jpg,Number10.jpg,,Human,Human.xlsx,1,h,10,,,,,1,1,9,2,0,4,4,8,,,,,,,,,,,,,,,,,,,,,,,,,,,,,,,,,,,,,,,,,,,,,,,,,,,,,,,,,,,,,2289.073583300001,None,2289.073583300001,None,2289.5645914000006,None,2289.5645914000006,None,"['t', 'v']","[9.978403699999035, 10.002591099999336]",2289.5645914000006,None,10.002591099999336,9.978403699999035,10,False,False,False,2303.7367110999994,None,2303.7367110999994,None,2303.7367110999994,None,2303.7367110999994,None,2303.7367110999994,None,2303.7367110999994,None,2303.7367110999994,None,2303.7367110999994,None,2304.7719224,None,2304.7719224,None,1,h,,,,,,,,,,,,,,,,,,9_10,001,2021_Feb_24_1129,ComputerHuman,2020.1.3,59.76879041132983,
Sychronize.jpg,Number9.jpg,,Human,Human.xlsx,1,h,9,,,,,1,1,9,2,0,5,5,6,,,,,,,,,,,,,,,,,,,,,,,,,,,,,,,,,,,,,,,,,,,,,,,,,,,,,,,,,,,,,2305.7704979,None,2305.7704979,None,2306.2510556999996,None,2306.2510556999996,None,"['t', 'v']","[8.787765799999761, 9.328031699998974]",2306.2510556999996,None,9.328031699998974,8.787765799999761,9,False,False,False,2318.8708357999994,None,2318.8708357999994,None,2318.8708357999994,None,2318.8708357999994,None,2318.8708357999994,None,2318.8708357999994,None,2318.8708357999994,None,2318.8708357999994,None,2319.8883847999996,None,2319.8883847999996,None,1,h,,,,,,,,,,,,,,,,,,9_10,001,2021_Feb_24_1129,ComputerHuman,2020.1.3,59.76879041132983,
Sychronize.jpg,Number6.jpg,,Human,Human.xlsx,1,h,6,,,,,1,1,9,2,0,6,6,0,,,,,,,,,,,,,,,,,,,,,,,,,,,,,,,,,,,,,,,,,,,,,,,,,,,,,,,,,,,,,2320.9078208,None,2320.9078208,None,2321.3875973000004,None,2321.3875973000004,None,"['t', 'v']","[5.282283599999573, 6.746835599999031]",2321.3875973000004,None,6.746835599999031,5.282283599999573,6,False,False,False,2331.0176475,None,2331.0176475,None,2331.0176475,None,2331.0176475,None,2331.0176475,None,2331.0176475,None,2331.0176475,None,2331.0176475,None,2332.024583200001,None,2332.024583200001,None,1,h,,,,,,,,,,,,,,,,,,9_10,001,2021_Feb_24_1129,ComputerHuman,2020.1.3,59.76879041132983,
Sychronize.jpg,Number7.jpg,,Human,Human.xlsx,1,h,7,,,,,1,1,9,2,0,7,7,3,,,,,,,,,,,,,,,,,,,,,,,,,,,,,,,,,,,,,,,,,,,,,,,,,,,,,,,,,,,,,2333.047357800001,None,2333.047357800001,None,2333.5429472999995,None,2333.5429472999995,None,"['t', 'v']","[6.836145600000236, 9.439675700001317]",2333.5429472999995,None,9.439675700001317,6.836145600000236,7,False,False,False,2346.1916071999995,None,2346.1916071999995,None,2346.1916071999995,None,2346.1916071999995,None,2346.1916071999995,None,2346.1916071999995,None,2346.1916071999995,None,2346.1916071999995,None,2347.2105633,None,2347.2105633,None,1,h,,,,,,,,,,,,,,,,,,9_10,001,2021_Feb_24_1129,ComputerHuman,2020.1.3,59.76879041132983,
Sychronize.jpg,Number10.jpg,,Human,Human.xlsx,1,h,10,,,,,1,1,9,2,0,8,8,9,,,,,,,,,,,,,,,,,,,,,,,,,,,,,,,,,,,,,,,,,,,,,,,,,,,,,,,,,,,,,2348.2360834,None,2348.2360834,None,2348.7083488,None,2348.7083488,None,"['t', 'v']","[9.874753500000224, 10.186875399998826]",2348.7083488,None,10.186875399998826,9.874753500000224,10,False,False,False,2363.3826830000007,None,2363.3826830000007,None,2363.3826830000007,None,2363.3826830000007,None,2363.3826830000007,None,2363.3826830000007,None,2363.3826830000007,None,2363.3826830000007,None,2364.3984284999997,None,2364.3984284999997,None,1,h,,,,,,,,,,,,,,,,,,9_10,001,2021_Feb_24_1129,ComputerHuman,2020.1.3,59.76879041132983,
Sychronize.jpg,Number8.jpg,,Human,Human.xlsx,1,h,8,,,,,1,1,9,2,0,9,9,4,,,,,,,,,,,,,,,,,,,,,,,,,,,,,,,,,,,,,,,,,,,,,,,,,,,,,,,,,,,,,2365.4225080000006,None,2365.4225080000006,None,2365.8962973999996,None,2365.8962973999996,None,"['v', 't']","[8.40963069999998, 8.76091280000037]",2365.8962973999996,None,8.40963069999998,8.76091280000037,8,False,False,False,2376.3189015,None,2376.3189015,None,2376.3189015,None,2376.3189015,None,2376.3189015,None,2376.3189015,None,2376.3189015,None,2376.3189015,None,2377.333167400001,None,2377.333167400001,None,1,h,,,,,,,,,,,,,,,,,,9_10,001,2021_Feb_24_1129,ComputerHuman,2020.1.3,59.76879041132983,
,,,,Human.xlsx,1,h,,,,,,1,1,9,2,,,,,,,,,,,,,,,,,,,,,,,,,,,,,,,,,,,,,,,,,,,,,,,,,,,,,,,,,,,,,,,,,,,,,,,,,,,,,,,,,,,,,,,,,,,,,,,,,,,,,,,1,h,2378.331153,None,c,0,2.5705412999996042,2379.312196600001,None,2381.9224115999996,None,None,None,None,None,None,,,,9_10,001,2021_Feb_24_1129,ComputerHuman,2020.1.3,59.76879041132983,
Sychronize.jpg,Number7.jpg,,Computer,Computer.xlsx,1,c,7,,,,,1,2,10,1,0,0,0,3,,,,,,,,,,,,,,,,,,,,,,,,,,,,,,,,,,,,,,,,,,,,,,,,,,,,,,,,,2386.935386,None,2386.935386,None,2389.9900528999997,None,2389.9900528999997,None,2390.4515273000006,None,2390.4515273000006,None,"['t', 'v']","[6.250915800001167, 7.075591500000883]",2390.4515273000006,None,7.075591500000883,6.250915800001167,7,False,False,False,2400.4392615000006,None,2400.4392615000006,None,2400.4392615000006,None,2400.4392615000006,None,2400.4392615000006,None,2400.4392615000006,None,2400.4392615000006,None,2400.4392615000006,None,2401.4548184999994,None,2401.4548184999994,None,1,c,,,,,,,,,,,,,,,,,,9_10,001,2021_Feb_24_1129,ComputerHuman,2020.1.3,59.76879041132983,
Sychronize.jpg,Number9.jpg,,Computer,Computer.xlsx,1,c,9,,,,,1,2,10,1,0,1,1,7,,,,,,,,,,,,,,,,,,,,,,,,,,,,,,,,,,,,,,,,,,,,,,,,,,,,,,,,,,,,,2402.4742381000005,None,2402.4742381000005,None,2402.9538065000006,None,2402.9538065000006,None,"['t', 'v']","[8.880699499999537, 8.93714589999945]",2402.9538065000006,None,8.93714589999945,8.880699499999537,9,False,False,False,2415.3087325999995,None,2415.3087325999995,None,2415.3087325999995,None,2415.3087325999995,None,2415.3087325999995,None,2415.3087325999995,None,2415.3087325999995,None,2415.3087325999995,None,2416.3250612,None,2416.3250612,None,1,c,,,,,,,,,,,,,,,,,,9_10,001,2021_Feb_24_1129,ComputerHuman,2020.1.3,59.76879041132983,
Sychronize.jpg,Number10.jpg,,Computer,Computer.xlsx,1,c,10,,,,,1,2,10,1,0,2,2,8,,,,,,,,,,,,,,,,,,,,,,,,,,,,,,,,,,,,,,,,,,,,,,,,,,,,,,,,,,,,,2417.350220700001,None,2417.350220700001,None,2417.823717,None,2417.823717,None,"['v', 't']","[10.131390299999111, 10.183047299999089]",2417.823717,None,10.131390299999111,10.183047299999089,10,False,False,False,2429.918972300001,None,2429.918972300001,None,2429.918972300001,None,2429.918972300001,None,2429.918972300001,None,2429.918972300001,None,2429.918972300001,None,2429.918972300001,None,2430.9280042,None,2430.9280042,None,1,c,,,,,,,,,,,,,,,,,,9_10,001,2021_Feb_24_1129,ComputerHuman,2020.1.3,59.76879041132983,
Sychronize.jpg,Number10.jpg,,Computer,Computer.xlsx,1,c,10,,,,,1,2,10,1,0,3,3,9,,,,,,,,,,,,,,,,,,,,,,,,,,,,,,,,,,,,,,,,,,,,,,,,,,,,,,,,,,,,,2431.9499162,None,2431.9499162,None,2432.426354100001,None,2432.426354100001,None,"['v', 't']","[10.124117999999726, 11.175970000000234]",2432.426354100001,None,10.124117999999726,11.175970000000234,10,False,False,False,2445.3500612,None,2445.3500612,None,2445.3500612,None,2445.3500612,None,2445.3500612,None,2445.3500612,None,2445.3500612,None,2445.3500612,None,2446.3652279000007,None,2446.3652279000007,None,1,c,,,,,,,,,,,,,,,,,,9_10,001,2021_Feb_24_1129,ComputerHuman,2020.1.3,59.76879041132983,
Sychronize.jpg,Number8.jpg,,Computer,Computer.xlsx,1,c,8,,,,,1,2,10,1,0,4,4,4,,,,,,,,,,,,,,,,,,,,,,,,,,,,,,,,,,,,,,,,,,,,,,,,,,,,,,,,,,,,,2447.389967600001,None,2447.389967600001,None,2447.8616737,None,2447.8616737,None,"['t', 'v']","[8.089009399998758, 8.413298100000247]",2447.8616737,None,8.413298100000247,8.089009399998758,8,False,False,False,2459.8745308000007,None,2459.8745308000007,None,2459.8745308000007,None,2459.8745308000007,None,2459.8745308000007,None,2459.8745308000007,None,2459.8745308000007,None,2459.8745308000007,None,2460.9050748,None,2460.9050748,None,1,c,,,,,,,,,,,,,,,,,,9_10,001,2021_Feb_24_1129,ComputerHuman,2020.1.3,59.76879041132983,
Sychronize.jpg,Number9.jpg,,Computer,Computer.xlsx,1,c,9,,,,,1,2,10,1,0,5,5,6,,,,,,,,,,,,,,,,,,,,,,,,,,,,,,,,,,,,,,,,,,,,,,,,,,,,,,,,,,,,,2461.9027921999996,None,2461.9027921999996,None,2462.381218200001,None,2462.381218200001,None,"['t', 'v']","[8.493756800000483, 9.15378740000051]",2462.381218200001,None,9.15378740000051,8.493756800000483,9,False,False,False,2474.9927276999997,None,2474.9927276999997,None,2474.9927276999997,None,2474.9927276999997,None,2474.9927276999997,None,2474.9927276999997,None,2474.9927276999997,None,2474.9927276999997,None,2476.002493000001,None,2476.002493000001,None,1,c,,,,,,,,,,,,,,,,,,9_10,001,2021_Feb_24_1129,ComputerHuman,2020.1.3,59.76879041132983,
Sychronize.jpg,Number6.jpg,,Computer,Computer.xlsx,1,c,6,,,,,1,2,10,1,0,6,6,0,,,,,,,,,,,,,,,,,,,,,,,,,,,,,,,,,,,,,,,,,,,,,,,,,,,,,,,,,,,,,2477.0226183000004,None,2477.0226183000004,None,2477.5021406999995,None,2477.5021406999995,None,"['t', 'v']","[5.752837599999111, 6.096761400000105]",2477.5021406999995,None,6.096761400000105,5.752837599999111,6,False,False,False,2487.6800947,None,2487.6800947,None,2487.6800947,None,2487.6800947,None,2487.6800947,None,2487.6800947,None,2487.6800947,None,2487.6800947,None,2488.6896836999995,None,2488.6896836999995,None,1,c,,,,,,,,,,,,,,,,,,9_10,001,2021_Feb_24_1129,ComputerHuman,2020.1.3,59.76879041132983,
Sychronize.jpg,Number8.jpg,,Computer,Computer.xlsx,1,c,8,,,,,1,2,10,1,0,7,7,5,,,,,,,,,,,,,,,,,,,,,,,,,,,,,,,,,,,,,,,,,,,,,,,,,,,,,,,,,,,,,2489.7152686,None,2489.7152686,None,2490.188368100001,None,2490.188368100001,None,"['t', 'v']","[7.818195600000763, 8.014718899999934]",2490.188368100001,None,8.014718899999934,7.818195600000763,8,False,False,False,2502.3636386000007,None,2502.3636386000007,None,2502.3636386000007,None,2502.3636386000007,None,2502.3636386000007,None,2502.3636386000007,None,2502.3636386000007,None,2502.3636386000007,None,2503.3980383999997,None,2503.3980383999997,None,1,c,,,,,,,,,,,,,,,,,,9_10,001,2021_Feb_24_1129,ComputerHuman,2020.1.3,59.76879041132983,
Sychronize.jpg,Number7.jpg,,Computer,Computer.xlsx,1,c,7,,,,,1,2,10,1,0,8,8,2,,,,,,,,,,,,,,,,,,,,,,,,,,,,,,,,,,,,,,,,,,,,,,,,,,,,,,,,,,,,,2504.3989604000008,None,2504.3989604000008,None,2504.874130700001,None,2504.874130700001,None,"['v', 't']","[6.972553800000242, 7.0324181000014505]",2504.874130700001,None,6.972553800000242,7.0324181000014505,7,False,False,False,2514.2140967000005,None,2514.2140967000005,None,2514.2140967000005,None,2514.2140967000005,None,2514.2140967000005,None,2514.2140967000005,None,2514.2140967000005,None,2514.2140967000005,None,2515.2283638,None,2515.2283638,None,1,c,,,,,,,,,,,,,,,,,,9_10,001,2021_Feb_24_1129,ComputerHuman,2020.1.3,59.76879041132983,
Sychronize.jpg,Number6.jpg,,Computer,Computer.xlsx,1,c,6,,,,,1,2,10,1,0,9,9,1,,,,,,,,,,,,,,,,,,,,,,,,,,,,,,,,,,,,,,,,,,,,,,,,,,,,,,,,,,,,,2516.2527892000007,None,2516.2527892000007,None,2516.726891200001,None,2516.726891200001,None,"['t', 'v']","[6.198005699998248, 6.219678799998292]",2516.726891200001,None,6.219678799998292,6.198005699998248,6,False,False,False,2526.8594619000005,None,2526.8594619000005,None,2526.8594619000005,None,2526.8594619000005,None,2526.8594619000005,None,2526.8594619000005,None,2526.8594619000005,None,2526.8594619000005,None,2527.864490500001,None,2527.864490500001,None,1,c,,,,,,,,,,,,,,,,,,9_10,001,2021_Feb_24_1129,ComputerHuman,2020.1.3,59.76879041132983,
,,,,Computer.xlsx,1,c,,,,,,1,2,10,1,,,,,,,,,,,,,,,,,,,,,,,,,,,,,,,,,,,,,,,,,,,,,,,,,,,,,,,,,,,,,,,,,,,,,,,,,,,,,,,,,,,,,,,,,,,,,,,,,,,,,,,1,c,2528.8629444000007,None,c,1,0.5388134999993781,2529.8596862999993,None,2530.4501907000003,None,None,None,None,None,None,,,,9_10,001,2021_Feb_24_1129,ComputerHuman,2020.1.3,59.76879041132983,
Sychronize.jpg,Number9.jpg,,Human,Human.xlsx,2,h,9,,,,,1,3,11,4,0,0,0,6,,,,,,,,,,,,,,,,,,,,,,,,,,,,,,,,,,,,,,,,,,,,,,,,,,,,,,,,,2535.4499927999996,None,2535.4499927999996,None,2538.5009258,None,2538.5009258,None,2538.9648210999994,None,2538.9648210999994,None,"['v', 't']","[8.885690299999624, 9.302116099999694]",2538.9648210999994,None,8.885690299999624,9.302116099999694,9,False,False,False,2550.6243423000005,None,2550.6243423000005,None,2550.6243423000005,None,2550.6243423000005,None,2550.6243423000005,None,2550.6243423000005,None,2550.6243423000005,None,2550.6243423000005,None,2551.6357608000008,None,2551.6357608000008,None,2,h,,,,,,,,,,,,,,,,,,9_10,001,2021_Feb_24_1129,ComputerHuman,2020.1.3,59.76879041132983,
Sychronize.jpg,Number8.jpg,,Human,Human.xlsx,2,h,8,,,,,1,3,11,4,0,1,1,5,,,,,,,,,,,,,,,,,,,,,,,,,,,,,,,,,,,,,,,,,,,,,,,,,,,,,,,,,,,,,2552.6539463,None,2552.6539463,None,2553.1328599,None,2553.1328599,None,"['t', 'v']","[7.8817449000016495, 7.90202600000157]",2553.1328599,None,7.90202600000157,7.8817449000016495,8,False,False,False,2564.5458554000006,None,2564.5458554000006,None,2564.5458554000006,None,2564.5458554000006,None,2564.5458554000006,None,2564.5458554000006,None,2564.5458554000006,None,2564.5458554000006,None,2565.5767315000003,None,2565.5767315000003,None,2,h,,,,,,,,,,,,,,,,,,9_10,001,2021_Feb_24_1129,ComputerHuman,2020.1.3,59.76879041132983,
Sychronize.jpg,Number9.jpg,,Human,Human.xlsx,2,h,9,,,,,1,3,11,4,0,2,2,7,,,,,,,,,,,,,,,,,,,,,,,,,,,,,,,,,,,,,,,,,,,,,,,,,,,,,,,,,,,,,2566.5794214000007,None,2566.5794214000007,None,2567.0536026,None,2567.0536026,None,"['t', 'v']","[8.563417599998502, 9.828142499998648]",2567.0536026,None,9.828142499998648,8.563417599998502,9,False,False,False,2579.7381589000006,None,2579.7381589000006,None,2579.7381589000006,None,2579.7381589000006,None,2579.7381589000006,None,2579.7381589000006,None,2579.7381589000006,None,2579.7381589000006,None,2580.758213600001,None,2580.758213600001,None,2,h,,,,,,,,,,,,,,,,,,9_10,001,2021_Feb_24_1129,ComputerHuman,2020.1.3,59.76879041132983,
Sychronize.jpg,Number6.jpg,,Human,Human.xlsx,2,h,6,,,,,1,3,11,4,0,3,3,1,,,,,,,,,,,,,,,,,,,,,,,,,,,,,,,,,,,,,,,,,,,,,,,,,,,,,,,,,,,,,2581.7600224999996,None,2581.7600224999996,None,2582.2567135,None,2582.2567135,None,"['t', 'v']","[5.821193600000697, 6.302157800000714]",2582.2567135,None,6.302157800000714,5.821193600000697,6,False,False,False,2592.174427000001,None,2592.174427000001,None,2592.174427000001,None,2592.174427000001,None,2592.174427000001,None,2592.174427000001,None,2592.174427000001,None,2592.174427000001,None,2593.1777152000004,None,2593.1777152000004,None,2,h,,,,,,,,,,,,,,,,,,9_10,001,2021_Feb_24_1129,ComputerHuman,2020.1.3,59.76879041132983,
Sychronize.jpg,Number10.jpg,,Human,Human.xlsx,2,h,10,,,,,1,3,11,4,0,4,4,9,,,,,,,,,,,,,,,,,,,,,,,,,,,,,,,,,,,,,,,,,,,,,,,,,,,,,,,,,,,,,2594.202138400001,None,2594.202138400001,None,2594.6761101,None,2594.6761101,None,"['t', 'v']","[8.102713400001448, 10.374385900000561]",2594.6761101,None,10.374385900000561,8.102713400001448,10,False,False,False,2608.0549333999998,None,2608.0549333999998,None,2608.0549333999998,None,2608.0549333999998,None,2608.0549333999998,None,2608.0549333999998,None,2608.0549333999998,None,2608.0549333999998,None,2609.0645085000006,None,2609.0645085000006,None,2,h,,,,,,,,,,,,,,,,,,9_10,001,2021_Feb_24_1129,ComputerHuman,2020.1.3,59.76879041132983,
Sychronize.jpg,Number7.jpg,,Human,Human.xlsx,2,h,7,,,,,1,3,11,4,0,5,5,2,,,,,,,,,,,,,,,,,,,,,,,,,,,,,,,,,,,,,,,,,,,,,,,,,,,,,,,,,,,,,2610.0831097,None,2610.0831097,None,2610.5624438000004,None,2610.5624438000004,None,"['v', 't']","[7.364076300000306, 7.428056600001582]",2610.5624438000004,None,7.364076300000306,7.428056600001582,7,False,False,False,2619.9336367999995,None,2619.9336367999995,None,2619.9336367999995,None,2619.9336367999995,None,2619.9336367999995,None,2619.9336367999995,None,2619.9336367999995,None,2619.9336367999995,None,2620.949895500001,None,2620.949895500001,None,2,h,,,,,,,,,,,,,,,,,,9_10,001,2021_Feb_24_1129,ComputerHuman,2020.1.3,59.76879041132983,
Sychronize.jpg,Number8.jpg,,Human,Human.xlsx,2,h,8,,,,,1,3,11,4,0,6,6,4,,,,,,,,,,,,,,,,,,,,,,,,,,,,,,,,,,,,,,,,,,,,,,,,,,,,,,,,,,,,,2621.9732887,None,2621.9732887,None,2622.4481743999995,None,2622.4481743999995,None,"['t', 'v']","[7.466389699999127, 8.178600600000209]",2622.4481743999995,None,8.178600600000209,7.466389699999127,8,False,False,False,2634.100168,None,2634.100168,None,2634.100168,None,2634.100168,None,2634.100168,None,2634.100168,None,2634.100168,None,2634.100168,None,2635.1198469,None,2635.1198469,None,2,h,,,,,,,,,,,,,,,,,,9_10,001,2021_Feb_24_1129,ComputerHuman,2020.1.3,59.76879041132983,
Sychronize.jpg,Number10.jpg,,Human,Human.xlsx,2,h,10,,,,,1,3,11,4,0,7,7,8,,,,,,,,,,,,,,,,,,,,,,,,,,,,,,,,,,,,,,,,,,,,,,,,,,,,,,,,,,,,,2636.1429461,None,2636.1429461,None,2636.6162367000006,None,2636.6162367000006,None,"['v', 't']","[8.358169200000702, 9.818377999999939]",2636.6162367000006,None,8.358169200000702,9.818377999999939,10,False,False,False,2648.9408168,None,2648.9408168,None,2648.9408168,None,2648.9408168,None,2648.9408168,None,2648.9408168,None,2648.9408168,None,2648.9408168,None,2649.9547832,None,2649.9547832,None,2,h,,,,,,,,,,,,,,,,,,9_10,001,2021_Feb_24_1129,ComputerHuman,2020.1.3,59.76879041132983,
Sychronize.jpg,Number7.jpg,,Human,Human.xlsx,2,h,7,,,,,1,3,11,4,0,8,8,3,,,,,,,,,,,,,,,,,,,,,,,,,,,,,,,,,,,,,,,,,,,,,,,,,,,,,,,,,,,,,2650.9746889000007,None,2650.9746889000007,None,2651.4545848000007,None,2651.4545848000007,None,"['t', 'v']","[5.9516118000010465, 7.435803399999713]",2651.4545848000007,None,7.435803399999713,5.9516118000010465,7,False,False,False,2662.3057359000004,None,2662.3057359000004,None,2662.3057359000004,None,2662.3057359000004,None,2662.3057359000004,None,2662.3057359000004,None,2662.3057359000004,None,2662.3057359000004,None,2663.3236953999995,None,2663.3236953999995,None,2,h,,,,,,,,,,,,,,,,,,9_10,001,2021_Feb_24_1129,ComputerHuman,2020.1.3,59.76879041132983,
Sychronize.jpg,Number6.jpg,,Human,Human.xlsx,2,h,6,,,,,1,3,11,4,0,9,9,0,,,,,,,,,,,,,,,,,,,,,,,,,,,,,,,,,,,,,,,,,,,,,,,,,,,,,,,,,,,,,2664.3434652000005,None,2664.3434652000005,None,2664.8217034,None,2664.8217034,None,"['t', 'v']","[5.540434099999402, 6.288752399999794]",2664.8217034,None,6.288752399999794,5.540434099999402,6,False,False,False,2674.0977742999994,None,2674.0977742999994,None,2674.0977742999994,None,2674.0977742999994,None,2674.0977742999994,None,2674.0977742999994,None,2674.0977742999994,None,2674.0977742999994,None,2675.1105531000003,None,2675.1105531000003,None,2,h,,,,,,,,,,,,,,,,,,9_10,001,2021_Feb_24_1129,ComputerHuman,2020.1.3,59.76879041132983,
,,,,Human.xlsx,2,h,,,,,,1,3,11,4,,,,,,,,,,,,,,,,,,,,,,,,,,,,,,,,,,,,,,,,,,,,,,,,,,,,,,,,,,,,,,,,,,,,,,,,,,,,,,,,,,,,,,,,,,,,,,,,,,,,,,,2,h,2676.1091265000005,None,h,1,1.8160492000006343,2677.1061187999994,None,None,None,2678.9484912,None,"['space', 'space']",2679.9399626999993,None,"[1.045696900000621, 1.5065298000008625]",,,9_10,001,2021_Feb_24_1129,ComputerHuman,2020.1.3,59.76879041132983,
Sychronize.jpg,Number6.jpg,,Computer,Computer.xlsx,2,c,6,,,,,1,4,12,5,0,0,0,1,,,,,,,,,,,,,,,,,,,,,,,,,,,,,,,,,,,,,,,,,,,,,,,,,,,,,,,,,2681.4840269000006,None,2681.4840269000006,None,2684.5267873000003,None,2684.5267873000003,None,2684.993228100001,None,2684.993228100001,None,"['t', 'v']","[5.155497599998853, 6.481358199998795]",2684.993228100001,None,6.481358199998795,5.155497599998853,6,False,False,False,2694.4856627,None,2694.4856627,None,2694.4856627,None,2694.4856627,None,2694.4856627,None,2694.4856627,None,2694.4856627,None,2694.4856627,None,2695.4975349000006,None,2695.4975349000006,None,2,c,,,,,,,,,,,,,,,,,,9_10,001,2021_Feb_24_1129,ComputerHuman,2020.1.3,59.76879041132983,
Sychronize.jpg,Number8.jpg,,Computer,Computer.xlsx,2,c,8,,,,,1,4,12,5,0,1,1,5,,,,,,,,,,,,,,,,,,,,,,,,,,,,,,,,,,,,,,,,,,,,,,,,,,,,,,,,,,,,,2696.5278186000005,None,2696.5278186000005,None,2696.9969690000007,None,2696.9969690000007,None,"['t', 'v']","[7.421612799998911, 7.945662899999661]",2696.9969690000007,None,7.945662899999661,7.421612799998911,8,False,False,False,2708.686146700001,None,2708.686146700001,None,2708.686146700001,None,2708.686146700001,None,2708.686146700001,None,2708.686146700001,None,2708.686146700001,None,2708.686146700001,None,2709.7001843000007,None,2709.7001843000007,None,2,c,,,,,,,,,,,,,,,,,,9_10,001,2021_Feb_24_1129,ComputerHuman,2020.1.3,59.76879041132983,
Sychronize.jpg,Number7.jpg,,Computer,Computer.xlsx,2,c,7,,,,,1,4,12,5,0,2,2,3,,,,,,,,,,,,,,,,,,,,,,,,,,,,,,,,,,,,,,,,,,,,,,,,,,,,,,,,,,,,,2710.719846000001,None,2710.719846000001,None,2711.1994043999994,None,2711.1994043999994,None,"['t', 'v']","[6.547079699999813, 7.482940099998814]",2711.1994043999994,None,7.482940099998814,6.547079699999813,7,False,False,False,2722.2672009000007,None,2722.2672009000007,None,2722.2672009000007,None,2722.2672009000007,None,2722.2672009000007,None,2722.2672009000007,None,2722.2672009000007,None,2722.2672009000007,None,2723.2873953999997,None,2723.2873953999997,None,2,c,,,,,,,,,,,,,,,,,,9_10,001,2021_Feb_24_1129,ComputerHuman,2020.1.3,59.76879041132983,
Sychronize.jpg,Number10.jpg,,Computer,Computer.xlsx,2,c,10,,,,,1,4,12,5,0,3,3,8,,,,,,,,,,,,,,,,,,,,,,,,,,,,,,,,,,,,,,,,,,,,,,,,,,,,,,,,,,,,,2724.2966317,None,2724.2966317,None,2724.784288,None,2724.784288,None,"['t', 'v']","[9.165983400000187, 10.694025799999508]",2724.784288,None,10.694025799999508,9.165983400000187,10,False,False,False,2738.5544440000003,None,2738.5544440000003,None,2738.5544440000003,None,2738.5544440000003,None,2738.5544440000003,None,2738.5544440000003,None,2738.5544440000003,None,2738.5544440000003,None,2739.5745505000004,None,2739.5745505000004,None,2,c,,,,,,,,,,,,,,,,,,9_10,001,2021_Feb_24_1129,ComputerHuman,2020.1.3,59.76879041132983,
Sychronize.jpg,Number9.jpg,,Computer,Computer.xlsx,2,c,9,,,,,1,4,12,5,0,4,4,7,,,,,,,,,,,,,,,,,,,,,,,,,,,,,,,,,,,,,,,,,,,,,,,,,,,,,,,,,,,,,2740.585759300001,None,2740.585759300001,None,2741.0707422999994,None,2741.0707422999994,None,"['t', 'v']","[8.780024399999093, 8.867337099998622]",2741.0707422999994,None,8.867337099998622,8.780024399999093,9,False,False,False,2754.224387000001,None,2754.224387000001,None,2754.224387000001,None,2754.224387000001,None,2754.224387000001,None,2754.224387000001,None,2754.224387000001,None,2754.224387000001,None,2755.2623852000006,None,2755.2623852000006,None,2,c,,,,,,,,,,,,,,,,,,9_10,001,2021_Feb_24_1129,ComputerHuman,2020.1.3,59.76879041132983,
Sychronize.jpg,Number6.jpg,,Computer,Computer.xlsx,2,c,6,,,,,1,4,12,5,0,5,5,0,,,,,,,,,,,,,,,,,,,,,,,,,,,,,,,,,,,,,,,,,,,,,,,,,,,,,,,,,,,,,2756.2617144000005,None,2756.2617144000005,None,2756.7419402999994,None,2756.7419402999994,None,"['t', 'v']","[4.832313200000499, 6.024376999999731]",2756.7419402999994,None,6.024376999999731,4.832313200000499,6,False,False,False,2765.7970711999997,None,2765.7970711999997,None,2765.7970711999997,None,2765.7970711999997,None,2765.7970711999997,None,2765.7970711999997,None,2765.7970711999997,None,2765.7970711999997,None,2766.811789300001,None,2766.811789300001,None,2,c,,,,,,,,,,,,,,,,,,9_10,001,2021_Feb_24_1129,ComputerHuman,2020.1.3,59.76879041132983,
Sychronize.jpg,Number9.jpg,,Computer,Computer.xlsx,2,c,9,,,,,1,4,12,5,0,6,6,6,,,,,,,,,,,,,,,,,,,,,,,,,,,,,,,,,,,,,,,,,,,,,,,,,,,,,,,,,,,,,2767.8347542,None,2767.8347542,None,2768.311176800001,None,2768.311176800001,None,"['t', 'v']","[8.283145000001241, 9.571377300000677]",2768.311176800001,None,9.571377300000677,8.283145000001241,9,False,False,False,2780.7955668000004,None,2780.7955668000004,None,2780.7955668000004,None,2780.7955668000004,None,2780.7955668000004,None,2780.7955668000004,None,2780.7955668000004,None,2780.7955668000004,None,2781.8146743000007,None,2781.8146743000007,None,2,c,,,,,,,,,,,,,,,,,,9_10,001,2021_Feb_24_1129,ComputerHuman,2020.1.3,59.76879041132983,
Sychronize.jpg,Number8.jpg,,Computer,Computer.xlsx,2,c,8,,,,,1,4,12,5,0,7,7,4,,,,,,,,,,,,,,,,,,,,,,,,,,,,,,,,,,,,,,,,,,,,,,,,,,,,,,,,,,,,,2782.821776400001,None,2782.821776400001,None,2783.3140034,None,2783.3140034,None,"['v', 't']","[7.716601999998602, 7.740523699998448]",2783.3140034,None,7.716601999998602,7.740523699998448,8,False,False,False,2792.6092615000007,None,2792.6092615000007,None,2792.6092615000007,None,2792.6092615000007,None,2792.6092615000007,None,2792.6092615000007,None,2792.6092615000007,None,2792.6092615000007,None,2793.6373457,None,2793.6373457,None,2,c,,,,,,,,,,,,,,,,,,9_10,001,2021_Feb_24_1129,ComputerHuman,2020.1.3,59.76879041132983,
Sychronize.jpg,Number7.jpg,,Computer,Computer.xlsx,2,c,7,,,,,1,4,12,5,0,8,8,2,,,,,,,,,,,,,,,,,,,,,,,,,,,,,,,,,,,,,,,,,,,,,,,,,,,,,,,,,,,,,2794.6362610999995,None,2794.6362610999995,None,2795.1163841000007,None,2795.1163841000007,None,"['t', 'v']","[6.594069200000376, 6.822270799999387]",2795.1163841000007,None,6.822270799999387,6.594069200000376,7,False,False,False,2805.6761281999998,None,2805.6761281999998,None,2805.6761281999998,None,2805.6761281999998,None,2805.6761281999998,None,2805.6761281999998,None,2805.6761281999998,None,2805.6761281999998,None,2806.6880553,None,2806.6880553,None,2,c,,,,,,,,,,,,,,,,,,9_10,001,2021_Feb_24_1129,ComputerHuman,2020.1.3,59.76879041132983,
Sychronize.jpg,Number10.jpg,,Computer,Computer.xlsx,2,c,10,,,,,1,4,12,5,0,9,9,9,,,,,,,,,,,,,,,,,,,,,,,,,,,,,,,,,,,,,,,,,,,,,,,,,,,,,,,,,,,,,2807.7061361000005,None,2807.7061361000005,None,2808.1859606000007,None,2808.1859606000007,None,"['t', 'v']","[9.248063999999431, 9.989946600000621]",2808.1859606000007,None,9.989946600000621,9.248063999999431,10,False,False,False,2821.465281400001,None,2821.465281400001,None,2821.465281400001,None,2821.465281400001,None,2821.465281400001,None,2821.465281400001,None,2821.465281400001,None,2821.465281400001,None,2822.472789300001,None,2822.472789300001,None,2,c,,,,,,,,,,,,,,,,,,9_10,001,2021_Feb_24_1129,ComputerHuman,2020.1.3,59.76879041132983,
